participant_number,subexperiment_number,MRTScore,MRTAcc,MRTGroup,nback_hits_0,nback_hit_rate_0,nback_correct_rejections_0,nback_rt_target_0,nback_rt_nontarget_0,nback_composite_0,nback_hits_1,nback_hit_rate_1,nback_correct_rejections_1,nback_rt_target_1,nback_rt_nontarget_1,nback_composite_1,nback_hits_2,nback_hit_rate_2,nback_correct_rejections_2,nback_rt_target_2,nback_rt_nontarget_2,nback_composite_2,rest_time,time_subexperiment,accuracy_subexperiment,accuracy_total,answer_correct_subexperiment,answer_incorrect_subexperiment,feedback_score_subexperiment,O2Hb_highest_peak,O2Hb_difference_peak,nback_hits_avg,nback_hit_rate_avg,nback_rt_target_avg,nback_rt_non_target_avg,nback_composite_avg,trial_duration_1,trial_duration_2,trial_duration_3,trial_duration_4,trial_duration_mean,performance_subexperiment,feedback_score_tutorial_1,feedback_score_tutorial_2,feedback_score_tutorial_3,feedback_score_rest_1,O2Hb_peak_trial_1,O2Hb_peak_trial_2,O2Hb_peak_trial_3,O2Hb_peak_trial_4,O2Hb_difference_peak_trial_1,O2Hb_difference_peak_trial_2,O2Hb_difference_peak_trial_3,O2Hb_difference_peak_trial_4,cogload_subexperiment,cogload_mean,cogload_group
2,1,0,0.0,Low,8,100.0,100.0,429.662737500621,,0.23274068536105127,9,90.0,100.0,468.9398778007469,,0.191922257544156,7,87.5,93.75,395.24815713853707,1204.8808499821462,0.2213799063187806,300.00599999999986,121.68100000000004,50.0,46.875,2,2,5,0.016712155549419978,0.04003758082857143,8.0,92.5,431.2835908133017,,0.21534761640799596,45.052000000000135,11.149999999999864,33.85400000000004,28.17800000000011,29.558500000000038,1.6915608031530673,1,3,8,1,0.016712155549419978,0.00999722884941998,0.011089454149419978,0.006186862506562837,0.04003758082857143,0.02409871897142857,0.019406927285714283,0.010681410014285714,3.0,5.5,0
2,2,0,0.0,Low,8,100.0,100.0,429.662737500621,,0.23274068536105127,9,90.0,100.0,468.9398778007469,,0.191922257544156,7,87.5,93.75,395.24815713853707,1204.8808499821462,0.2213799063187806,300.00599999999986,109.62699999999995,75.0,46.875,3,1,4,0.056554391006562836,0.06901065457142858,8.0,92.5,431.2835908133017,,0.21534761640799596,42.835000000000036,31.192999999999984,12.032999999999902,25.688000000000102,27.937250000000006,2.684587781546143,1,3,8,1,0.056554391006562836,0.009049697292277125,0.006467077435134265,0.011557139863705695,0.06901065457142858,0.016954203571428572,0.012014498485714283,0.01944675917142857,3.0,5.5,0
2,3,0,0.0,Low,8,100.0,100.0,429.662737500621,,0.23274068536105127,9,90.0,100.0,468.9398778007469,,0.191922257544156,7,87.5,93.75,395.24815713853707,1204.8808499821462,0.2213799063187806,300.00599999999986,140.31499999999983,25.0,46.875,1,3,7,0.05952094143513426,0.07496550831428571,8.0,92.5,431.2835908133017,,0.21534761640799596,39.246999999999844,31.576000000000022,40.256000000000085,31.654999999999973,35.68349999999998,0.7006039205795399,1,3,8,1,0.019090580063705696,0.01247344800656284,0.016751036863705694,0.05952094143513426,0.02974309232857143,0.019824716271428573,0.03219560374285714,0.07415363485714285,3.0,5.5,1
2,4,0,0.0,Low,8,100.0,100.0,429.662737500621,,0.23274068536105127,9,90.0,100.0,468.9398778007469,,0.191922257544156,7,87.5,93.75,395.24815713853707,1204.8808499821462,0.2213799063187806,300.00599999999986,89.45800000000008,25.0,46.875,1,3,7,0.03870671829227712,0.060316307799999996,8.0,92.5,431.2835908133017,,0.21534761640799596,15.026000000000067,22.374000000000024,23.822999999999865,30.13000000000011,22.838250000000016,1.0946548006086272,1,3,8,1,0.012071313006562836,0.018663686292277125,0.03870671829227712,0.03204787929227713,0.02019942454285714,0.029208541742857145,0.04947912571428571,0.053657468800000004,3.0,5.5,1
2,5,0,0.0,Low,8,100.0,100.0,429.662737500621,,0.23274068536105127,9,90.0,100.0,468.9398778007469,,0.191922257544156,7,87.5,93.75,395.24815713853707,1204.8808499821462,0.2213799063187806,300.00599999999986,144.34500000000003,25.0,46.875,1,3,7,0.036959321863705694,0.07176430985714286,8.0,92.5,431.2835908133017,,0.21534761640799596,28.631999999999834,35.16100000000006,42.17000000000007,40.552000000000135,36.628750000000025,0.6825239736545742,1,3,8,1,0.03141319089227712,0.036959321863705694,0.029712071892277123,0.018631506863705693,0.04726530588571429,0.054493472142857144,0.0645170598857143,0.03210844514285714,3.0,5.5,1
2,6,0,0.0,Low,8,100.0,100.0,429.662737500621,,0.23274068536105127,9,90.0,100.0,468.9398778007469,,0.191922257544156,7,87.5,93.75,395.24815713853707,1204.8808499821462,0.2213799063187806,300.00599999999986,126.91899999999987,75.0,46.875,3,1,7,0.022419385720848554,0.04993322385714287,8.0,92.5,431.2835908133017,,0.21534761640799596,25.311999999999898,34.152000000000044,22.338999999999942,47.71799999999985,32.38024999999993,2.316226712270602,1,3,8,1,0.02006510572084855,0.02208383629227712,0.022419385720848554,0.01429773007799141,0.04757894385714286,0.03488322305714286,0.03984563542857143,0.037739426357142856,3.0,5.5,1
2,7,0,0.0,Low,8,100.0,100.0,429.662737500621,,0.23274068536105127,9,90.0,100.0,468.9398778007469,,0.191922257544156,7,87.5,93.75,395.24815713853707,1204.8808499821462,0.2213799063187806,300.00599999999986,122.38200000000006,75.0,46.875,3,1,6,0.022061000577991405,0.07921064671428571,8.0,92.5,431.2835908133017,,0.21534761640799596,37.70900000000029,18.524999999999636,34.03500000000031,33.766999999999825,31.009000000000015,2.418652649230867,1,3,8,1,0.022061000577991405,0.010109161463705694,0.015528332635134267,0.009641771349419983,0.07921064671428571,0.018388949057142855,0.02724195532857143,0.018307992942857145,3.0,5.5,1
2,8,0,0.0,Low,8,100.0,100.0,429.662737500621,,0.23274068536105127,9,90.0,100.0,468.9398778007469,,0.191922257544156,7,87.5,93.75,395.24815713853707,1204.8808499821462,0.2213799063187806,300.00599999999986,126.63200000000006,25.0,46.875,1,3,7,0.0773503295779914,0.09380960728571427,8.0,92.5,431.2835908133017,,0.21534761640799596,33.31800000000021,20.679999999999836,27.38700000000017,45.246999999999844,31.658000000000015,0.7896898098426934,1,3,8,1,0.011264877877991407,0.006815956392277123,0.0773503295779914,0.03504908214941998,0.020655661627142857,0.016737546942857142,0.08592918298571428,0.046860929571428574,3.0,5.5,1
3,1,0,0.0,Low,8,100.0,100.0,432.0889249938773,,0.2314338420069827,10,100.0,100.0,444.56208002520725,,0.2249404627455627,8,100.0,96.875,543.1930249906145,2013.5157000040635,0.18409662016872885,300.0095,92.54500000000007,25.0,78.125,1,3,6,0.04982893521026895,0.07866557316666667,8.666666666666666,100.0,473.28134333656635,,0.2134903083070914,15.986999999999853,21.585000000000036,30.735000000000127,38.3119999999999,26.65474999999998,0.9379191326123869,4,1,7,1,0.042070663043602276,0.04982893521026895,0.03276319704360229,0.020884854543602286,0.07090730099999999,0.06432729916666667,0.0540956525,0.034194348666666666,3.0,4.0,1
3,2,0,0.0,Low,8,100.0,100.0,432.0889249938773,,0.2314338420069827,10,100.0,100.0,444.56208002520725,,0.2249404627455627,8,100.0,96.875,543.1930249906145,2013.5157000040635,0.18409662016872885,300.0095,55.68599999999992,100.0,78.125,4,0,2,0.03195982821026896,0.060612664000000004,8.666666666666666,100.0,473.28134333656635,,0.2134903083070914,25.40000000000009,9.707999999999856,9.07100000000014,15.042999999999893,14.805499999999995,6.7542467326331455,4,1,7,1,0.03195982821026896,0.016623654543602286,0.013313229876935617,0.02907820701026895,0.054285068000000006,0.037516883333333334,0.03620379256666667,0.057719274466666665,3.0,4.0,0
3,3,0,0.0,Low,8,100.0,100.0,432.0889249938773,,0.2314338420069827,10,100.0,100.0,444.56208002520725,,0.2249404627455627,8,100.0,96.875,543.1930249906145,2013.5157000040635,0.18409662016872885,300.0095,95.07400000000007,75.0,78.125,3,1,3,0.029250302210268957,0.059176902833333336,8.666666666666666,100.0,473.28134333656635,,0.2134903083070914,19.124000000000024,31.988000000000056,19.909999999999854,29.64500000000021,25.166750000000036,2.980122582375551,4,1,7,1,0.029250302210268957,0.022803244710268955,0.017913658043602287,0.010752756710268952,0.04647291216666667,0.036084092000000005,0.026627704500000002,0.04067935733333333,3.0,4.0,0
3,4,0,0.0,Low,8,100.0,100.0,432.0889249938773,,0.2314338420069827,10,100.0,100.0,444.56208002520725,,0.2249404627455627,8,100.0,96.875,543.1930249906145,2013.5157000040635,0.18409662016872885,300.0095,93.19999999999982,100.0,78.125,4,0,2,0.020888236710268956,0.04802461833333334,8.666666666666666,100.0,473.28134333656635,,0.2134903083070914,34.677999999999884,10.586999999999989,33.5630000000001,16.843999999999824,23.91799999999995,4.18095158458066,4,1,7,1,0.014913610710268954,0.007629487376935619,0.016640947876935618,0.020888236710268956,0.042049992333333334,0.023405879166666668,0.025493400833333332,0.030051542166666667,3.0,4.0,0
3,5,0,0.0,Low,8,100.0,100.0,432.0889249938773,,0.2314338420069827,10,100.0,100.0,444.56208002520725,,0.2249404627455627,8,100.0,96.875,543.1930249906145,2013.5157000040635,0.18409662016872885,300.0095,78.32200000000012,75.0,78.125,3,1,3,0.035199233043602285,0.055444610666666665,8.666666666666666,100.0,473.28134333656635,,0.2134903083070914,15.993000000000166,19.412000000000035,13.63299999999981,32.759000000000015,20.449250000000006,3.6676161717422393,4,1,7,1,0.035199233043602285,0.020168187043602286,0.011640093543602285,0.018221183543602287,0.055444610666666665,0.029093694166666666,0.023476291999999996,0.033569483,3.0,4.0,0
3,6,0,0.0,Low,8,100.0,100.0,432.0889249938773,,0.2314338420069827,10,100.0,100.0,444.56208002520725,,0.2249404627455627,8,100.0,96.875,543.1930249906145,2013.5157000040635,0.18409662016872885,300.0095,93.39200000000005,75.0,78.125,3,1,4,0.015639060043602285,0.030291844499999998,8.666666666666666,100.0,473.28134333656635,,0.2134903083070914,13.286000000000058,22.810999999999922,23.479000000000042,39.11000000000013,24.671500000000037,3.03994487566625,4,1,7,1,0.01399032537693562,0.011492282210268955,0.015639060043602285,0.007260145210268953,0.028643109833333333,0.02155315766666667,0.022381459833333332,0.017614566166666668,3.0,4.0,0
3,7,0,0.0,Low,8,100.0,100.0,432.0889249938773,,0.2314338420069827,10,100.0,100.0,444.56208002520725,,0.2249404627455627,8,100.0,96.875,543.1930249906145,2013.5157000040635,0.18409662016872885,300.0095,69.53499999999985,75.0,78.125,3,1,6,0.03149011946026895,0.05881320825,8.666666666666666,100.0,473.28134333656635,,0.2134903083070914,12.649999999999864,17.182999999999993,21.610000000000127,22.479000000000042,18.480500000000006,4.058331755093205,4,1,7,1,0.03149011946026895,0.014372128543602286,0.019845086043602286,0.010754937543602287,0.05881320825,0.023324259,0.028962697333333336,0.020160703000000002,3.0,4.0,1
3,8,0,0.0,Low,8,100.0,100.0,432.0889249938773,,0.2314338420069827,10,100.0,100.0,444.56208002520725,,0.2249404627455627,8,100.0,96.875,543.1930249906145,2013.5157000040635,0.18409662016872885,300.0095,82.37299999999982,100.0,78.125,4,0,7,0.04301389471026895,0.07015011416666667,8.666666666666666,100.0,473.28134333656635,,0.2134903083070914,15.670999999999822,21.593000000000075,31.396999999999935,13.711999999999989,20.593249999999955,4.85596008400812,4,1,7,1,0.019308724043602284,0.04301389471026895,0.03729636571026895,0.020722860710268954,0.0464449435,0.06240441216666666,0.06277148016666667,0.03719573733333333,3.0,4.0,1
4,1,3,12.5,Low,8,100.0,100.0,404.70643748994917,,0.2470926843175888,4,40.0,100.0,649.7102749708574,,0.06156590335868429,8,100.0,96.875,789.0615499636624,1578.8971000583842,0.12673282585446619,300.0152999999999,128.1916,75.0,84.375,3,1,4,0.1510828619534992,0.26325613875000003,6.666666666666667,80.0,614.4927541414896,,0.1451304711769131,36.62760000000003,30.31549999999993,32.14350000000002,26.01679999999999,31.27584999999999,2.398016360866292,5,1,7,4,0.10772067070349918,0.10987614070349917,0.07743856695349918,0.05889494732849919,0.21561652625,0.18742671,0.18961184375,0.128082257875,3.0,4.0,0
4,2,3,12.5,Low,8,100.0,100.0,404.70643748994917,,0.2470926843175888,4,40.0,100.0,649.7102749708574,,0.06156590335868429,8,100.0,96.875,789.0615499636624,1578.8971000583842,0.12673282585446619,300.0152999999999,80.10100000000011,100.0,84.375,4,0,3,0.09837793195349918,0.23960523374999998,6.666666666666667,80.0,614.4927541414896,,0.1451304711769131,26.881000000000085,21.955999999999904,16.11200000000008,18.595000000000027,20.886000000000024,4.787896198410413,5,1,7,4,0.06727470695349919,0.0981172182034992,0.09243973820349918,0.04738094432849919,0.17269323749999999,0.19015941000000003,0.23366704,0.132035326125,3.0,4.0,0
4,3,3,12.5,Low,8,100.0,100.0,404.70643748994917,,0.2470926843175888,4,40.0,100.0,649.7102749708574,,0.06156590335868429,8,100.0,96.875,789.0615499636624,1578.8971000583842,0.12673282585446619,300.0152999999999,132.47000000000003,50.0,84.375,2,2,5,0.15685635945349918,0.30389508249999997,6.666666666666667,80.0,614.4927541414896,,0.1451304711769131,26.55399999999986,35.00700000000006,44.77600000000007,29.345000000000027,33.920500000000004,1.474034875665158,5,1,7,4,0.1185489994534992,0.11604103320349918,0.15685635945349918,0.06107310732849918,0.21768579500000002,0.1965112625,0.30389508249999997,0.125308927875,3.0,4.0,1
4,4,3,12.5,Low,8,100.0,100.0,404.70643748994917,,0.2470926843175888,4,40.0,100.0,649.7102749708574,,0.06156590335868429,8,100.0,96.875,789.0615499636624,1578.8971000583842,0.12673282585446619,300.0152999999999,135.61299999999983,100.0,84.375,4,0,5,0.13481058445349917,0.26963491375,6.666666666666667,80.0,614.4927541414896,,0.1451304711769131,37.557000000000016,45.200999999999794,27.93300000000022,28.88499999999999,34.894000000000005,2.8658222043904393,5,1,7,4,0.08246150820349918,0.13481058445349917,0.09179722570349919,0.11126064820349918,0.17169234625,0.26963491375,0.183431655,0.23316507,3.0,4.0,1
4,5,3,12.5,Low,8,100.0,100.0,404.70643748994917,,0.2470926843175888,4,40.0,100.0,649.7102749708574,,0.06156590335868429,8,100.0,96.875,789.0615499636624,1578.8971000583842,0.12673282585446619,300.0152999999999,99.10299999999984,100.0,84.375,4,0,6,0.08524942445349919,0.207944175,6.666666666666667,80.0,614.4927541414896,,0.1451304711769131,26.011999999999944,28.71900000000005,19.759000000000015,30.49499999999989,26.246249999999975,3.81006810496738,5,1,7,4,0.08524942445349919,0.07095570557849919,0.0685601719534992,0.08434345820349919,0.17357745,0.120362588375,0.14727878250000004,0.20703820875,3.0,4.0,1
4,6,3,12.5,Low,8,100.0,100.0,404.70643748994917,,0.2470926843175888,4,40.0,100.0,649.7102749708574,,0.06156590335868429,8,100.0,96.875,789.0615499636624,1578.8971000583842,0.12673282585446619,300.0152999999999,100.94200000000001,75.0,84.375,3,1,7,0.17042438320349917,0.28705699125,6.666666666666667,80.0,614.4927541414896,,0.1451304711769131,42.55799999999999,13.076999999999998,20.829999999999927,27.48700000000008,25.988,2.8859473603201478,5,1,7,4,0.17042438320349917,0.05706866695349918,0.04827038945349918,0.10482771945349917,0.28705699125,0.10565679,0.12221370749999999,0.15339179525,3.0,4.0,1
4,7,3,12.5,Low,8,100.0,100.0,404.70643748994917,,0.2470926843175888,4,40.0,100.0,649.7102749708574,,0.06156590335868429,8,100.0,96.875,789.0615499636624,1578.8971000583842,0.12673282585446619,300.0152999999999,98.49499999999989,75.0,84.375,3,1,7,0.0955786794534992,0.18181179375,6.666666666666667,80.0,614.4927541414896,,0.1451304711769131,12.75,32.61799999999994,33.35699999999997,22.700000000000045,25.35624999999999,2.9578506285432598,5,1,7,4,0.0955786794534992,0.06401807492849919,0.07695661820349918,0.06956420195349919,0.1338300175,0.12785249672500001,0.16318973250000002,0.11952788250000002,3.0,4.0,1
4,8,3,12.5,Low,8,100.0,100.0,404.70643748994917,,0.2470926843175888,4,40.0,100.0,649.7102749708574,,0.06156590335868429,8,100.0,96.875,789.0615499636624,1578.8971000583842,0.12673282585446619,300.0152999999999,113.47700000000009,100.0,84.375,4,0,8,0.1278821807034992,0.21471608375,6.666666666666667,80.0,614.4927541414896,,0.1451304711769131,30.037000000000035,35.75,34.9670000000001,12.722999999999956,28.369250000000022,3.5249433805969463,5,1,7,4,0.06950650570349919,0.1278821807034992,0.0789627842034992,0.09145624445349919,0.14385703875,0.21471608375,0.15954888350000002,0.1433438875,3.0,4.0,1
10,1,0,0.0,Low,8,100.0,100.0,413.2961000141222,,0.24195727953054244,10,100.0,100.0,738.8993500149809,,0.1353364297829908,8,100.0,100.0,832.9409375146497,,0.1200565316172147,300.0045,169.0250000000001,75.0,68.75,3,1,3,0.3588574125,0.6096064875,8.666666666666666,100.0,661.7121291812509,,0.16578341364358265,42.87000000000012,38.500999999999976,15.807999999999993,23.40000000000009,30.144750000000045,2.4879954220884195,1,1,7,1,0.32413886249999996,0.16916035250000003,0.21726202125000002,0.22789332499999998,0.5748879375,0.30660259875000007,0.3297924975,0.34522746125,4.0,4.0,0
10,2,0,0.0,Low,8,100.0,100.0,413.2961000141222,,0.24195727953054244,10,100.0,100.0,738.8993500149809,,0.1353364297829908,8,100.0,100.0,832.9409375146497,,0.1200565316172147,300.0045,92.92099999999982,75.0,68.75,3,1,4,0.18690197375,0.34226248625,8.666666666666666,100.0,661.7121291812509,,0.16578341364358265,28.159999999999854,27.248000000000047,25.673000000000002,31.45600000000013,28.13425000000001,2.6657899179825293,1,1,7,1,0.18690197375,0.17612427874999997,0.18602736125,0.13099665624999998,0.2513213305,0.29391500249999997,0.314712415,0.16877469087499997,4.0,4.0,0
10,3,0,0.0,Low,8,100.0,100.0,413.2961000141222,,0.24195727953054244,10,100.0,100.0,738.8993500149809,,0.1353364297829908,8,100.0,100.0,832.9409375146497,,0.1200565316172147,300.0045,184.56799999999998,0.0,68.75,0,4,6,0.32394195000000003,0.49495928,8.666666666666666,100.0,661.7121291812509,,0.16578341364358265,47.65599999999995,41.21499999999992,47.697000000000116,51.27999999999997,46.96199999999999,0.0,1,1,7,1,0.32394195000000003,0.19104694000000003,0.22127358749999998,0.27928140125,0.49495928,0.25446470625,0.33860661,0.41170273125,4.0,4.0,1
10,4,0,0.0,Low,8,100.0,100.0,413.2961000141222,,0.24195727953054244,10,100.0,100.0,738.8993500149809,,0.1353364297829908,8,100.0,100.0,832.9409375146497,,0.1200565316172147,300.0045,122.03199999999993,100.0,68.75,4,0,5,0.32470125999999994,0.4929271974999999,8.666666666666666,100.0,661.7121291812509,,0.16578341364358265,23.336000000000013,32.40499999999997,36.049999999999955,35.84999999999991,31.910249999999962,3.13378929967644,1,1,7,1,0.21542569,0.17713917499999995,0.32470125999999994,0.14445008125,0.3312727475,0.3453651124999999,0.42032098999999995,0.22631207875,4.0,4.0,1
10,5,0,0.0,Low,8,100.0,100.0,413.2961000141222,,0.24195727953054244,10,100.0,100.0,738.8993500149809,,0.1353364297829908,8,100.0,100.0,832.9409375146497,,0.1200565316172147,300.0045,157.93900000000008,100.0,68.75,4,0,4,0.47937778750000004,0.8010890875000001,8.666666666666666,100.0,661.7121291812509,,0.16578341364358265,44.011000000000195,37.562999999999874,45.72900000000004,33.78899999999999,40.273000000000025,2.4830531621682006,1,1,7,1,0.19460601000000002,0.39025116249999997,0.28524674250000004,0.18822498374999996,0.29891877250000004,0.48279638999999996,0.6069580425000001,0.26267108949999995,4.0,4.0,0
10,6,0,0.0,Low,8,100.0,100.0,413.2961000141222,,0.24195727953054244,10,100.0,100.0,738.8993500149809,,0.1353364297829908,8,100.0,100.0,832.9409375146497,,0.1200565316172147,300.0045,116.29199999999992,50.0,68.75,2,2,6,0.26590386875,0.43152171375000004,8.666666666666666,100.0,661.7121291812509,,0.16578341364358265,35.67399999999998,26.462999999999965,26.263000000000147,31.958999999999833,30.08974999999998,1.6616954278450315,1,1,7,1,0.26590386875,0.22851245875,0.133319995,0.15654563124999998,0.37637867375,0.26657508,0.188715435,0.312947045,4.0,4.0,1
10,7,0,0.0,Low,8,100.0,100.0,413.2961000141222,,0.24195727953054244,10,100.0,100.0,738.8993500149809,,0.1353364297829908,8,100.0,100.0,832.9409375146497,,0.1200565316172147,300.0045,104.90600000000018,75.0,68.75,3,1,3,0.34950282499999996,0.50657475,8.666666666666666,100.0,661.7121291812509,,0.16578341364358265,23.70900000000006,18.713999999999942,31.996000000000095,33.69399999999996,27.028250000000014,2.7748744369317273,1,1,7,1,0.34950282499999996,0.21485017000000003,0.20653549625,0.17279971000000002,0.43308272124999997,0.36004071725000003,0.32332898250000003,0.32987163500000005,4.0,4.0,0
10,8,0,0.0,Low,8,100.0,100.0,413.2961000141222,,0.24195727953054244,10,100.0,100.0,738.8993500149809,,0.1353364297829908,8,100.0,100.0,832.9409375146497,,0.1200565316172147,300.0045,138.31500000000005,75.0,68.75,3,1,4,0.38838310125,0.5656606062499999,8.666666666666666,100.0,661.7121291812509,,0.16578341364358265,26.8449999999998,26.144000000000233,47.68899999999985,37.63700000000017,34.578750000000014,2.1689621516104536,1,1,7,1,0.18578899875000002,0.38838310125,0.2089543,0.1633271475,0.24753261820000003,0.43976644324999997,0.386231805,0.28891260875,4.0,4.0,0
15,1,0,0.0,Low,7,87.5,100.0,415.6692285822438,,0.21050391509239985,10,100.0,100.0,482.19574000686407,,0.2073846608403809,8,100.0,96.875,677.1924125059741,834.1540000401437,0.14766851806556208,300.00249999999994,174.07399999999984,75.0,62.5,3,1,7,0.1743711255188091,0.2887549174285714,8.333333333333334,95.83333333333333,525.019127031694,,0.18851903133278092,50.61900000000014,18.80099999999993,39.91599999999994,37.218000000000075,36.63850000000002,2.0470270344037,2,1,6,3,0.055405643275951946,0.04779760909023766,0.03685866794738052,0.1743711255188091,0.1435742839,0.1044423952857143,0.124684902,0.2887549174285714,5.0,3.5,1
15,2,0,0.0,Low,7,87.5,100.0,415.6692285822438,,0.21050391509239985,10,100.0,100.0,482.19574000686407,,0.2073846608403809,8,100.0,96.875,677.1924125059741,834.1540000401437,0.14766851806556208,300.00249999999994,105.14300000000003,50.0,62.5,2,2,8,0.12126748511880907,0.20329431687142854,8.333333333333334,95.83333333333333,525.019127031694,,0.18851903133278092,50.085000000000036,13.327999999999975,17.103000000000065,32.16300000000001,28.169750000000022,1.7749536293364323,2,1,6,3,0.038477172661666226,0.04021458666166623,0.05702303937595195,0.12126748511880907,0.1205040044142857,0.09882071642857143,0.12317544771428572,0.1763276413142857,5.0,3.5,1
15,3,0,0.0,Low,7,87.5,100.0,415.6692285822438,,0.21050391509239985,10,100.0,100.0,482.19574000686407,,0.2073846608403809,8,100.0,96.875,677.1924125059741,834.1540000401437,0.14766851806556208,300.00249999999994,167.7829999999999,75.0,62.5,3,1,9,0.20259637694738047,0.3178906054285714,8.333333333333334,95.83333333333333,525.019127031694,,0.18851903133278092,47.266999999999825,31.153999999999996,43.05000000000018,50.22000000000003,42.92275000000001,1.7473251364369706,2,1,6,3,0.07223801551880908,0.03645907890452337,0.09362073551880909,0.20259637694738047,0.14669465112857144,0.08172771452857142,0.20080058085714286,0.3178906054285714,5.0,3.5,1
15,4,0,0.0,Low,7,87.5,100.0,415.6692285822438,,0.21050391509239985,10,100.0,100.0,482.19574000686407,,0.2073846608403809,8,100.0,96.875,677.1924125059741,834.1540000401437,0.14766851806556208,300.00249999999994,127.3599999999999,100.0,62.5,4,0,7,0.15461746980452334,0.24157434457142854,8.333333333333334,95.83333333333333,525.019127031694,,0.18851903133278092,39.221000000000004,42.19899999999984,31.202999999999975,19.10900000000015,32.93299999999999,3.036467980445147,2,1,6,3,0.09797412409023766,0.04121367809023767,0.15461746980452334,0.08967982880452337,0.1824100702857143,0.10600913657142859,0.24157434457142854,0.17009779642857142,5.0,3.5,1
15,5,0,0.0,Low,7,87.5,100.0,415.6692285822438,,0.21050391509239985,10,100.0,100.0,482.19574000686407,,0.2073846608403809,8,100.0,96.875,677.1924125059741,834.1540000401437,0.14766851806556208,300.00249999999994,151.72399999999993,75.0,62.5,3,1,9,0.18240399409023764,0.2644542761428571,8.333333333333334,95.83333333333333,525.019127031694,,0.18851903133278092,50.23699999999985,32.53300000000013,31.15300000000002,40.89300000000003,38.70400000000001,1.9377842083505576,2,1,6,3,0.05195993309023766,0.037110420233094805,0.18240399409023764,0.04090449394738053,0.10733202957142857,0.070771841,0.2644542761428571,0.09367406742857146,5.0,3.5,1
15,6,0,0.0,Low,7,87.5,100.0,415.6692285822438,,0.21050391509239985,10,100.0,100.0,482.19574000686407,,0.2073846608403809,8,100.0,96.875,677.1924125059741,834.1540000401437,0.14766851806556208,300.00249999999994,121.98799999999983,50.0,62.5,2,2,9,0.08672879394738052,0.16603207857142857,8.333333333333334,95.83333333333333,525.019127031694,,0.18851903133278092,11.322999999999865,36.59899999999993,25.605999999999995,51.003000000000156,31.132749999999987,1.6060258088347485,2,1,6,3,0.04452566251880908,0.08672879394738052,0.032738252375951946,0.028117122090237662,0.12382894714285714,0.15599767402857145,0.08400062755714285,0.10364948542857143,5.0,3.5,1
15,7,0,0.0,Low,7,87.5,100.0,415.6692285822438,,0.21050391509239985,10,100.0,100.0,482.19574000686407,,0.2073846608403809,8,100.0,96.875,677.1924125059741,834.1540000401437,0.14766851806556208,300.00249999999994,129.42499999999973,25.0,62.5,1,3,9,0.20867086609023763,0.3178624634285714,8.333333333333334,95.83333333333333,525.019127031694,,0.18851903133278092,21.057999999999993,43.12699999999995,31.53800000000001,35.58100000000013,32.82600000000002,0.7615914214342285,2,1,6,3,0.05768582166166623,0.20867086609023763,0.044876173090237656,0.04341953966166623,0.15467797242857143,0.3021592738571428,0.1540677704285714,0.0916443781,5.0,3.5,1
15,8,0,0.0,Low,7,87.5,100.0,415.6692285822438,,0.21050391509239985,10,100.0,100.0,482.19574000686407,,0.2073846608403809,8,100.0,96.875,677.1924125059741,834.1540000401437,0.14766851806556208,300.00249999999994,126.25599999999986,50.0,62.5,2,2,9,0.21735813409023766,0.357832977,8.333333333333334,95.83333333333333,525.019127031694,,0.18851903133278092,17.460999999999785,33.152000000000044,37.11299999999983,38.5300000000002,31.563999999999965,1.584083132682805,2,1,6,3,0.21735813409023766,0.027098032090237655,0.07426775894738051,0.15361105266166625,0.357832977,0.053267315999999995,0.14337615757142858,0.27013345,5.0,3.5,1
16,1,9,37.5,Low,8,100.0,100.0,493.8367499999572,,0.20249606777950138,9,90.0,100.0,545.0597000000622,,0.16511952727378254,8,100.0,100.0,511.57862500002693,,0.19547337420517666,300.0060000000001,132.40499999999997,75.0,68.75,3,1,3,0.12722525826232087,0.20806587000000004,8.333333333333334,96.66666666666667,516.8250250000154,,0.1876963230861535,22.014000000000124,17.745999999999867,39.093000000000075,19.003999999999905,24.464249999999993,3.0656979061283307,1,1,5,2,0.10724601826232084,0.04007372159565418,0.06909883126232085,0.12722525826232087,0.17345746966666664,0.06973638235,0.149939443,0.17454320166666668,3.0,3.0,0
16,2,9,37.5,Low,8,100.0,100.0,493.8367499999572,,0.20249606777950138,9,90.0,100.0,545.0597000000622,,0.16511952727378254,8,100.0,100.0,511.57862500002693,,0.19547337420517666,300.0060000000001,54.61400000000003,100.0,68.75,4,0,2,0.12662139826232086,0.21501293333333335,8.333333333333334,96.66666666666667,516.8250250000154,,0.1876963230861535,20.013000000000147,9.212999999999965,12.410000000000082,17.60199999999986,14.809500000000014,6.752422431547311,1,1,5,2,0.12662139826232086,0.037996315595654175,0.04692857992898752,0.031043573262320847,0.21501293333333335,0.10302182566666668,0.08147721166666667,0.07062171,3.0,3.0,0
16,3,9,37.5,Low,8,100.0,100.0,493.8367499999572,,0.20249606777950138,9,90.0,100.0,545.0597000000622,,0.16511952727378254,8,100.0,100.0,511.57862500002693,,0.19547337420517666,300.0060000000001,72.32999999999993,75.0,68.75,3,1,3,0.06251726776232085,0.1340860695,8.333333333333334,96.66666666666667,516.8250250000154,,0.1876963230861535,11.91800000000012,23.139999999999873,26.42100000000005,13.89799999999991,18.844249999999988,3.979993897342693,1,1,5,2,0.06251726776232085,0.04644922159565418,0.046741893262320845,0.04484324492898751,0.1340860695,0.09944312833333332,0.10038865833333332,0.097648815,3.0,3.0,0
16,4,9,37.5,Low,8,100.0,100.0,493.8367499999572,,0.20249606777950138,9,90.0,100.0,545.0597000000622,,0.16511952727378254,8,100.0,100.0,511.57862500002693,,0.19547337420517666,300.0060000000001,77.66500000000019,75.0,68.75,3,1,4,0.06279057159565417,0.11775188049999999,8.333333333333334,96.66666666666667,516.8250250000154,,0.1876963230861535,19.75500000000011,21.177999999999884,26.937000000000126,13.16599999999994,20.259000000000015,3.702058344439506,1,1,5,2,0.04496589826232084,0.05162111259565419,0.06279057159565417,0.03544922042898751,0.06272412299999999,0.10658242150000002,0.10678778833333331,0.057732246999999993,3.0,3.0,1
16,5,9,37.5,Low,8,100.0,100.0,493.8367499999572,,0.20249606777950138,9,90.0,100.0,545.0597000000622,,0.16511952727378254,8,100.0,100.0,511.57862500002693,,0.19547337420517666,300.0060000000001,81.91300000000001,75.0,68.75,3,1,5,0.05649060159565419,0.11322921000000001,8.333333333333334,96.66666666666667,516.8250250000154,,0.1876963230861535,24.391000000000076,27.452999999999975,16.791999999999916,15.947000000000116,21.14575000000002,3.5468120071409115,1,1,5,2,0.05649060159565419,0.05370845659565418,0.03318352659565418,0.04990028992898751,0.11265080333333334,0.11044706500000001,0.06271454166666666,0.08965474500000001,3.0,3.0,1
16,6,9,37.5,Low,8,100.0,100.0,493.8367499999572,,0.20249606777950138,9,90.0,100.0,545.0597000000622,,0.16511952727378254,8,100.0,100.0,511.57862500002693,,0.19547337420517666,300.0060000000001,60.605999999999995,75.0,68.75,3,1,6,0.06106348826232085,0.119832955,8.333333333333334,96.66666666666667,516.8250250000154,,0.1876963230861535,13.787000000000035,18.876999999999953,15.130999999999858,17.17600000000016,16.24275,4.617444706099644,1,1,5,2,0.02138588236232085,0.027826104928987513,0.04178188159565418,0.06106348826232085,0.05479439243333333,0.06358084833333333,0.07646865333333333,0.119832955,3.0,3.0,1
16,7,9,37.5,Low,8,100.0,100.0,493.8367499999572,,0.20249606777950138,9,90.0,100.0,545.0597000000622,,0.16511952727378254,8,100.0,100.0,511.57862500002693,,0.19547337420517666,300.0060000000001,59.15099999999984,75.0,68.75,3,1,6,0.07436726976232085,0.15397525483333332,8.333333333333334,96.66666666666667,516.8250250000154,,0.1876963230861535,9.22199999999998,11.628999999999905,25.055000000000064,15.523999999999887,15.357499999999959,4.883607357968432,1,1,5,2,0.062460534595654184,0.06626488492898752,0.05410736159565418,0.07436726976232085,0.121417628,0.10231558666666668,0.11937445,0.15397525483333332,3.0,3.0,1
16,8,9,37.5,Low,8,100.0,100.0,493.8367499999572,,0.20249606777950138,9,90.0,100.0,545.0597000000622,,0.16511952727378254,8,100.0,100.0,511.57862500002693,,0.19547337420517666,300.0060000000001,61.825000000000045,0.0,68.75,0,4,7,0.1217762415956542,0.26507718,8.333333333333334,96.66666666666667,516.8250250000154,,0.1876963230861535,23.922000000000025,4.207000000000107,9.218000000000075,24.477999999999838,15.456250000000011,0.0,1,1,5,2,0.1217762415956542,0.011067174428987513,0.06673627692898751,0.09105548492898752,0.19496714650000002,0.026629810233333332,0.21003721533333333,0.17661243166666668,3.0,3.0,1
20,1,11,45.83,High,8,100.0,71.875,552.7621249998447,378.0111777776053,0.18090964535608894,9,90.0,100.0,470.9427555559766,,0.19110602921102274,4,50.0,96.875,882.4512749988571,1376.9506999997247,0.05666035215379428,300.00699999999995,184.24399999999991,75.0,75.0,3,1,4,0.0786274553265858,0.14697693311514287,7.0,80.0,635.3853851848928,,0.14289200890696865,24.554999999999836,35.677000000000135,46.909999999999854,28.27300000000014,33.85374999999999,2.2154118819923947,3,2,8,1,0.06901827304087152,0.03604571375515723,0.0786274553265858,0.04274624218372867,0.09717560457142857,0.08295891,0.14697693311514287,0.09562097342857143,8.0,5.0,0
20,2,11,45.83,High,8,100.0,71.875,552.7621249998447,378.0111777776053,0.18090964535608894,9,90.0,100.0,470.9427555559766,,0.19110602921102274,4,50.0,96.875,882.4512749988571,1376.9506999997247,0.05666035215379428,300.00699999999995,124.048,100.0,75.0,4,0,4,0.039708295898014376,0.08104045171428573,7.0,80.0,635.3853851848928,,0.14289200890696865,29.365999999999985,30.412000000000035,22.423000000000002,44.83399999999983,31.758749999999964,3.1487385366237683,3,2,8,1,0.039708295898014376,0.027592277640871514,0.022519567898014375,0.03786757746944295,0.08083620528571428,0.06039493374285715,0.043872029428571435,0.07500061700000002,8.0,5.0,0
20,3,11,45.83,High,8,100.0,71.875,552.7621249998447,378.0111777776053,0.18090964535608894,9,90.0,100.0,470.9427555559766,,0.19110602921102274,4,50.0,96.875,882.4512749988571,1376.9506999997247,0.05666035215379428,300.00699999999995,122.94100000000003,75.0,75.0,3,1,4,0.06924784161230008,0.1258443214285714,7.0,80.0,635.3853851848928,,0.14289200890696865,31.187000000000126,30.44100000000003,30.208999999999833,33.39499999999998,31.307999999999993,2.3955538520505946,3,2,8,1,0.04130275104087151,0.06924784161230008,0.024396801183728663,0.02795715689801437,0.09789923085714286,0.12437796285714284,0.06349796914285716,0.05846862785714285,8.0,5.0,0
20,4,11,45.83,High,8,100.0,71.875,552.7621249998447,378.0111777776053,0.18090964535608894,9,90.0,100.0,470.9427555559766,,0.19110602921102274,4,50.0,96.875,882.4512749988571,1376.9506999997247,0.05666035215379428,300.00699999999995,109.7170000000001,75.0,75.0,3,1,4,0.040869599183728664,0.08836301942857143,7.0,80.0,635.3853851848928,,0.14289200890696865,43.7030000000002,20.478999999999814,31.25200000000018,16.144000000000005,27.89450000000005,2.688702073885528,3,2,8,1,0.040869599183728664,0.025706827612300087,0.03182983061230009,0.03347815018372866,0.06289186957142857,0.06729063142857142,0.07756843285714286,0.08097157042857142,8.0,5.0,0
20,5,11,45.83,High,8,100.0,71.875,552.7621249998447,378.0111777776053,0.18090964535608894,9,90.0,100.0,470.9427555559766,,0.19110602921102274,4,50.0,96.875,882.4512749988571,1376.9506999997247,0.05666035215379428,300.00699999999995,121.19999999999982,50.0,75.0,2,2,5,0.03855275004087151,0.08570448928571428,7.0,80.0,635.3853851848928,,0.14289200890696865,35.299999999999955,21.322999999999865,22.478000000000065,43.90300000000002,30.750999999999976,1.6259633833046092,3,2,8,1,0.031030484040871515,0.019294558798014373,0.03855275004087151,0.035762846469442944,0.058682819,0.052624816271428565,0.08570448928571428,0.06467413757142856,8.0,5.0,0
20,6,11,45.83,High,8,100.0,71.875,552.7621249998447,378.0111777776053,0.18090964535608894,9,90.0,100.0,470.9427555559766,,0.19110602921102274,4,50.0,96.875,882.4512749988571,1376.9506999997247,0.05666035215379428,300.00699999999995,95.93500000000017,50.0,75.0,2,2,5,0.03936611604087152,0.08415192585714286,7.0,80.0,635.3853851848928,,0.14289200890696865,17.26800000000003,29.154999999999973,19.534999999999854,31.608000000000175,24.391500000000008,2.0498944304368316,3,2,8,1,0.024542315183728656,0.03147135930372866,0.02822456846944294,0.03936611604087152,0.06113937957142858,0.06776944497714285,0.05107565457142857,0.07596141628571429,8.0,5.0,0
20,7,11,45.83,High,8,100.0,71.875,552.7621249998447,378.0111777776053,0.18090964535608894,9,90.0,100.0,470.9427555559766,,0.19110602921102274,4,50.0,96.875,882.4512749988571,1376.9506999997247,0.05666035215379428,300.00699999999995,121.57999999999993,100.0,75.0,4,0,4,0.05685384332658581,0.11009580885714286,7.0,80.0,635.3853851848928,,0.14289200890696865,25.82900000000018,33.35699999999997,42.41300000000001,23.609999999999673,31.302249999999958,3.1946585309362785,3,2,8,1,0.05685384332658581,0.01563247875515723,0.03225787104087151,0.03859340775515723,0.11009580885714286,0.04773536657142857,0.06700282814285713,0.07750792742857143,8.0,5.0,0
20,8,11,45.83,High,8,100.0,71.875,552.7621249998447,378.0111777776053,0.18090964535608894,9,90.0,100.0,470.9427555559766,,0.19110602921102274,4,50.0,96.875,882.4512749988571,1376.9506999997247,0.05666035215379428,300.00699999999995,131.64000000000033,75.0,75.0,3,1,5,0.05815363161230009,0.12524554614285716,7.0,80.0,635.3853851848928,,0.14289200890696865,15.882000000000062,31.363000000000284,42.259000000000015,42.13599999999997,32.91000000000008,2.278942570647214,3,2,8,1,0.04978569075515723,0.05322980589801437,0.03657178518372866,0.05815363161230009,0.09015953714285715,0.12032172042857142,0.067780124,0.11348668285714286,8.0,5.0,0
21,1,14,58.33,High,8,100.0,100.0,467.17842500009965,,0.21405098062903627,9,90.0,100.0,378.0193999999331,,0.23808301901970091,8,100.0,93.75,488.4584750000158,443.86820000022453,0.2047256934174328,300.00299999999993,123.9090000000001,100.0,78.125,4,0,1,0.07803907332519296,0.16128766249999998,8.333333333333334,96.66666666666667,444.5521000000162,,0.21895323102205666,35.807000000000016,19.55600000000004,22.58199999999988,26.894999999999982,26.20999999999998,3.8153376573826816,1,1,6,1,0.044449253200192954,0.049234640450192955,0.07803907332519296,0.04893281132519294,0.10861345300000001,0.08829356487500001,0.16128766249999998,0.07907714499999999,6.0,3.5,0
21,2,14,58.33,High,8,100.0,100.0,467.17842500009965,,0.21405098062903627,9,90.0,100.0,378.0193999999331,,0.23808301901970091,8,100.0,93.75,488.4584750000158,443.86820000022453,0.2047256934174328,300.00299999999993,89.47000000000003,100.0,78.125,4,0,2,0.06858361207519297,0.18574012875,8.333333333333334,96.66666666666667,444.5521000000162,,0.21895323102205666,26.937000000000126,26.644999999999982,17.867999999999938,21.16599999999994,23.153999999999996,4.318908180012094,1,1,6,1,0.04352127810019294,0.04475227220019294,0.06858361207519297,0.038181747325192944,0.073667220775,0.093684123875,0.18574012875,0.10100895525,6.0,3.5,0
21,3,14,58.33,High,8,100.0,100.0,467.17842500009965,,0.21405098062903627,9,90.0,100.0,378.0193999999331,,0.23808301901970091,8,100.0,93.75,488.4584750000158,443.86820000022453,0.2047256934174328,300.00299999999993,69.54300000000012,100.0,78.125,4,0,2,0.08930581082519295,0.15963802825,8.333333333333334,96.66666666666667,444.5521000000162,,0.21895323102205666,18.298999999999978,24.427000000000135,14.68899999999985,15.142000000000053,18.139250000000004,5.512907093733201,1,1,6,1,0.08930581082519295,0.05390521582519295,0.03930927120019294,0.03937086482519295,0.15963802825,0.09503983099999999,0.065783334375,0.07523894875,6.0,3.5,0
21,4,14,58.33,High,8,100.0,100.0,467.17842500009965,,0.21405098062903627,9,90.0,100.0,378.0193999999331,,0.23808301901970091,8,100.0,93.75,488.4584750000158,443.86820000022453,0.2047256934174328,300.00299999999993,73.78600000000006,75.0,78.125,3,1,2,0.05461360795019295,0.11268052712499999,8.333333333333334,96.66666666666667,444.5521000000162,,0.21895323102205666,17.798000000000002,22.692000000000007,17.623000000000047,18.0150000000001,19.03200000000004,3.940731399747785,1,1,6,1,0.04989143707519295,0.045568123825192944,0.05461360795019295,0.05063347682519295,0.10795835625,0.09135891800000001,0.08546530762500001,0.10459932125,6.0,3.5,0
21,5,14,58.33,High,8,100.0,100.0,467.17842500009965,,0.21405098062903627,9,90.0,100.0,378.0193999999331,,0.23808301901970091,8,100.0,93.75,488.4584750000158,443.86820000022453,0.2047256934174328,300.00299999999993,98.08699999999999,25.0,78.125,1,3,5,0.08624653082519294,0.23131738862499995,8.333333333333334,96.66666666666667,444.5521000000162,,0.21895323102205666,29.832999999999856,7.904999999999973,32.67399999999998,29.94100000000003,25.08824999999996,0.9964824170677524,1,1,6,1,0.04823416680019295,0.028954202325192944,0.04699056457519295,0.08624653082519294,0.08435395335000001,0.0402823081875,0.10947322875000001,0.23131738862499995,6.0,3.5,1
21,6,14,58.33,High,8,100.0,100.0,467.17842500009965,,0.21405098062903627,9,90.0,100.0,378.0193999999331,,0.23808301901970091,8,100.0,93.75,488.4584750000158,443.86820000022453,0.2047256934174328,300.00299999999993,73.02300000000014,75.0,78.125,3,1,5,0.08873935470019295,0.202199786375,8.333333333333334,96.66666666666667,444.5521000000162,,0.21895323102205666,17.30899999999997,18.77500000000009,18.162000000000035,20.646999999999935,18.723250000000007,4.005714819809594,1,1,6,1,0.08873935470019295,0.04653546295019295,0.047803025075192955,0.039675905825192946,0.202199786375,0.0782150325,0.08830044312500002,0.10717689375,6.0,3.5,1
21,7,14,58.33,High,8,100.0,100.0,467.17842500009965,,0.21405098062903627,9,90.0,100.0,378.0193999999331,,0.23808301901970091,8,100.0,93.75,488.4584750000158,443.86820000022453,0.2047256934174328,300.00299999999993,74.52800000000002,100.0,78.125,4,0,4,0.07321426995019294,0.13896673437499998,8.333333333333334,96.66666666666667,444.5521000000162,,0.21895323102205666,13.200000000000045,19.91899999999987,20.811999999999898,24.162000000000262,19.52325000000002,5.122098011345442,1,1,6,1,0.07316874832519295,0.055192479575192945,0.045936950075192946,0.04943423582519294,0.13892121275,0.11752912375,0.083481687375,0.08671241275,6.0,3.5,1
21,8,14,58.33,High,8,100.0,100.0,467.17842500009965,,0.21405098062903627,9,90.0,100.0,378.0193999999331,,0.23808301901970091,8,100.0,93.75,488.4584750000158,443.86820000022453,0.2047256934174328,300.00299999999993,90.41399999999976,50.0,78.125,2,2,7,0.10590113832519295,0.20674746500000002,8.333333333333334,96.66666666666667,444.5521000000162,,0.21895323102205666,20.746000000000095,24.799999999999727,20.957000000000335,23.910999999999603,22.60349999999994,2.21204680691044,1,1,6,1,0.10590113832519295,0.034301254575192945,0.04963040582519295,0.04673750945019294,0.20674746500000002,0.073361953375,0.11576837875000001,0.07503007725,6.0,3.5,1
22,1,14,58.33,High,8,100.0,100.0,415.0930750001862,,0.24090982486266516,10,100.0,100.0,384.19540999966557,,0.2602842131822633,8,100.0,100.0,416.17636249975476,,0.24028274791809912,300.00800000000004,71.298,50.0,87.5,2,2,4,0.10228048064955493,0.19717853571428573,8.666666666666666,100.0,405.1549491665355,,0.24715892865434252,21.608999999999924,11.97199999999998,20.66300000000001,16.260999999999967,17.62624999999997,2.8366782497695247,1,2,5,1,0.07785057922098348,0.10228048064955493,0.056900634935269194,0.04327235636384062,0.1727486342857143,0.1951284371428572,0.12298685428571429,0.04016424971428572,5.0,3.5,1
22,2,14,58.33,High,8,100.0,100.0,415.0930750001862,,0.24090982486266516,10,100.0,100.0,384.19540999966557,,0.2602842131822633,8,100.0,100.0,416.17636249975476,,0.24028274791809912,300.00800000000004,63.480999999999995,100.0,87.5,4,0,4,0.05423895922098348,0.10561407571428572,8.666666666666666,100.0,405.1549491665355,,0.24715892865434252,24.037000000000035,12.150000000000091,11.092999999999847,19.422000000000025,16.6755,5.9968216845072115,1,2,5,1,0.05423895922098348,0.02195662379241204,0.03166513193526919,0.03279996636384062,0.08827975142857142,0.05868077314285714,0.074666177,0.08417508285714287,5.0,3.5,1
22,3,14,58.33,High,8,100.0,100.0,415.0930750001862,,0.24090982486266516,10,100.0,100.0,384.19540999966557,,0.2602842131822633,8,100.0,100.0,416.17636249975476,,0.24028274791809912,300.00800000000004,74.90000000000009,100.0,87.5,4,0,4,0.09624112064955491,0.17227351285714287,8.666666666666666,100.0,405.1549491665355,,0.24715892865434252,17.079999999999927,25.624000000000024,19.03300000000013,16.74000000000001,19.619250000000022,5.097034800005091,1,2,5,1,0.04777117064955489,0.09624112064955491,0.09378506064955491,0.030517590649554904,0.10022223142857142,0.17227351285714287,0.15956729714285717,0.05095815971428571,5.0,3.5,1
22,4,14,58.33,High,8,100.0,100.0,415.0930750001862,,0.24090982486266516,10,100.0,100.0,384.19540999966557,,0.2602842131822633,8,100.0,100.0,416.17636249975476,,0.24028274791809912,300.00800000000004,56.41599999999994,100.0,87.5,4,0,3,0.05502517950669776,0.094741986,8.666666666666666,100.0,405.1549491665355,,0.24715892865434252,17.560999999999922,14.224999999999909,17.13500000000022,10.526999999999816,14.861999999999966,6.728569506123014,1,2,5,1,0.048487189220983475,0.019899336509554905,0.028309507506697758,0.039403221649554905,0.08820399571428571,0.04176015871714285,0.051826742571428566,0.05196788771428572,5.0,3.5,0
22,5,14,58.33,High,8,100.0,100.0,415.0930750001862,,0.24090982486266516,10,100.0,100.0,384.19540999966557,,0.2602842131822633,8,100.0,100.0,416.17636249975476,,0.24028274791809912,300.00800000000004,74.99099999999999,100.0,87.5,4,0,5,0.08354449779241203,0.13867896142857142,8.666666666666666,100.0,405.1549491665355,,0.24715892865434252,15.048000000000002,26.479000000000042,18.317000000000007,19.386999999999944,19.80775,5.048528984867034,1,2,5,1,0.06255073493526918,0.08354449779241203,0.05931753779241204,0.04852052207812634,0.1146306457142857,0.13023447,0.11445200142857143,0.08668190671428572,5.0,3.5,1
22,6,14,58.33,High,8,100.0,100.0,415.0930750001862,,0.24090982486266516,10,100.0,100.0,384.19540999966557,,0.2602842131822633,8,100.0,100.0,416.17636249975476,,0.24028274791809912,300.00800000000004,65.97300000000018,75.0,87.5,3,1,5,0.04204255064955491,0.09463516714285716,8.666666666666666,100.0,405.1549491665355,,0.24715892865434252,9.151000000000067,22.21199999999999,22.583000000000084,19.44699999999989,18.348250000000007,4.08758328450942,1,2,5,1,0.04204255064955491,0.031316792078126335,0.0313569006495549,0.013079974649554902,0.043197109571428575,0.057996244714285716,0.08394951714285714,0.03344282685714286,5.0,3.5,1
22,7,14,58.33,High,8,100.0,100.0,415.0930750001862,,0.24090982486266516,10,100.0,100.0,384.19540999966557,,0.2602842131822633,8,100.0,100.0,416.17636249975476,,0.24028274791809912,300.00800000000004,73.77700000000004,75.0,87.5,3,1,6,0.09603370493526919,0.18967429142857142,8.666666666666666,100.0,405.1549491665355,,0.24715892865434252,11.745000000000118,10.174999999999955,34.60400000000004,19.758000000000038,19.070500000000038,3.9327757531265486,1,2,5,1,0.09603370493526919,0.04536673636384062,0.042939286363840624,0.0502542396495549,0.18967429142857142,0.08339177714285714,0.09126141571428571,0.112846059,5.0,3.5,1
22,8,14,58.33,High,8,100.0,100.0,415.0930750001862,,0.24090982486266516,10,100.0,100.0,384.19540999966557,,0.2602842131822633,8,100.0,100.0,416.17636249975476,,0.24028274791809912,300.00800000000004,87.13099999999986,100.0,87.5,4,0,5,0.07536285779241204,0.16139833714285712,8.666666666666666,100.0,405.1549491665355,,0.24715892865434252,17.56399999999985,18.064000000000078,20.67100000000005,30.83199999999988,21.782749999999965,4.590788582708803,1,2,5,1,0.06270739207812634,0.05712205779241205,0.07387384522098348,0.07536285779241204,0.14874287142857143,0.11501487857142857,0.14504544685714285,0.11466732085714285,5.0,3.5,1
23,1,22,91.67,High,8,100.0,100.0,406.88449999970544,,0.24576999123847773,9,90.0,100.0,518.1873666660977,,0.17368235080496075,8,100.0,96.875,520.1505625013851,914.4311000018206,0.19225202702675864,300.00339999999994,112.83200000000011,75.0,84.375,3,1,3,0.08538004079690723,0.31486187927500003,8.333333333333334,96.66666666666667,481.7408097223961,,0.20390145635673237,48.192999999999984,16.947999999999865,16.980999999999995,17.60200000000009,24.930999999999983,3.0083029160482955,4,2,6,1,0.07267401792190721,0.08538004079690723,0.07218952479690723,0.06233439404690722,0.27465709625,0.13142949662500003,0.30167136327500005,0.08197203875,6.0,4.0,0
23,2,22,91.67,High,8,100.0,100.0,406.88449999970544,,0.24576999123847773,9,90.0,100.0,518.1873666660977,,0.17368235080496075,8,100.0,96.875,520.1505625013851,914.4311000018206,0.19225202702675864,300.00339999999994,54.565000000000055,100.0,84.375,4,0,3,0.056373346671907215,0.09838361162499999,8.333333333333334,96.66666666666667,481.7408097223961,,0.20390145635673237,16.94699999999989,15.912000000000035,7.578999999999951,20.166000000000167,15.15100000000001,6.600224407629855,4,2,6,1,0.037967872814407215,0.056373346671907215,0.032384787671907216,0.04039896579690721,0.0689754212675,0.091389628375,0.07439505262499999,0.0762909005,6.0,4.0,0
23,3,22,91.67,High,8,100.0,100.0,406.88449999970544,,0.24576999123847773,9,90.0,100.0,518.1873666660977,,0.17368235080496075,8,100.0,96.875,520.1505625013851,914.4311000018206,0.19225202702675864,300.00339999999994,67.07199999999989,75.0,84.375,3,1,4,0.06934243042190721,0.1239398375,8.333333333333334,96.66666666666667,481.7408097223961,,0.20390145635673237,25.500999999999976,15.724999999999909,15.195000000000164,21.784999999999854,19.551499999999976,3.8360228115489905,4,2,6,1,0.06934243042190721,0.01240976354690722,0.04452380792190721,0.05169755167190722,0.1239398375,0.056086917124999996,0.09278705124999999,0.09738347424999999,6.0,4.0,0
23,4,22,91.67,High,8,100.0,100.0,406.88449999970544,,0.24576999123847773,9,90.0,100.0,518.1873666660977,,0.17368235080496075,8,100.0,96.875,520.1505625013851,914.4311000018206,0.19225202702675864,300.00339999999994,62.587999999999965,100.0,84.375,4,0,4,0.06903730167190722,0.14005535749999998,8.333333333333334,96.66666666666667,481.7408097223961,,0.20390145635673237,18.174999999999955,13.855000000000018,18.291000000000167,17.395999999999958,16.929250000000025,5.906936219856158,4,2,6,1,0.028732751046907215,0.03439441692190722,0.06639047667190723,0.041337269171907214,0.06165029925,0.08396044650000001,0.1374085325,0.09007410999999999,6.0,4.0,0
23,5,22,91.67,High,8,100.0,100.0,406.88449999970544,,0.24576999123847773,9,90.0,100.0,518.1873666660977,,0.17368235080496075,8,100.0,96.875,520.1505625013851,914.4311000018206,0.19225202702675864,300.00339999999994,81.74800000000005,50.0,84.375,2,2,6,0.05614519042190722,0.12468092625000002,8.333333333333334,96.66666666666667,481.7408097223961,,0.20390145635673237,18.66599999999994,22.912000000000035,15.720000000000027,38.909999999999854,24.051999999999964,2.0788292033926523,4,2,6,1,0.03219807292190722,0.05614519042190722,0.04566973592190722,0.05080279542190722,0.072601026875,0.12468092625000002,0.096039578,0.10631628125,6.0,4.0,1
23,6,22,91.67,High,8,100.0,100.0,406.88449999970544,,0.24576999123847773,9,90.0,100.0,518.1873666660977,,0.17368235080496075,8,100.0,96.875,520.1505625013851,914.4311000018206,0.19225202702675864,300.00339999999994,61.03899999999999,100.0,84.375,4,0,4,0.05764219417190722,0.14373749375,8.333333333333334,96.66666666666667,481.7408097223961,,0.20390145635673237,14.960000000000036,12.22199999999998,15.298999999999978,24.766000000000076,16.811750000000018,5.948220738471599,4,2,6,1,0.049780592421907216,0.049043394171907215,0.05764219417190722,0.048611971671907214,0.135875892,0.081200728875,0.09362035475,0.09336910375,6.0,4.0,0
23,7,22,91.67,High,8,100.0,100.0,406.88449999970544,,0.24576999123847773,9,90.0,100.0,518.1873666660977,,0.17368235080496075,8,100.0,96.875,520.1505625013851,914.4311000018206,0.19225202702675864,300.00339999999994,115.62799999999993,100.0,84.375,4,0,6,0.08660124292190723,0.1477123475,8.333333333333334,96.66666666666667,481.7408097223961,,0.20390145635673237,14.396999999999935,29.81600000000003,46.18100000000004,40.41300000000001,32.701750000000004,3.057940324294571,4,2,6,1,0.07178428292190722,0.08660124292190723,0.04055632242190722,0.06121873292190722,0.118739759625,0.1477123475,0.07947439175000001,0.105212039625,6.0,4.0,1
23,8,22,91.67,High,8,100.0,100.0,406.88449999970544,,0.24576999123847773,9,90.0,100.0,518.1873666660977,,0.17368235080496075,8,100.0,96.875,520.1505625013851,914.4311000018206,0.19225202702675864,300.00339999999994,90.53999999999996,75.0,84.375,3,1,7,0.0833055777969072,0.14306036237499997,8.333333333333334,96.66666666666667,481.7408097223961,,0.20390145635673237,21.394999999999982,10.560999999999922,20.503000000000156,38.080999999999904,22.63499999999999,3.3134526176275694,4,2,6,1,0.060162916671907214,0.053899259171907216,0.07226530042190722,0.04393503292190722,0.112444585,0.11365404374999999,0.11980639475000002,0.09155978625000001,6.0,4.0,1
24,1,12,50.0,High,8,100.0,96.875,440.2261874993201,441.9396000012057,0.22715595491500482,9,90.0,100.0,516.1156777782404,,0.17437951194861848,7,87.5,96.875,669.2694142839173,1414.0589000016917,0.13073957681693904,300.01060000000007,86.75599999999986,75.0,90.625,3,1,4,0.14585910777229774,0.30368693750000003,8.0,92.5,541.8704265204925,,0.17742501456018744,38.090999999999894,12.911000000000058,14.187999999999874,27.710000000000036,23.224999999999966,3.229278794402588,3,1,6,3,0.10605663152229773,0.10414466402229774,0.06558770152229772,0.09506410652229771,0.26388446125000004,0.23621989875000002,0.16335200125,0.10945187437499998,3.0,3.5,1
24,2,12,50.0,High,8,100.0,96.875,440.2261874993201,441.9396000012057,0.22715595491500482,9,90.0,100.0,516.1156777782404,,0.17437951194861848,7,87.5,96.875,669.2694142839173,1414.0589000016917,0.13073957681693904,300.01060000000007,56.184999999999945,100.0,90.625,4,0,3,0.08421500402229774,0.19023671875000003,8.0,92.5,541.8704265204925,,0.17742501456018744,15.942000000000007,11.67100000000005,15.698000000000093,17.116999999999962,15.107000000000028,6.619447938041956,3,1,6,3,0.08421500402229774,0.06010232652229773,0.04211718414729773,0.04313683902229773,0.19023671875000003,0.1270292925,0.08945808262499999,0.11038959125,3.0,3.5,0
24,3,12,50.0,High,8,100.0,96.875,440.2261874993201,441.9396000012057,0.22715595491500482,9,90.0,100.0,516.1156777782404,,0.17437951194861848,7,87.5,96.875,669.2694142839173,1414.0589000016917,0.13073957681693904,300.01060000000007,71.42499999999995,100.0,90.625,4,0,4,0.15388639902229773,0.25127845625,8.0,92.5,541.8704265204925,,0.17742501456018744,24.781999999999925,25.595000000000027,11.316000000000031,14.782999999999902,19.11899999999997,5.23039907944977,3,1,6,3,0.11889889027229773,0.06922448777229773,0.15388639902229773,0.023209723897297727,0.2162909475,0.1429051025,0.2413886275,0.076134321125,3.0,3.5,1
24,4,12,50.0,High,8,100.0,96.875,440.2261874993201,441.9396000012057,0.22715595491500482,9,90.0,100.0,516.1156777782404,,0.17437951194861848,7,87.5,96.875,669.2694142839173,1414.0589000016917,0.13073957681693904,300.01060000000007,76.05799999999999,75.0,90.625,3,1,5,0.16728962277229772,0.25425009375,8.0,92.5,541.8704265204925,,0.17742501456018744,19.24700000000007,19.057999999999993,23.057000000000016,18.644999999999982,20.001750000000015,3.749671903708423,3,1,6,3,0.04872047402229772,0.16728962277229772,0.09687172164729774,0.02817506264729773,0.09715616125,0.25425009375,0.17780012012500002,0.090919801125,3.0,3.5,1
24,5,12,50.0,High,8,100.0,96.875,440.2261874993201,441.9396000012057,0.22715595491500482,9,90.0,100.0,516.1156777782404,,0.17437951194861848,7,87.5,96.875,669.2694142839173,1414.0589000016917,0.13073957681693904,300.01060000000007,84.27800000000002,100.0,90.625,4,0,5,0.11046509527229773,0.21323174875,8.0,92.5,541.8704265204925,,0.17742501456018744,18.451999999999998,23.117999999999938,21.35699999999997,24.550000000000182,21.869250000000022,4.572630520022401,3,1,6,3,0.09091263777229772,0.11046509527229773,0.09951847027229772,0.09576090027229772,0.19367929125,0.182148894625,0.19529920125,0.17104157375,3.0,3.5,1
24,6,12,50.0,High,8,100.0,96.875,440.2261874993201,441.9396000012057,0.22715595491500482,9,90.0,100.0,516.1156777782404,,0.17437951194861848,7,87.5,96.875,669.2694142839173,1414.0589000016917,0.13073957681693904,300.01060000000007,68.54599999999982,75.0,90.625,3,1,5,0.18392852652229771,0.28992916874999997,8.0,92.5,541.8704265204925,,0.17742501456018744,17.357999999999947,21.04099999999994,12.6099999999999,21.031000000000176,18.00999999999999,4.164353137146032,3,1,6,3,0.18392852652229771,0.07906166152229772,0.09349884452229773,0.08214957152229774,0.28992916874999997,0.16325615375000002,0.19365391799999998,0.18467240875000002,3.0,3.5,1
24,7,12,50.0,High,8,100.0,96.875,440.2261874993201,441.9396000012057,0.22715595491500482,9,90.0,100.0,516.1156777782404,,0.17437951194861848,7,87.5,96.875,669.2694142839173,1414.0589000016917,0.13073957681693904,300.01060000000007,102.39699999999993,100.0,90.625,4,0,5,0.23974255527229774,0.41019228750000003,8.0,92.5,541.8704265204925,,0.17742501456018744,29.625,21.521999999999935,32.358999999999924,23.888000000000147,26.8485,3.7246028642196025,3,1,6,3,0.11244165152229772,0.09782091652229773,0.23974255527229774,0.047859909022297725,0.1799769335,0.26827064875,0.31105401,0.121225055,3.0,3.5,1
24,8,12,50.0,High,8,100.0,96.875,440.2261874993201,441.9396000012057,0.22715595491500482,9,90.0,100.0,516.1156777782404,,0.17437951194861848,7,87.5,96.875,669.2694142839173,1414.0589000016917,0.13073957681693904,300.01060000000007,96.82600000000002,100.0,90.625,4,0,5,0.06956303014729773,0.177215439875,8.0,92.5,541.8704265204925,,0.17742501456018744,18.31899999999996,22.406999999999925,28.093000000000075,28.007000000000062,24.206500000000005,4.131121806126452,3,1,6,3,0.06437753277229773,0.050598451522297735,0.06956303014729773,0.06498274402229773,0.11080988374999999,0.074049611,0.138061407375,0.17263515375,3.0,3.5,1
25,1,6,25.0,Low,8,100.0,100.0,447.39968750036496,,0.22351379045144823,10,100.0,100.0,539.3050499995297,,0.18542381533435892,8,100.0,93.75,691.9474874994194,813.4975000029955,0.14451963740974477,300.0051000000001,70.14399999999989,75.0,84.375,3,1,6,0.3472304814154003,0.6580779516666666,8.666666666666666,100.0,559.5507416664381,,0.18448574773185067,14.17599999999993,9.767000000000053,13.956000000000131,14.092999999999847,12.99799999999999,5.770118479766122,1,1,6,2,0.276080568082067,0.19821577141540034,0.184547586082067,0.275340298082067,0.5420152916666667,0.31336046,0.40833788299999996,0.5844916816666667,5.0,3.5,1
25,2,6,25.0,Low,8,100.0,100.0,447.39968750036496,,0.22351379045144823,10,100.0,100.0,539.3050499995297,,0.18542381533435892,8,100.0,93.75,691.9474874994194,813.4975000029955,0.14451963740974477,300.0051000000001,90.673,100.0,84.375,4,0,6,0.4729463414154003,0.83795009,8.666666666666666,100.0,559.5507416664381,,0.18448574773185067,28.50999999999999,21.02300000000014,13.971000000000004,31.39099999999985,23.723749999999995,4.2151852046999325,1,1,6,2,0.18252680808206698,0.39090051474873366,0.3509496014154003,0.4729463414154003,0.43820929500000005,0.5484837916666667,0.6362818483333332,0.83795009,5.0,3.5,1
25,3,6,25.0,Low,8,100.0,100.0,447.39968750036496,,0.22351379045144823,10,100.0,100.0,539.3050499995297,,0.18542381533435892,8,100.0,93.75,691.9474874994194,813.4975000029955,0.14451963740974477,300.0051000000001,110.54500000000007,100.0,84.375,4,0,7,0.5061048697487336,0.8518898383333333,8.666666666666666,100.0,559.5507416664381,,0.18448574773185067,24.285000000000082,23.866999999999962,40.57899999999995,24.736000000000104,28.366750000000025,3.525254038619155,1,1,6,2,0.36754455141540027,0.11990510308206699,0.5061048697487336,0.2462033364154003,0.7133295199999999,0.33020682500000004,0.7983405931666666,0.43635939999999995,5.0,3.5,1
25,4,6,25.0,Low,8,100.0,100.0,447.39968750036496,,0.22351379045144823,10,100.0,100.0,539.3050499995297,,0.18542381533435892,8,100.0,93.75,691.9474874994194,813.4975000029955,0.14451963740974477,300.0051000000001,67.96299999999997,100.0,84.375,4,0,5,0.5973427747487337,1.1251715593233333,8.666666666666666,100.0,559.5507416664381,,0.18448574773185067,15.667999999999893,10.230999999999995,33.96199999999999,13.578000000000202,18.35975000000002,5.446697258949599,1,1,6,2,0.156150593082067,0.5973427747487337,0.5624908880820669,0.41164794308206704,0.34946535833333336,1.1251715593233333,0.8400293833333333,0.6800262516666667,5.0,3.5,1
25,5,6,25.0,Low,8,100.0,100.0,447.39968750036496,,0.22351379045144823,10,100.0,100.0,539.3050499995297,,0.18542381533435892,8,100.0,93.75,691.9474874994194,813.4975000029955,0.14451963740974477,300.0051000000001,61.66099999999983,75.0,84.375,3,1,7,0.47177151558206704,0.8411610713333333,8.666666666666666,100.0,559.5507416664381,,0.18448574773185067,7.5190000000000055,13.005999999999858,14.303000000000111,30.89799999999991,16.43149999999997,4.5644037367252,1,1,6,2,-0.0017964085845996894,0.4454426494154003,0.47177151558206704,0.20214900974873362,0.3371742433333333,0.6681116913333334,0.8411610713333333,0.3982961733333332,5.0,3.5,1
25,6,6,25.0,Low,8,100.0,100.0,447.39968750036496,,0.22351379045144823,10,100.0,100.0,539.3050499995297,,0.18542381533435892,8,100.0,93.75,691.9474874994194,813.4975000029955,0.14451963740974477,300.0051000000001,84.54999999999995,100.0,84.375,4,0,5,0.373061803082067,0.8190879683333334,8.666666666666666,100.0,559.5507416664381,,0.18448574773185067,12.259999999999991,23.057999999999993,15.65800000000013,39.9699999999998,22.736499999999978,4.39821432498406,1,1,6,2,0.21789701724873364,0.3188826014154003,0.20076864141540032,0.373061803082067,0.6639231825,0.48646542666666664,0.5005869566666666,0.5990635833333333,5.0,3.5,1
25,7,6,25.0,Low,8,100.0,100.0,447.39968750036496,,0.22351379045144823,10,100.0,100.0,539.3050499995297,,0.18542381533435892,8,100.0,93.75,691.9474874994194,813.4975000029955,0.14451963740974477,300.0051000000001,61.8280000000002,75.0,84.375,3,1,7,0.40715569641540034,0.6399905966666666,8.666666666666666,100.0,559.5507416664381,,0.18448574773185067,9.512000000000171,15.567999999999984,20.182000000000016,19.730000000000018,16.248000000000047,4.615952732644004,1,1,6,2,0.10550982474873366,0.3039403597487336,0.224217668082067,0.40715569641540034,0.30715010333333337,0.501342565,0.442876135,0.6350572449999999,5.0,3.5,1
25,8,6,25.0,Low,8,100.0,100.0,447.39968750036496,,0.22351379045144823,10,100.0,100.0,539.3050499995297,,0.18542381533435892,8,100.0,93.75,691.9474874994194,813.4975000029955,0.14451963740974477,300.0051000000001,57.35299999999984,50.0,84.375,2,2,8,0.46365841641540034,0.857961726,8.666666666666666,100.0,559.5507416664381,,0.18448574773185067,12.799999999999955,10.722999999999956,14.461000000000013,19.368999999999915,14.33824999999996,3.4871759105888196,1,1,6,2,0.2598367667487337,0.12844459608206701,0.395778263082067,0.46365841641540034,0.48758155700000005,0.16745089983333336,0.7264711216666666,0.857961726,5.0,3.5,1
26,1,3,12.5,Low,5,62.5,96.875,850.3046999976505,681.4744000002975,0.07350306307865016,1,10.0,96.66666666666667,522.8372999990825,707.8523999953177,0.01912640892303887,1,12.5,93.75,601.3781000074232,529.6898000015062,0.020785592291847184,300.00520000000006,92.70800000000008,50.0,59.375,2,2,5,0.036108026166666675,0.05682039983333334,2.3333333333333335,28.333333333333332,658.173366668052,639.6721999990405,0.03780502143117873,15.444999999999936,9.338999999999942,26.188000000000102,15.071999999999889,16.510999999999967,3.0282841741869118,6,2,8,9,0.029685124166666663,0.026233818083333332,0.036108026166666675,0.032739043333333336,0.034807252999999996,0.04100777875,0.047597077666666675,0.035442699,4.0,5.0,0
26,2,3,12.5,Low,5,62.5,96.875,850.3046999976505,681.4744000002975,0.07350306307865016,1,10.0,96.66666666666667,522.8372999990825,707.8523999953177,0.01912640892303887,1,12.5,93.75,601.3781000074232,529.6898000015062,0.020785592291847184,300.00520000000006,36.30400000000009,75.0,59.375,3,1,4,0.05348627183333334,0.09235952000000001,2.3333333333333335,28.333333333333332,658.173366668052,639.6721999990405,0.03780502143117873,12.517000000000053,7.150000000000091,9.916999999999916,11.24499999999989,10.207249999999988,7.34771853339539,6,2,8,9,0.05348627183333334,0.025865076833333334,0.036230836333333336,0.018640008833333332,0.06784272616666667,0.0200912355,0.07279363616666668,0.01321045258333333,4.0,5.0,0
26,3,3,12.5,Low,5,62.5,96.875,850.3046999976505,681.4744000002975,0.07350306307865016,1,10.0,96.66666666666667,522.8372999990825,707.8523999953177,0.01912640892303887,1,12.5,93.75,601.3781000074232,529.6898000015062,0.020785592291847184,300.00520000000006,20.730000000000018,100.0,59.375,4,0,2,0.030466210499999997,0.06396905335,2.3333333333333335,28.333333333333332,658.173366668052,639.6721999990405,0.03780502143117873,7.371000000000095,4.400000000000091,4.44399999999996,11.039999999999964,6.813750000000027,14.676206200697061,6,2,8,9,0.030466210499999997,0.020137932916666667,0.0296992755,0.015405268,0.036937038666666665,0.012887529583333335,0.06320211835,0.004306576781666667,4.0,5.0,0
26,4,3,12.5,Low,5,62.5,96.875,850.3046999976505,681.4744000002975,0.07350306307865016,1,10.0,96.66666666666667,522.8372999990825,707.8523999953177,0.01912640892303887,1,12.5,93.75,601.3781000074232,529.6898000015062,0.020785592291847184,300.00520000000006,29.748000000000047,50.0,59.375,2,2,6,0.028103571333333337,0.034462907150000006,2.3333333333333335,28.333333333333332,658.173366668052,639.6721999990405,0.03780502143117873,11.088999999999942,3.3220000000001164,6.789999999999964,13.038000000000011,8.559750000000008,5.841292093811146,6,2,8,9,0.025418384,0.0164010785,0.028103571333333337,0.011910253666666667,0.03177771981666667,0.007503001049999999,0.024504842483333338,0.013472328033333335,4.0,5.0,1
26,5,3,12.5,Low,5,62.5,96.875,850.3046999976505,681.4744000002975,0.07350306307865016,1,10.0,96.66666666666667,522.8372999990825,707.8523999953177,0.01912640892303887,1,12.5,93.75,601.3781000074232,529.6898000015062,0.020785592291847184,300.00520000000006,19.57899999999995,50.0,59.375,2,2,7,0.02853472333333333,0.028348165166666665,2.3333333333333335,28.333333333333332,658.173366668052,639.6721999990405,0.03780502143117873,6.714999999999918,4.0090000000000146,2.910000000000082,14.692000000000007,7.0815000000000055,7.060650992021459,6,2,8,9,0.021614305666666667,0.0074811042783333335,0.006317207500000001,0.02853472333333333,0.016207409716666666,0.004708137778333334,0.0014217968333333332,0.01882679095,4.0,5.0,1
26,6,3,12.5,Low,5,62.5,96.875,850.3046999976505,681.4744000002975,0.07350306307865016,1,10.0,96.66666666666667,522.8372999990825,707.8523999953177,0.01912640892303887,1,12.5,93.75,601.3781000074232,529.6898000015062,0.020785592291847184,300.00520000000006,35.20699999999988,25.0,59.375,1,3,6,0.04343627383333334,0.07097248483333334,2.3333333333333335,28.333333333333332,658.173366668052,639.6721999990405,0.03780502143117873,21.10699999999997,5.097999999999956,4.248000000000047,8.98700000000008,9.860000000000014,2.5354969574036477,6,2,8,9,0.022769789833333335,0.007446929416666667,0.04343627383333334,0.016744969166666665,0.050306000833333336,0.02204051141666667,0.01935703666666667,0.012137051166666666,4.0,5.0,1
26,7,3,12.5,Low,5,62.5,96.875,850.3046999976505,681.4744000002975,0.07350306307865016,1,10.0,96.66666666666667,522.8372999990825,707.8523999953177,0.01912640892303887,1,12.5,93.75,601.3781000074232,529.6898000015062,0.020785592291847184,300.00520000000006,24.67599999999993,75.0,59.375,3,1,4,0.0265413585,0.07071111806666666,2.3333333333333335,28.333333333333332,658.173366668052,639.6721999990405,0.03780502143117873,9.685999999999922,2.9449999999999363,7.858999999999924,7.319000000000187,6.952249999999992,10.787874429141658,6,2,8,9,0.0265413585,0.0018099111666666672,0.025901572833333334,-0.005968821166666667,0.022833154183333332,0.04593235233333333,0.01717314748333333,0.006452983666666666,4.0,5.0,0
26,8,3,12.5,Low,5,62.5,96.875,850.3046999976505,681.4744000002975,0.07350306307865016,1,10.0,96.66666666666667,522.8372999990825,707.8523999953177,0.01912640892303887,1,12.5,93.75,601.3781000074232,529.6898000015062,0.020785592291847184,300.00520000000006,17.028999999999996,50.0,59.375,2,2,5,0.05044706333333334,0.15019756650000002,2.3333333333333335,28.333333333333332,658.173366668052,639.6721999990405,0.03780502143117873,7.155999999999949,3.0429999999998927,3.421000000000049,3.4090000000001055,4.257249999999999,11.744670855599274,6,2,8,9,0.05044706333333334,0.037918399,0.019791430166666665,-0.0573628015,0.041498857416666673,0.0023674176366666744,0.023575377249999998,0.025671483333333335,4.0,5.0,0
27,1,7,29.17,Low,8,100.0,100.0,378.0146999997669,,0.2645399768846599,10,100.0,96.66666666666667,513.5161499987589,507.3592999833636,0.19473584229092247,7,87.5,87.5,625.7309999990476,1049.2891750036506,0.139836447291461,300.00290000000007,95.71799999999985,75.0,90.625,3,1,4,0.36886383754705243,0.5672089968749999,8.333333333333334,95.83333333333333,505.7539499991911,,0.1997040888223478,27.794999999999845,19.93600000000015,27.14300000000003,15.983999999999924,22.714499999999987,3.301855642871296,3,2,5,2,0.21107810067205246,0.2842911381720525,0.22308676204705244,0.36886383754705243,0.40942325999999996,0.460771715,0.401787818125,0.43882199099999997,4.0,3.5,1
27,2,7,29.17,Low,8,100.0,100.0,378.0146999997669,,0.2645399768846599,10,100.0,96.66666666666667,513.5161499987589,507.3592999833636,0.19473584229092247,7,87.5,87.5,625.7309999990476,1049.2891750036506,0.139836447291461,300.00290000000007,124.80700000000002,100.0,90.625,4,0,5,0.31827415942205245,0.6014471397500001,8.333333333333334,95.83333333333333,505.7539499991911,,0.1997040888223478,21.276000000000067,27.736999999999853,43.875,38.932000000000016,32.954999999999984,3.034440904263391,3,2,5,2,0.31827415942205245,0.2630001256720525,0.29941787817205245,0.13724463692205247,0.494416312875,0.42815299625000003,0.5825908585,0.30177035900000004,4.0,3.5,1
27,3,7,29.17,Low,8,100.0,100.0,378.0146999997669,,0.2645399768846599,10,100.0,96.66666666666667,513.5161499987589,507.3592999833636,0.19473584229092247,7,87.5,87.5,625.7309999990476,1049.2891750036506,0.139836447291461,300.00290000000007,142.36300000000006,100.0,90.625,4,0,6,0.3331319631720524,0.5059509746249999,8.333333333333334,95.83333333333333,505.7539499991911,,0.1997040888223478,50.31600000000003,31.962999999999965,23.256000000000085,40.281999999999925,36.45425,2.7431643772673966,3,2,5,2,0.28565664067205243,0.24768981442205246,0.3331319631720524,0.10659985442205246,0.458475652125,0.38497144875,0.434789275,0.24825819249999997,4.0,3.5,1
27,4,7,29.17,Low,8,100.0,100.0,378.0146999997669,,0.2645399768846599,10,100.0,96.66666666666667,513.5161499987589,507.3592999833636,0.19473584229092247,7,87.5,87.5,625.7309999990476,1049.2891750036506,0.139836447291461,300.00290000000007,98.53300000000013,75.0,90.625,3,1,6,0.6039237406720525,0.81699030125,8.333333333333334,95.83333333333333,505.7539499991911,,0.1997040888223478,19.207000000000107,39.65599999999995,22.88799999999992,20.024000000000115,25.443750000000023,2.947678703021368,3,2,5,2,0.21814192692205248,0.47191575192205243,0.6039237406720525,0.28681868067205246,0.43120848750000007,0.6222690587499999,0.80482353625,0.44616017125,4.0,3.5,1
27,5,7,29.17,Low,8,100.0,100.0,378.0146999997669,,0.2645399768846599,10,100.0,96.66666666666667,513.5161499987589,507.3592999833636,0.19473584229092247,7,87.5,87.5,625.7309999990476,1049.2891750036506,0.139836447291461,300.00290000000007,126.40899999999988,100.0,90.625,4,0,6,0.3476531377970525,0.556607125875,8.333333333333334,95.83333333333333,505.7539499991911,,0.1997040888223478,20.34699999999998,36.975999999999885,27.616000000000213,44.41299999999978,32.337999999999965,3.0923371884470314,3,2,5,2,0.15145384729705244,0.12095206279705244,0.3476531377970525,0.10688718692205244,0.29716731662499996,0.272617175875,0.556607125875,0.18856698125,4.0,3.5,1
27,6,7,29.17,Low,8,100.0,100.0,378.0146999997669,,0.2645399768846599,10,100.0,96.66666666666667,513.5161499987589,507.3592999833636,0.19473584229092247,7,87.5,87.5,625.7309999990476,1049.2891750036506,0.139836447291461,300.00290000000007,115.32500000000005,75.0,90.625,3,1,6,0.31115545104705244,0.450459475,8.333333333333334,95.83333333333333,505.7539499991911,,0.1997040888223478,28.220000000000027,37.30000000000018,19.187999999999874,34.49800000000005,29.801500000000033,2.5166518463835685,3,2,5,2,0.31115545104705244,0.07889506354705245,0.19393431442205245,0.10567441442205244,0.450459475,0.137891251625,0.31087651374999997,0.17702548875,4.0,3.5,1
27,7,7,29.17,Low,8,100.0,100.0,378.0146999997669,,0.2645399768846599,10,100.0,96.66666666666667,513.5161499987589,507.3592999833636,0.19473584229092247,7,87.5,87.5,625.7309999990476,1049.2891750036506,0.139836447291461,300.00290000000007,114.34300000000007,100.0,90.625,4,0,7,0.23117658192205248,0.45662136125,8.333333333333334,95.83333333333333,505.7539499991911,,0.1997040888223478,22.473999999999933,25.15800000000013,46.09899999999993,22.376999999999953,29.026999999999987,3.4450683846074357,3,2,5,2,0.17034060032205245,0.08406122817205246,0.23117658192205248,0.17892446442205245,0.30924456214999996,0.17078561250000002,0.45662136125,0.250886186375,4.0,3.5,1
27,8,7,29.17,Low,8,100.0,100.0,378.0146999997669,,0.2645399768846599,10,100.0,96.66666666666667,513.5161499987589,507.3592999833636,0.19473584229092247,7,87.5,87.5,625.7309999990476,1049.2891750036506,0.139836447291461,300.00290000000007,113.72600000000011,100.0,90.625,4,0,7,0.11795777817205244,0.32306401875,8.333333333333334,95.83333333333333,505.7539499991911,,0.1997040888223478,33.04600000000005,26.454999999999927,22.98700000000008,31.238000000000056,28.431500000000028,3.5172256124369063,3,2,5,2,0.11023843942205246,0.10100740817205245,0.11795777817205244,0.07115337067205245,0.2114783925,0.159680720375,0.30003341,0.27625961125000004,4.0,3.5,1
28,1,13,54.17,High,8,100.0,100.0,421.1743249979918,,0.23743137713932777,9,90.0,100.0,540.9330222270606,,0.16637919354500388,6,75.0,96.875,638.2853166675583,1723.979200003669,0.1175023113355789,300.0033000000001,122.1110000000001,100.0,84.375,4,0,7,0.2666797803224391,0.41602158999999994,7.666666666666667,88.33333333333333,533.4642212975369,,0.17377096067330353,28.336000000000013,17.57400000000007,29.03800000000001,21.138999999999896,24.021749999999997,4.162894043939347,4,2,6,3,0.11960380282243915,0.2666797803224391,0.17510992407243914,0.04937226032243913,0.25165679500000004,0.41602158999999994,0.248351269,0.130537075375,6.0,4.0,1
28,2,13,54.17,High,8,100.0,100.0,421.1743249979918,,0.23743137713932777,9,90.0,100.0,540.9330222270606,,0.16637919354500388,6,75.0,96.875,638.2853166675583,1723.979200003669,0.1175023113355789,300.0033000000001,73.65000000000009,75.0,84.375,3,1,5,0.37301028032243916,0.6038248625,7.666666666666667,88.33333333333333,533.4642212975369,,0.17377096067330353,16.391000000000076,10.858999999999924,26.28800000000001,23.411000000000058,19.237250000000017,3.898686142769883,4,2,6,3,0.37301028032243916,0.25910888282243916,0.14621747782243913,0.18601816657243914,0.6038248625,0.44927390375,0.24685480625,0.3024225225,6.0,4.0,1
28,3,13,54.17,High,8,100.0,100.0,421.1743249979918,,0.23743137713932777,9,90.0,100.0,540.9330222270606,,0.16637919354500388,6,75.0,96.875,638.2853166675583,1723.979200003669,0.1175023113355789,300.0033000000001,82.77800000000002,75.0,84.375,3,1,6,0.17271661532243912,0.35249820875,7.666666666666667,88.33333333333333,533.4642212975369,,0.17377096067330353,27.833000000000084,16.50799999999981,16.578000000000202,25.163999999999987,21.52075000000002,3.485008654438155,4,2,6,3,0.11860881282243912,0.17271661532243912,0.13179369157243914,0.07920296657243914,0.29839040625,0.293535275,0.255639235,0.16235762625,6.0,4.0,1
28,4,13,54.17,High,8,100.0,100.0,421.1743249979918,,0.23743137713932777,9,90.0,100.0,540.9330222270606,,0.16637919354500388,6,75.0,96.875,638.2853166675583,1723.979200003669,0.1175023113355789,300.0033000000001,76.33799999999997,75.0,84.375,3,1,7,0.18316941782243912,0.3614764,7.666666666666667,88.33333333333333,533.4642212975369,,0.17377096067330353,31.09699999999998,17.227999999999838,11.097000000000207,19.04599999999982,19.616999999999962,3.8232145588010478,4,2,6,3,0.18316941782243912,0.08762796782243913,0.15192132532243913,0.15602420532243913,0.33571965375,0.22141101750000003,0.3298953575,0.3343311875,6.0,4.0,1
28,5,13,54.17,High,8,100.0,100.0,421.1743249979918,,0.23743137713932777,9,90.0,100.0,540.9330222270606,,0.16637919354500388,6,75.0,96.875,638.2853166675583,1723.979200003669,0.1175023113355789,300.0033000000001,104.17000000000007,75.0,84.375,3,1,7,0.31030814157243913,0.5247567712500001,7.666666666666667,88.33333333333333,533.4642212975369,,0.17377096067330353,23.48700000000008,44.603000000000065,11.513999999999896,26.304000000000087,26.477000000000032,2.832647203232991,4,2,6,3,0.08517955894743913,0.21782389282243916,0.31030814157243913,0.17443532657243915,0.20000321637499996,0.43209363125,0.47555430249999997,0.27488179875,6.0,4.0,1
28,6,13,54.17,High,8,100.0,100.0,421.1743249979918,,0.23743137713932777,9,90.0,100.0,540.9330222270606,,0.16637919354500388,6,75.0,96.875,638.2853166675583,1723.979200003669,0.1175023113355789,300.0033000000001,63.488000000000056,75.0,84.375,3,1,6,0.18162838407243911,0.34932670125,7.666666666666667,88.33333333333333,533.4642212975369,,0.17377096067330353,20.575000000000045,16.519000000000005,11.911999999999807,16.83699999999999,16.460749999999962,4.556293000015199,4,2,6,3,0.08282101032243913,0.14848643032243913,0.18162838407243911,0.17642118282243913,0.19125324999999999,0.24120437,0.34932670125,0.27972374,6.0,4.0,1
28,7,13,54.17,High,8,100.0,100.0,421.1743249979918,,0.23743137713932777,9,90.0,100.0,540.9330222270606,,0.16637919354500388,6,75.0,96.875,638.2853166675583,1723.979200003669,0.1175023113355789,300.0033000000001,72.56000000000017,100.0,84.375,4,0,6,0.25205190782243914,0.44581144250000004,7.666666666666667,88.33333333333333,533.4642212975369,,0.17377096067330353,17.5300000000002,15.755999999999858,19.125999999999976,23.042000000000144,18.863500000000045,5.301243141516673,4,2,6,3,0.25205190782243914,0.05628109294743913,0.12557049032243914,0.11385263907243914,0.3986842425,0.125668002625,0.319330025,0.23930192500000003,6.0,4.0,1
28,8,13,54.17,High,8,100.0,100.0,421.1743249979918,,0.23743137713932777,9,90.0,100.0,540.9330222270606,,0.16637919354500388,6,75.0,96.875,638.2853166675583,1723.979200003669,0.1175023113355789,300.0033000000001,75.49900000000002,100.0,84.375,4,0,7,0.18532988907243914,0.3594469375,7.666666666666667,88.33333333333333,533.4642212975369,,0.17377096067330353,18.529999999999973,20.462999999999965,21.24000000000001,15.266000000000076,18.874750000000006,5.29808341832342,4,2,6,3,0.17407053157243915,0.18532988907243914,0.11133603157243913,0.12812223532243913,0.34818758000000005,0.26857873125,0.24710546249999998,0.22488560375,6.0,4.0,1
29,1,20,83.33,High,8,100.0,100.0,378.23444999958156,,0.2643862821065364,9,90.0,100.0,395.7501777784071,,0.2274161960083662,8,100.0,100.0,723.2175375065708,,0.13827098322970555,300.0009,124.09399999999994,100.0,90.625,4,0,5,0.12672742653796987,0.251061345,8.333333333333334,96.66666666666667,499.06738842818646,,0.2100244871148694,34.20399999999995,28.8420000000001,27.139999999999873,24.067999999999984,28.563499999999976,3.5009715195966913,2,2,6,3,0.10105826903796988,0.09367983278796989,0.12672742653796987,0.11152915528796987,0.1645107875,0.21801375125,0.200285369125,0.192489896125,6.0,4.0,1
29,2,20,83.33,High,8,100.0,100.0,378.23444999958156,,0.2643862821065364,9,90.0,100.0,395.7501777784071,,0.2274161960083662,8,100.0,100.0,723.2175375065708,,0.13827098322970555,300.0009,78.50099999999998,100.0,90.625,4,0,6,0.12514050153796988,0.17996499902750002,8.333333333333334,96.66666666666667,499.06738842818646,,0.2100244871148694,20.567000000000007,11.694999999999936,12.288000000000011,38.134000000000015,20.670999999999992,4.837695321948625,2,2,6,3,-0.04404868608703012,0.08308732878796987,0.05141699366296988,0.12514050153796988,0.0,0.13186548225,0.07584910312500001,0.17996499902750002,6.0,4.0,1
29,3,20,83.33,High,8,100.0,100.0,378.23444999958156,,0.2643862821065364,9,90.0,100.0,395.7501777784071,,0.2274161960083662,8,100.0,100.0,723.2175375065708,,0.13827098322970555,300.0009,110.10900000000015,100.0,90.625,4,0,6,0.12527142403796987,0.20135475875,8.333333333333334,96.66666666666667,499.06738842818646,,0.2100244871148694,32.10100000000011,31.394000000000005,32.08999999999992,17.662000000000035,28.311750000000018,3.5321023956484474,2,2,6,3,-0.05237924096203013,0.09897974704221987,0.12527142403796987,0.050050941662969875,0.0,0.15991598975424998,0.17669584249999998,0.091934939875,6.0,4.0,1
29,4,20,83.33,High,8,100.0,100.0,378.23444999958156,,0.2643862821065364,9,90.0,100.0,395.7501777784071,,0.2274161960083662,8,100.0,100.0,723.2175375065708,,0.13827098322970555,300.0009,104.36300000000006,100.0,90.625,4,0,6,0.1313229465379699,0.216211629875,8.333333333333334,96.66666666666667,499.06738842818646,,0.2100244871148694,33.184999999999945,18.28300000000013,27.35199999999986,38.11500000000001,29.233749999999986,3.42070380980887,2,2,6,3,0.1313229465379699,0.06966191903796988,0.11998689778796989,0.11662464403796988,0.19337587125,0.13500545375,0.156064367225,0.19735876624999998,6.0,4.0,1
29,5,20,83.33,High,8,100.0,100.0,378.23444999958156,,0.2643862821065364,9,90.0,100.0,395.7501777784071,,0.2274161960083662,8,100.0,100.0,723.2175375065708,,0.13827098322970555,300.0009,127.79099999999994,75.0,90.625,3,1,7,0.08569380153796988,0.16841772,8.333333333333334,96.66666666666667,499.06738842818646,,0.2100244871148694,30.192999999999984,47.96600000000012,19.346000000000004,32.77299999999991,32.569500000000005,2.3027679270483117,2,2,6,3,0.06344172566296988,0.08005101403796988,0.07510483778796988,0.08569380153796988,0.146165644125,0.12252367750000001,0.1334159325,0.1387324015,6.0,4.0,1
29,6,20,83.33,High,8,100.0,100.0,378.23444999958156,,0.2643862821065364,9,90.0,100.0,395.7501777784071,,0.2274161960083662,8,100.0,100.0,723.2175375065708,,0.13827098322970555,300.0009,101.1880000000001,75.0,90.625,3,1,6,0.12401745903796989,0.18554740625000002,8.333333333333334,96.66666666666667,499.06738842818646,,0.2100244871148694,21.27500000000009,27.669999999999845,22.688000000000102,34.91399999999999,26.636750000000006,2.8156588172355854,2,2,6,3,0.12401745903796989,0.07899681403796988,0.09457901778796989,0.08932286528796987,0.17129984062500003,0.11858221875,0.11988718587500001,0.1508528125,6.0,4.0,1
29,7,20,83.33,High,8,100.0,100.0,378.23444999958156,,0.2643862821065364,9,90.0,100.0,395.7501777784071,,0.2274161960083662,8,100.0,100.0,723.2175375065708,,0.13827098322970555,300.0009,103.68599999999992,75.0,90.625,3,1,7,0.10044337403796987,0.1785891175,8.333333333333334,96.66666666666667,499.06738842818646,,0.2100244871148694,22.222999999999956,23.82400000000007,38.95100000000002,21.357999999999947,26.589,2.8207153334085526,2,2,6,3,0.10044337403796987,0.09839390403796988,0.08793734153796988,0.09847398778796988,0.151441985,0.16007791875,0.15519824875,0.1376750965,6.0,4.0,1
29,8,20,83.33,High,8,100.0,100.0,378.23444999958156,,0.2643862821065364,9,90.0,100.0,395.7501777784071,,0.2274161960083662,8,100.0,100.0,723.2175375065708,,0.13827098322970555,300.0009,103.03700000000003,100.0,90.625,4,0,7,0.1466259340379699,0.25759492625,8.333333333333334,96.66666666666667,499.06738842818646,,0.2100244871148694,18.15599999999995,19.990999999999985,31.332000000000107,33.55799999999999,25.75925000000001,3.8821006046371673,2,2,6,3,0.10970153653796988,0.08126245403796989,0.061442355287969874,0.1466259340379699,0.22067052874999998,0.13398751675,0.10223009625,0.23319662500000002,6.0,4.0,1
30,1,13,54.17,High,8,100.0,96.875,375.8462499936286,302.9404999979306,0.2660662438475712,10,100.0,100.0,531.9136200007051,,0.1880004501480286,8,100.0,100.0,567.5032499966619,,0.17621044461082505,300.0096000000001,146.03500000000008,75.0,84.375,3,1,4,0.04828862383454603,0.087047498375,8.666666666666666,100.0,491.7543733303319,,0.21009237953547497,44.875999999999976,28.49500000000012,29.676999999999907,25.876999999999953,32.23124999999999,2.32693426410704,4,2,6,1,0.04450632879704604,0.04180212545954603,0.03668276145954603,0.04828862383454603,0.08326520333750001,0.0682741885,0.063175738075,0.08010494525,8.0,4.0,0
30,2,13,54.17,High,8,100.0,96.875,375.8462499936286,302.9404999979306,0.2660662438475712,10,100.0,100.0,531.9136200007051,,0.1880004501480286,8,100.0,100.0,567.5032499966619,,0.17621044461082505,300.0096000000001,89.07300000000009,75.0,84.375,3,1,5,0.03263087683454603,0.0641101242625,8.666666666666666,100.0,491.7543733303319,,0.21009237953547497,18.34900000000016,23.15300000000002,22.05699999999979,28.2650000000001,22.956000000000017,3.2671197072660716,4,2,6,1,-0.031479247427953966,0.01626757708454603,0.03263087683454603,0.02616922970954603,0.0,0.039949914375,0.0466302866125,0.048093148737499994,8.0,4.0,1
30,3,13,54.17,High,8,100.0,96.875,375.8462499936286,302.9404999979306,0.2660662438475712,10,100.0,100.0,531.9136200007051,,0.1880004501480286,8,100.0,100.0,567.5032499966619,,0.17621044461082505,300.0096000000001,130.21800000000007,100.0,84.375,4,0,5,0.06437543083454603,0.105076696325,8.666666666666666,100.0,491.7543733303319,,0.21009237953547497,49.30099999999993,19.860000000000127,36.60299999999984,28.363000000000056,33.53174999999999,2.982248167781283,4,2,6,1,0.06437543083454603,0.02864613708454603,0.02347126720954603,0.022775711009546028,0.105076696325,0.066631145625,0.0508803795,0.04572506955,8.0,4.0,1
30,4,13,54.17,High,8,100.0,96.875,375.8462499936286,302.9404999979306,0.2660662438475712,10,100.0,100.0,531.9136200007051,,0.1880004501480286,8,100.0,100.0,567.5032499966619,,0.17621044461082505,300.0096000000001,90.36200000000008,100.0,84.375,4,0,5,0.03368517470954603,0.085708152375,8.666666666666666,100.0,491.7543733303319,,0.21009237953547497,18.413999999999987,18.083000000000084,32.63799999999992,23.69600000000014,23.207750000000033,4.308905430298062,4,2,6,1,0.028254417459546034,0.029952730754546027,0.028472909584546027,0.03053460133454603,0.04732657833750001,0.08197570841999999,0.07679622850000001,0.055984584125,8.0,4.0,1
30,5,13,54.17,High,8,100.0,96.875,375.8462499936286,302.9404999979306,0.2660662438475712,10,100.0,100.0,531.9136200007051,,0.1880004501480286,8,100.0,100.0,567.5032499966619,,0.17621044461082505,300.0096000000001,91.13400000000001,100.0,84.375,4,0,6,0.04203735533454603,0.08439146424999999,8.666666666666666,100.0,491.7543733303319,,0.21009237953547497,30.139999999999873,22.38499999999999,18.292000000000144,21.755999999999858,23.143249999999966,4.320914305467043,4,2,6,1,0.04203735533454603,0.028150650334546036,0.03634025608454603,0.03533527983454603,0.0648564975,0.07050475925,0.06938376125000001,0.06523962756249999,8.0,4.0,1
30,6,13,54.17,High,8,100.0,96.875,375.8462499936286,302.9404999979306,0.2660662438475712,10,100.0,100.0,531.9136200007051,,0.1880004501480286,8,100.0,100.0,567.5032499966619,,0.17621044461082505,300.0096000000001,94.62800000000016,75.0,84.375,3,1,6,0.03184747845954603,0.07164289262500001,8.666666666666666,100.0,491.7543733303319,,0.21009237953547497,19.968000000000075,31.677999999999884,20.95400000000018,26.520999999999958,24.780250000000024,3.0266038478223556,4,2,6,1,0.01835656808454603,0.03184747845954603,0.02311378533454603,0.01907381553654603,0.05815198225,0.06455225003750001,0.041443647375,0.041447303702000005,8.0,4.0,1
30,7,13,54.17,High,8,100.0,96.875,375.8462499936286,302.9404999979306,0.2660662438475712,10,100.0,100.0,531.9136200007051,,0.1880004501480286,8,100.0,100.0,567.5032499966619,,0.17621044461082505,300.0096000000001,142.89200000000005,50.0,84.375,2,2,7,0.05445910483454603,0.09756707712500001,8.666666666666666,100.0,491.7543733303319,,0.21009237953547497,35.277000000000044,28.176999999999907,46.28500000000008,34.68899999999985,36.10699999999997,1.3847730356994499,4,2,6,1,0.02959601845954603,0.03752962158454603,0.03880246120954603,0.05445910483454603,0.064729362,0.067290109125,0.0679243515,0.09756707712500001,8.0,4.0,1
30,8,13,54.17,High,8,100.0,96.875,375.8462499936286,302.9404999979306,0.2660662438475712,10,100.0,100.0,531.9136200007051,,0.1880004501480286,8,100.0,100.0,567.5032499966619,,0.17621044461082505,300.0096000000001,95.5440000000001,100.0,84.375,4,0,6,0.027576916709546026,0.0811563545,8.666666666666666,100.0,491.7543733303319,,0.21009237953547497,37.65000000000009,17.368999999999915,14.490999999999985,26.034000000000106,23.886000000000024,4.186552792430708,4,2,6,1,0.025566490822046033,0.027576916709546026,0.02471427445954603,0.020517522584546033,0.0508604373625,0.060078338249999995,0.046462999875,0.062777411625,8.0,4.0,1
31,1,8,33.33,Low,8,100.0,100.0,418.8061625000614,,0.23877394593014217,10,100.0,100.0,450.3477799999473,,0.22205061164065626,8,100.0,93.75,413.6318250000386,1714.5688499999778,0.24176089448627575,300.00569999999993,165.7059999999999,50.0,71.875,2,2,6,0.08982708952618138,0.14624733625,8.666666666666666,100.0,427.5952558333491,,0.2341951506856914,50.057000000000016,33.16899999999987,39.531999999999925,18.680000000000064,35.35949999999997,1.4140471443317932,3,4,8,1,0.06326160202618139,0.04360548802618139,0.027954606151181387,0.08982708952618138,0.11968184875000001,0.08302301237500001,0.061186551624999995,0.14445112124999998,3.0,6.0,0
31,2,8,33.33,Low,8,100.0,100.0,418.8061625000614,,0.23877394593014217,10,100.0,100.0,450.3477799999473,,0.22205061164065626,8,100.0,93.75,413.6318250000386,1714.5688499999778,0.24176089448627575,300.00569999999993,93.20100000000002,100.0,71.875,4,0,4,0.1695172520261814,0.2987444045125,8.666666666666666,100.0,427.5952558333491,,0.2341951506856914,30.260999999999967,23.723000000000184,18.965999999999894,45.82400000000007,29.69350000000003,3.367740414568842,3,4,8,1,0.09251868077618139,0.11149613877618139,0.06717290577618139,0.1695172520261814,0.18009223000000002,0.18675737975,0.1964000582625,0.25281459,3.0,6.0,0
31,3,8,33.33,Low,8,100.0,100.0,418.8061625000614,,0.23877394593014217,10,100.0,100.0,450.3477799999473,,0.22205061164065626,8,100.0,93.75,413.6318250000386,1714.5688499999778,0.24176089448627575,300.00569999999993,93.96100000000001,75.0,71.875,3,1,5,0.16784496452618136,0.28152181024999995,8.666666666666666,100.0,427.5952558333491,,0.2341951506856914,27.102999999999838,38.889000000000124,12.910000000000082,19.798999999999978,24.675250000000005,3.039482882645565,3,4,8,1,0.16784496452618136,0.06444997077618139,0.030095719651181393,0.0844993857761814,0.28152181024999995,0.10754809425,0.07213649850000001,0.1248706425,3.0,6.0,0
31,4,8,33.33,Low,8,100.0,100.0,418.8061625000614,,0.23877394593014217,10,100.0,100.0,450.3477799999473,,0.22205061164065626,8,100.0,93.75,413.6318250000386,1714.5688499999778,0.24176089448627575,300.00569999999993,110.29599999999982,100.0,71.875,4,0,4,0.08964485702618138,0.16508170875,8.666666666666666,100.0,427.5952558333491,,0.2341951506856914,44.91099999999983,22.85900000000015,32.27599999999984,14.855000000000018,28.72524999999996,3.481257778435354,3,4,8,1,0.08964485702618138,0.04055793977618139,0.08305991327618138,0.06660461515118139,0.1499473425,0.1159947915,0.11508550749999999,0.130056769375,3.0,6.0,0
31,5,8,33.33,Low,8,100.0,100.0,418.8061625000614,,0.23877394593014217,10,100.0,100.0,450.3477799999473,,0.22205061164065626,8,100.0,93.75,413.6318250000386,1714.5688499999778,0.24176089448627575,300.00569999999993,100.25400000000013,75.0,71.875,3,1,5,0.08352759202618139,0.14629038125,8.666666666666666,100.0,427.5952558333491,,0.2341951506856914,26.399000000000115,33.88499999999999,16.791999999999916,26.60200000000009,25.919500000000028,2.893574335924687,3,4,8,1,0.052236976776181394,0.08352759202618139,0.07923308077618138,0.03606571952618139,0.114999766,0.12066983875,0.11280230449999999,0.0740478795,3.0,6.0,0
31,6,8,33.33,Low,8,100.0,100.0,418.8061625000614,,0.23877394593014217,10,100.0,100.0,450.3477799999473,,0.22205061164065626,8,100.0,93.75,413.6318250000386,1714.5688499999778,0.24176089448627575,300.00569999999993,84.39200000000005,50.0,71.875,2,2,5,0.07617557690118139,0.132182867375,8.666666666666666,100.0,427.5952558333491,,0.2341951506856914,20.176999999999907,29.08699999999999,19.34699999999998,18.951000000000022,21.890499999999975,2.2840958406614766,3,4,8,1,0.07617557690118139,0.01591457877618139,0.04814439327618139,0.03354741702618139,0.132182867375,0.040797631375,0.08825645375,0.08482088625,3.0,6.0,0
31,7,8,33.33,Low,8,100.0,100.0,418.8061625000614,,0.23877394593014217,10,100.0,100.0,450.3477799999473,,0.22205061164065626,8,100.0,93.75,413.6318250000386,1714.5688499999778,0.24176089448627575,300.00569999999993,96.22900000000004,75.0,71.875,3,1,5,0.1305110945261814,0.171826265,8.666666666666666,100.0,427.5952558333491,,0.2341951506856914,24.730000000000018,25.822000000000116,26.442999999999984,23.330999999999904,25.081500000000005,2.990251779199808,3,4,8,1,0.04294371577618139,0.04869367827618139,0.04590959502618139,0.1305110945261814,0.08060197250000001,0.08651472375,0.0872247655,0.16325003,3.0,6.0,0
31,8,8,33.33,Low,8,100.0,100.0,418.8061625000614,,0.23877394593014217,10,100.0,100.0,450.3477799999473,,0.22205061164065626,8,100.0,93.75,413.6318250000386,1714.5688499999778,0.24176089448627575,300.00569999999993,106.95100000000025,50.0,71.875,2,2,6,0.1171348957761814,0.2366444575,8.666666666666666,100.0,427.5952558333491,,0.2341951506856914,28.076999999999998,15.825000000000045,30.852999999999838,32.19600000000037,26.737750000000062,1.870015240624207,3,4,8,1,0.1073338932761814,0.02078754143118139,0.03868717452618139,0.1171348957761814,0.15475354375,0.036804796905000006,0.088927792625,0.22173841500000002,3.0,6.0,0
32,1,9,37.5,Low,8,100.0,100.0,404.01194999867585,,0.24751743110650007,9,90.0,100.0,651.2078111118171,,0.1382047304474767,4,50.0,96.875,879.6602499933215,1163.2204999914393,0.056840126628865645,300.0008,167.163,50.0,75.0,2,2,6,0.2604038195522791,0.42464887,7.0,80.0,644.9600037012715,,0.14752076272761414,42.49000000000001,26.687999999999874,38.403999999999996,19.294000000000096,31.718999999999994,1.5763422554304993,4,1,5,2,0.1309145545522791,0.1559453845522791,0.18150849705227912,0.2604038195522791,0.2774394525,0.30413393,0.26331867750000004,0.42464887,6.0,3.0,1
32,2,9,37.5,Low,8,100.0,100.0,404.01194999867585,,0.24751743110650007,9,90.0,100.0,651.2078111118171,,0.1382047304474767,4,50.0,96.875,879.6602499933215,1163.2204999914393,0.056840126628865645,300.0008,136.21800000000007,75.0,75.0,3,1,4,0.2498179195522791,0.4640166775,7.0,80.0,644.9600037012715,,0.14752076272761414,36.559999999999945,30.74500000000012,46.17699999999991,29.75299999999993,35.808749999999975,2.094460152895593,4,1,5,2,0.1390079570522791,0.2498179195522791,0.1730205495522791,0.2020274270522791,0.353206715,0.39271951,0.351288935,0.31097281649999997,6.0,3.0,1
32,3,9,37.5,Low,8,100.0,100.0,404.01194999867585,,0.24751743110650007,9,90.0,100.0,651.2078111118171,,0.1382047304474767,4,50.0,96.875,879.6602499933215,1163.2204999914393,0.056840126628865645,300.0008,130.4480000000001,100.0,75.0,4,0,4,0.2423254170522791,0.44586566250000004,7.0,80.0,644.9600037012715,,0.14752076272761414,31.910000000000082,38.96900000000005,26.607999999999947,38.47000000000003,33.98925000000003,2.94210669549931,4,1,5,2,0.1139430545522791,0.1292133220522791,0.1352592670522791,0.2423254170522791,0.2262868825,0.227893365,0.2549487725,0.44586566250000004,6.0,3.0,1
32,4,9,37.5,Low,8,100.0,100.0,404.01194999867585,,0.24751743110650007,9,90.0,100.0,651.2078111118171,,0.1382047304474767,4,50.0,96.875,879.6602499933215,1163.2204999914393,0.056840126628865645,300.0008,144.55600000000004,100.0,75.0,4,0,6,0.3381526495522791,0.67496723,7.0,80.0,644.9600037012715,,0.14752076272761414,44.10200000000009,34.521999999999935,44.330999999999904,25.73199999999997,37.171749999999975,2.6902150154351103,4,1,5,2,0.12395022705227912,0.29065819455227915,0.3381526495522791,0.1931647195522791,0.46076480750000004,0.41749852500000006,0.59949768,0.351537605,6.0,3.0,1
32,5,9,37.5,Low,8,100.0,100.0,404.01194999867585,,0.24751743110650007,9,90.0,100.0,651.2078111118171,,0.1382047304474767,4,50.0,96.875,879.6602499933215,1163.2204999914393,0.056840126628865645,300.0008,144.73700000000008,50.0,75.0,2,2,8,0.3115301595522791,0.9190815425000001,7.0,80.0,644.9600037012715,,0.14752076272761414,45.003000000000156,38.947999999999865,13.7650000000001,52.375999999999976,37.523000000000025,1.332516056818484,4,1,5,2,0.11766479955227911,0.1218354620522791,0.2106136370522791,0.2719046695522791,0.3106804925,0.7293868450000001,0.2887304925,0.7771685675,6.0,3.0,1
32,6,9,37.5,Low,8,100.0,100.0,404.01194999867585,,0.24751743110650007,9,90.0,100.0,651.2078111118171,,0.1382047304474767,4,50.0,96.875,879.6602499933215,1163.2204999914393,0.056840126628865645,300.0008,174.115,75.0,75.0,3,1,8,0.2693571295522791,0.84172427625,7.0,80.0,644.9600037012715,,0.14752076272761414,44.75200000000018,38.67099999999982,45.340000000000146,50.24399999999969,44.75174999999996,1.6759121151686822,4,1,5,2,0.1806279345522791,0.2693571295522791,0.16703457205227912,0.1079746170522791,0.347627015,0.82826348825,0.3645657225,0.265102665,6.0,3.0,1
32,7,9,37.5,Low,8,100.0,100.0,404.01194999867585,,0.24751743110650007,9,90.0,100.0,651.2078111118171,,0.1382047304474767,4,50.0,96.875,879.6602499933215,1163.2204999914393,0.056840126628865645,300.0008,153.59100000000035,75.0,75.0,3,1,8,0.3731792695522791,0.7920980774999999,7.0,80.0,644.9600037012715,,0.14752076272761414,29.153000000000247,43.391000000000076,41.74299999999994,45.534999999999854,39.95550000000003,1.877088260690016,4,1,5,2,0.2217387970522791,0.3731792695522791,0.2940192645522791,0.22988798705227914,0.48560131,0.5492483349999999,0.497830035,0.3929496825,6.0,3.0,1
32,8,9,37.5,Low,8,100.0,100.0,404.01194999867585,,0.24751743110650007,9,90.0,100.0,651.2078111118171,,0.1382047304474767,4,50.0,96.875,879.6602499933215,1163.2204999914393,0.056840126628865645,300.0008,164.71799999999985,75.0,75.0,3,1,9,0.4513829445522791,0.69394465,7.0,80.0,644.9600037012715,,0.14752076272761414,42.92599999999993,31.452999999999975,45.89900000000034,44.4399999999996,41.17949999999996,1.8212945761847537,4,1,5,2,0.2189246995522791,0.4513829445522791,0.1500416345522791,0.3080879595522791,0.46148640500000004,0.6039054175,0.3238098525,0.503402715,6.0,3.0,1
33,1,9,37.5,Low,7,87.5,100.0,377.4090571470359,,0.23184393257926136,5,50.0,40.0,553.7578999937978,747.2513000037806,0.09029216558456325,7,87.5,96.875,614.6024857132163,993.123199994443,0.1423684447004156,300.00159999999994,172.08300000000008,75.0,78.125,3,1,2,0.0887300842267137,0.17722500865,6.333333333333333,75.0,515.25648095135,,0.1548348476214134,39.90100000000007,43.85699999999997,13.879999999999882,29.881000000000085,31.87975,2.3525905943428036,4,1,2,1,0.0887300842267137,0.044232419101713716,0.04019562845171372,0.05784412643921372,0.17412348034999997,0.113912121566875,0.128690552875,0.12572050363749998,3.0,1.5,1
33,2,9,37.5,Low,7,87.5,100.0,377.4090571470359,,0.23184393257926136,5,50.0,40.0,553.7578999937978,747.2513000037806,0.09029216558456325,7,87.5,96.875,614.6024857132163,993.123199994443,0.1423684447004156,300.00159999999994,68.96800000000007,100.0,78.125,4,0,2,0.03789917090171372,0.07579263549375001,6.333333333333333,75.0,515.25648095135,,0.1548348476214134,16.2349999999999,18.664999999999964,10.973000000000184,25.05899999999997,17.733000000000004,5.639203744431285,4,1,2,1,0.027793632491713724,0.026594752539213718,0.03789917090171372,0.033655948314213716,0.04900832235250001,0.0623367321375,0.054894585375,0.07121541895,3.0,1.5,1
33,3,9,37.5,Low,7,87.5,100.0,377.4090571470359,,0.23184393257926136,5,50.0,40.0,553.7578999937978,747.2513000037806,0.09029216558456325,7,87.5,96.875,614.6024857132163,993.123199994443,0.1423684447004156,300.00159999999994,78.24099999999999,50.0,78.125,2,2,3,0.05212794715171372,0.09804262356625,6.333333333333333,75.0,515.25648095135,,0.1548348476214134,9.524999999999864,25.0,20.402000000000044,25.399000000000115,20.081500000000005,2.4898538455792636,4,1,2,1,0.05212794715171372,0.03888079552171372,0.02834272903921372,0.037069315376713714,0.0617405813725,0.07962693328249999,0.04518300259,0.07949204010875,3.0,1.5,1
33,4,9,37.5,Low,7,87.5,100.0,377.4090571470359,,0.23184393257926136,5,50.0,40.0,553.7578999937978,747.2513000037806,0.09029216558456325,7,87.5,96.875,614.6024857132163,993.123199994443,0.1423684447004156,300.00159999999994,140.93999999999983,75.0,78.125,3,1,3,0.06836821793046371,0.12426034951625001,6.333333333333333,75.0,515.25648095135,,0.1548348476214134,39.10799999999995,33.896999999999935,39.81400000000008,29.94900000000007,35.69200000000001,2.1013112182001565,4,1,2,1,0.04800853674171372,0.042542472901713715,0.06836821793046371,0.03129774397796372,0.0922257528775,0.06870693765,0.12426034951625001,0.0572501302225,3.0,1.5,1
33,5,9,37.5,Low,7,87.5,100.0,377.4090571470359,,0.23184393257926136,5,50.0,40.0,553.7578999937978,747.2513000037806,0.09029216558456325,7,87.5,96.875,614.6024857132163,993.123199994443,0.1423684447004156,300.00159999999994,144.41499999999996,50.0,78.125,2,2,4,0.061302976414213714,0.15312028156250002,6.333333333333333,75.0,515.25648095135,,0.1548348476214134,30.774999999999864,38.371000000000095,31.21199999999999,45.875,36.55824999999999,1.3676803457495919,4,1,2,1,0.05607864590008873,0.061184211351713716,0.04993642446421372,0.061302976414213714,0.08782746103587502,0.12702038574,0.1213404376875,0.15312028156250002,3.0,1.5,1
