participant_number,subexperiment_number,MRTScore,MRTAcc,MRTGroup,nback_hits_0,nback_hit_rate_0,nback_correct_rejections_0,nback_rt_target_0,nback_rt_nontarget_0,nback_composite_0,nback_hits_1,nback_hit_rate_1,nback_correct_rejections_1,nback_rt_target_1,nback_rt_nontarget_1,nback_composite_1,nback_hits_2,nback_hit_rate_2,nback_correct_rejections_2,nback_rt_target_2,nback_rt_nontarget_2,nback_composite_2,rest_time,time_subexperiment,accuracy_subexperiment,accuracy_total,answer_correct_subexperiment,answer_incorrect_subexperiment,feedback_score_subexperiment,blink_count,rest_blink_rest_count,blink_rate,rest_blink_rate,normalized_blink_rate,nback_hits_avg,nback_hit_rate_avg,nback_rt_target_avg,nback_rt_non_target_avg,nback_composite_avg,trial_duration_1,trial_duration_2,trial_duration_3,trial_duration_4,trial_duration_mean,performance_subexperiment,feedback_score_tutorial_1,feedback_score_tutorial_2,feedback_score_tutorial_3,feedback_score_rest_1,eye_avg_fixation_PointX,eye_avg_fixation_PointY,eye_avg_fixation_PointZ,eye_avg_LeftGazeX,eye_avg_LeftGazeY,eye_avg_LeftGazeZ,eye_avg_RightGazeX,eye_avg_RightGazeY,eye_avg_RightGazeZ,eye_avg_LeftPupilDiameter,eye_avg_RightPupilDiameter,eye_avg_RightEyeOpenness,eye_avg_LeftEyeOpenness,eye_max_LeftPupilDiameter,eye_max_RightPupilDiameter,cogload_subexperiment,cogload_mean,cogload_group,z_score,std_dev
2,1,0,0,Low,8,100,100,429.6627375,,0.232740685,9,90,100,468.9398778,,0.191922258,7,87.5,93.75,395.2481571,1204.88085,0.221379906,300.006,121.681,50,46.875,2,2,5,16,10,7.889481513,20,-60.55259243,8,92.5,431.2835908,,0.215347616,45.052,11.15,33.854,28.178,29.5585,1.691560803,1,3,8,1,-0.115842711,-0.26008496,0.85354655,-0.057939053,-0.084451524,0.933924308,-0.031061762,-0.082731415,0.940738174,2.870866028,3.596910188,0.982912471,0.983674084,3.681152,4.383163,3,5.5,Low,-0.429197538,1.164964745
2,2,0,0,Low,8,100,100,429.6627375,,0.232740685,9,90,100,468.9398778,,0.191922258,7,87.5,93.75,395.2481571,1204.88085,0.221379906,300.006,109.627,75,46.875,3,1,4,20,10,10.94620851,20,-45.26895746,8,92.5,431.2835908,,0.215347616,42.835,31.193,12.033,25.688,27.93725,2.684587782,1,3,8,1,-0.122694454,-0.287466986,0.86092091,-0.071073542,-0.101355268,0.934023995,-0.039981008,-0.09528689,0.942035102,2.999139858,3.763972116,0.977559959,0.969657391,4.156494,4.521805,3,5.5,Low,-1.287592613,1.164964745
2,3,0,0,Low,8,100,100,429.6627375,,0.232740685,9,90,100,468.9398778,,0.191922258,7,87.5,93.75,395.2481571,1204.88085,0.221379906,300.006,140.315,25,46.875,1,3,7,20,10,8.552186153,20,-57.23906924,8,92.5,431.2835908,,0.215347616,39.247,31.576,40.256,31.655,35.6835,0.700603921,1,3,8,1,-0.057236102,-0.305596264,0.875238544,-0.023369671,-0.123233516,0.942264854,0.008617769,-0.117858981,0.95122916,3.015635835,3.755249429,0.969649966,0.958863397,4.180618,4.463974,3,5.5,High,1.287592613,1.164964745
2,4,0,0,Low,8,100,100,429.6627375,,0.232740685,9,90,100,468.9398778,,0.191922258,7,87.5,93.75,395.2481571,1204.88085,0.221379906,300.006,89.458,25,46.875,1,3,7,19,10,12.74341032,20,-36.28294842,8,92.5,431.2835908,,0.215347616,15.026,22.374,23.823,30.13,22.83825,1.094654801,1,3,8,1,-0.079019528,-0.279855206,0.858205118,-0.034940834,-0.116046151,0.929622867,-0.007092779,-0.111844041,0.938234994,3.018598433,3.727029439,0.959911211,0.949822554,3.735794,4.435287,3,5.5,High,1.287592613,1.164964745
2,5,0,0,Low,8,100,100,429.6627375,,0.232740685,9,90,100,468.9398778,,0.191922258,7,87.5,93.75,395.2481571,1204.88085,0.221379906,300.006,144.345,25,46.875,1,3,7,24,10,9.97609893,20,-50.11950535,8,92.5,431.2835908,,0.215347616,28.632,35.161,42.17,40.552,36.62875,0.682523974,1,3,8,1,-0.114905859,-0.239438609,0.870719729,-0.061855241,-0.091710031,0.934717019,-0.033142735,-0.095127006,0.941683939,3.076935164,3.746700834,0.959878865,0.953411774,4.046051,4.349579,3,5.5,High,1.287592613,1.164964745
2,6,0,0,Low,8,100,100,429.6627375,,0.232740685,9,90,100,468.9398778,,0.191922258,7,87.5,93.75,395.2481571,1204.88085,0.221379906,300.006,126.919,75,46.875,3,1,7,19,10,8.982106698,20,-55.08946651,8,92.5,431.2835908,,0.215347616,25.312,34.152,22.339,47.718,32.38025,2.316226712,1,3,8,1,-0.205663432,-0.273507151,0.848926052,-0.169242223,-0.095268512,0.930871035,-0.130316848,-0.110132595,0.941217442,3.151086394,3.77725926,0.973800832,0.968300542,4.184326,4.821487,3,5.5,High,1.287592613,1.164964745
2,7,0,0,Low,8,100,100,429.6627375,,0.232740685,9,90,100,468.9398778,,0.191922258,7,87.5,93.75,395.2481571,1204.88085,0.221379906,300.006,122.382,75,46.875,3,1,6,15,10,7.35402265,20,-63.22988675,8,92.5,431.2835908,,0.215347616,37.709,18.525,34.035,33.767,31.009,2.418652649,1,3,8,1,-0.203516031,-0.340986539,0.834143577,-0.155178345,-0.151153293,0.934065539,-0.122384472,-0.156332459,0.941512083,3.131837418,3.803971585,0.969709187,0.961808245,3.76004,4.473038,3,5.5,High,0.429197538,1.164964745
2,8,0,0,Low,8,100,100,429.6627375,,0.232740685,9,90,100,468.9398778,,0.191922258,7,87.5,93.75,395.2481571,1204.88085,0.221379906,300.006,126.632,25,46.875,1,3,7,16,10,7.581022174,20,-62.09488913,8,92.5,431.2835908,,0.215347616,33.318,20.68,27.387,45.247,31.658,0.78968981,1,3,8,1,-0.203700091,-0.327590411,0.82367213,-0.170719861,-0.144366275,0.930009911,-0.136024655,-0.149005538,0.939323638,3.097323115,3.776436501,0.973084216,0.971020142,3.94223,4.413452,3,5.5,High,1.287592613,1.164964745
3,1,0,0,Low,8,100,100,432.088925,,0.231433842,10,100,100,444.56208,,0.224940463,8,100,96.875,543.193025,2013.5157,0.18409662,300.0095,92.545,25,78.125,1,3,6,22,10,14.26333135,20,-28.68334324,8.666666667,100,473.2813433,,0.213490308,15.987,21.585,30.735,38.312,26.65475,0.937919133,4,1,7,1,-0.0994517,-0.335088149,0.828593127,-0.10140893,-0.150852452,0.924245582,-0.083955021,-0.158482562,0.936011513,3.766115373,4.162338106,0.960195787,0.955877545,4.727249,5.114258,3,4,High,1.020715663,1.959409532
3,2,0,0,Low,8,100,100,432.088925,,0.231433842,10,100,100,444.56208,,0.224940463,8,100,96.875,543.193025,2013.5157,0.18409662,300.0095,55.686,100,78.125,4,0,2,12,10,12.9296412,20,-35.35179399,8.666666667,100,473.2813433,,0.213490308,25.4,9.708,9.071,15.043,14.8055,6.754246733,4,1,7,1,-0.074764035,-0.429199043,0.831562985,-0.087283845,-0.197618454,0.934264862,-0.068733703,-0.211817208,0.942869478,3.972413021,4.284235176,0.954690119,0.946432169,4.852417,5.217606,3,4,Low,-1.020715663,1.959409532
3,3,0,0,Low,8,100,100,432.088925,,0.231433842,10,100,100,444.56208,,0.224940463,8,100,96.875,543.193025,2013.5157,0.18409662,300.0095,95.074,75,78.125,3,1,3,16,10,10.09739782,20,-49.51301092,8.666666667,100,473.2813433,,0.213490308,19.124,31.988,19.91,29.645,25.16675,2.980122582,4,1,7,1,-0.086608984,-0.453165775,0.81955475,-0.087519173,-0.204700109,0.93166563,-0.072353942,-0.221175474,0.94149957,4.055396048,4.349280706,0.957289429,0.955412864,5.071564,5.292847,3,4,Low,-0.510357832,1.959409532
3,4,0,0,Low,8,100,100,432.088925,,0.231433842,10,100,100,444.56208,,0.224940463,8,100,96.875,543.193025,2013.5157,0.18409662,300.0095,93.2,100,78.125,4,0,2,20,10,12.87553648,20,-35.6223176,8.666666667,100,473.2813433,,0.213490308,34.678,10.587,33.563,16.844,23.918,4.180951585,4,1,7,1,0.02017172,-0.512684951,0.766049646,-0.028295564,-0.239592995,0.928435831,-0.012651324,-0.255210417,0.932607977,4.105957605,4.397458142,0.960321425,0.963855672,4.910614,5.189423,3,4,Low,-1.020715663,1.959409532
3,5,0,0,Low,8,100,100,432.088925,,0.231433842,10,100,100,444.56208,,0.224940463,8,100,96.875,543.193025,2013.5157,0.18409662,300.0095,78.322,75,78.125,3,1,3,17,10,13.0231608,20,-34.88419601,8.666666667,100,473.2813433,,0.213490308,15.993,19.412,13.633,32.759,20.44925,3.667616172,4,1,7,1,0.014882224,-0.480193302,0.772438439,-0.037750483,-0.225281309,0.918506885,-0.023492409,-0.241877774,0.929502282,3.992595381,4.319533935,0.946748655,0.954159507,4.75882,5.119263,3,4,Low,-0.510357832,1.959409532
3,6,0,0,Low,8,100,100,432.088925,,0.231433842,10,100,100,444.56208,,0.224940463,8,100,96.875,543.193025,2013.5157,0.18409662,300.0095,93.392,75,78.125,3,1,4,18,10,11.56415967,20,-42.17920164,8.666666667,100,473.2813433,,0.213490308,13.286,22.811,23.479,39.11,24.6715,3.039944876,4,1,7,1,0.000756654,-0.554502792,0.743643223,-0.053305595,-0.268135141,0.913470698,-0.035658782,-0.285502482,0.919255134,4.019164809,4.325166606,0.959748735,0.959040656,4.764679,5.087097,3,4,Low,0,1.959409532
3,7,0,0,Low,8,100,100,432.088925,,0.231433842,10,100,100,444.56208,,0.224940463,8,100,96.875,543.193025,2013.5157,0.18409662,300.0095,69.535,75,78.125,3,1,6,29,10,25.02336953,20,25.11684763,8.666666667,100,473.2813433,,0.213490308,12.65,17.183,21.61,22.479,18.4805,4.058331755,4,1,7,1,-0.045427665,-0.546569957,0.743164243,-0.060842939,-0.26212357,0.908781673,-0.047490082,-0.279967811,0.922555037,4.006585414,4.365125432,0.940185693,0.936708281,5.045334,5.237411,3,4,High,1.020715663,1.959409532
3,8,0,0,Low,8,100,100,432.088925,,0.231433842,10,100,100,444.56208,,0.224940463,8,100,96.875,543.193025,2013.5157,0.18409662,300.0095,82.373,100,78.125,4,0,7,19,10,13.83948624,20,-30.8025688,8.666666667,100,473.2813433,,0.213490308,15.671,21.593,31.397,13.712,20.59325,4.855960084,4,1,7,1,-0.094360176,-0.447171785,0.798682046,-0.092088984,-0.202412345,0.931112698,-0.079292547,-0.221659066,0.937485408,4.077051135,4.392157847,0.940886585,0.93641571,5.129669,5.157806,3,4,High,1.531073495,1.959409532
4,1,3,12.5,Low,8,100,100,404.7064375,,0.247092684,4,40,100,649.710275,,0.061565903,8,100,96.875,789.06155,1578.8971,0.126732826,300.0153,128.1916,75,84.375,3,1,4,44,7,20.5941731,14,47.10123641,6.666666667,80,614.4927541,,0.145130471,36.6276,30.3155,32.1435,26.0168,31.27585,2.398016361,5,1,7,4,-0.062798246,-0.00956365,0.876532782,-0.087609779,-0.085059327,0.903719052,-0.076325087,-0.096426855,0.901238653,3.506751444,3.565328088,0.921728629,0.896371095,5.094879,4.992126,3,4,Low,0,1.685018016
4,2,3,12.5,Low,8,100,100,404.7064375,,0.247092684,4,40,100,649.710275,,0.061565903,8,100,96.875,789.06155,1578.8971,0.126732826,300.0153,80.101,100,84.375,4,0,3,24,7,17.97730365,14,28.40931182,6.666666667,80,614.4927541,,0.145130471,26.881,21.956,16.112,18.595,20.886,4.787896198,5,1,7,4,-0.127424742,-0.086486633,0.88989217,-0.134959862,-0.120919635,0.918958239,-0.125736348,-0.143408798,0.90917689,3.951970995,3.943544526,0.929102901,0.919012267,5.006119,5.198151,3,4,Low,-0.593465465,1.685018016
4,3,3,12.5,Low,8,100,100,404.7064375,,0.247092684,4,40,100,649.710275,,0.061565903,8,100,96.875,789.06155,1578.8971,0.126732826,300.0153,132.47,50,84.375,2,2,5,46,7,20.83490602,14,48.82075726,6.666666667,80,614.4927541,,0.145130471,26.554,35.007,44.776,29.345,33.9205,1.474034876,5,1,7,4,-0.050754335,-0.073221532,0.886292536,-0.068453446,-0.102167289,0.914586371,-0.060070591,-0.123059852,0.907145462,4.010547615,4.005375959,0.897606849,0.869381459,5.411957,5.532288,3,4,High,0.593465465,1.685018016
4,4,3,12.5,Low,8,100,100,404.7064375,,0.247092684,4,40,100,649.710275,,0.061565903,8,100,96.875,789.06155,1578.8971,0.126732826,300.0153,135.613,100,84.375,4,0,5,36,7,15.92767655,14,13.76911822,6.666666667,80,614.4927541,,0.145130471,37.557,45.201,27.933,28.885,34.894,2.865822204,5,1,7,4,-0.122012913,-0.139352125,0.894633748,-0.131399896,-0.138504656,0.929033997,-0.123440987,-0.168742651,0.923230072,4.186645244,4.179918011,0.932997263,0.914289379,5.427124,5.698883,3,4,High,0.593465465,1.685018016
4,5,3,12.5,Low,8,100,100,404.7064375,,0.247092684,4,40,100,649.710275,,0.061565903,8,100,96.875,789.06155,1578.8971,0.126732826,300.0153,99.103,100,84.375,4,0,6,29,7,17.55749069,14,25.4106478,6.666666667,80,614.4927541,,0.145130471,26.012,28.719,19.759,30.495,26.24625,3.810068105,5,1,7,4,-0.01781401,-0.095118606,0.882852732,-0.062596533,-0.117682528,0.91775356,-0.056870252,-0.137585577,0.913327824,4.024257336,4.071278889,0.937775949,0.91849016,5.207779,5.356186,3,4,High,1.18693093,1.685018016
4,6,3,12.5,Low,8,100,100,404.7064375,,0.247092684,4,40,100,649.710275,,0.061565903,8,100,96.875,789.06155,1578.8971,0.126732826,300.0153,100.942,75,84.375,3,1,7,27,7,16.04882011,14,14.63442939,6.666666667,80,614.4927541,,0.145130471,42.558,13.077,20.83,27.487,25.988,2.88594736,5,1,7,4,-0.021862389,-0.168719318,0.891729539,-0.084700874,-0.152213562,0.929023654,-0.073946192,-0.177753074,0.923537481,4.169389479,4.187147307,0.927732182,0.904036294,5.259216,5.126144,3,4,High,1.780396394,1.685018016
4,7,3,12.5,Low,8,100,100,404.7064375,,0.247092684,4,40,100,649.710275,,0.061565903,8,100,96.875,789.06155,1578.8971,0.126732826,300.0153,98.495,75,84.375,3,1,7,36,7,21.93004721,14,56.64319436,6.666666667,80,614.4927541,,0.145130471,12.75,32.618,33.357,22.7,25.35625,2.957850629,5,1,7,4,-0.289217278,-0.123376069,0.845296527,-0.194265558,-0.143873114,0.903288282,-0.180938457,-0.164949655,0.89761764,4.04794433,4.086555196,0.931240163,0.908089735,5.5681,5.116302,3,4,High,1.780396394,1.685018016
4,8,3,12.5,Low,8,100,100,404.7064375,,0.247092684,4,40,100,649.710275,,0.061565903,8,100,96.875,789.06155,1578.8971,0.126732826,300.0153,113.477,100,84.375,4,0,8,30,7,15.86224521,14,13.30175152,6.666666667,80,614.4927541,,0.145130471,30.037,35.75,34.967,12.723,28.36925,3.524943381,5,1,7,4,-0.202590297,-0.08089667,0.854944288,-0.168695914,-0.103063133,0.918518943,-0.155072945,-0.123524685,0.911481338,4.060230262,4.096308871,0.951929311,0.938816608,5.071381,5.118423,3,4,High,2.373861859,1.685018016
10,1,0,0,Low,8,100,100,413.2961,,0.24195728,10,100,100,738.89935,,0.13533643,8,100,100,832.9409375,,0.120056532,300.0045,169.025,75,68.75,3,1,3,80,3,28.39816595,6,373.3027659,8.666666667,100,661.7121292,,0.165783414,42.87,38.501,15.808,23.4,30.14475,2.487995422,1,1,7,1,0.110079533,-0.215823105,0.745820699,0.013937606,-0.164038715,0.820487583,0.058853433,-0.20662475,0.838270008,3.436145042,3.995899164,0.654685488,0.667415645,5.482773,5.750671,4,4,Low,-0.841938691,1.187734939
10,2,0,0,Low,8,100,100,413.2961,,0.24195728,10,100,100,738.89935,,0.13533643,8,100,100,832.9409375,,0.120056532,300.0045,92.921,75,68.75,3,1,4,76,3,49.07394453,6,717.8990756,8.666666667,100,661.7121292,,0.165783414,28.16,27.248,25.673,31.456,28.13425,2.665789918,1,1,7,1,0.074939847,-0.292059368,0.766776426,0.01129522,-0.186858382,0.834657127,0.047951413,-0.208165107,0.835955712,3.304652196,3.87347862,0.75817619,0.757575008,4.950104,5.354477,4,4,Low,0,1.187734939
10,3,0,0,Low,8,100,100,413.2961,,0.24195728,10,100,100,738.89935,,0.13533643,8,100,100,832.9409375,,0.120056532,300.0045,184.568,0,68.75,0,4,6,101,3,32.83342725,6,447.2237874,8.666666667,100,661.7121292,,0.165783414,47.656,41.215,47.697,51.28,46.962,0,1,1,7,1,0.026525991,-0.188879961,0.833228796,-0.023325624,-0.132464659,0.867124116,0.011857862,-0.161817472,0.868227635,3.505362202,4.194286043,0.79244365,0.814775454,5.028595,5.779739,4,4,High,1.683877382,1.187734939
10,4,0,0,Low,8,100,100,413.2961,,0.24195728,10,100,100,738.89935,,0.13533643,8,100,100,832.9409375,,0.120056532,300.0045,122.032,100,68.75,4,0,5,80,3,39.33394519,6,555.5657532,8.666666667,100,661.7121292,,0.165783414,23.336,32.405,36.05,35.85,31.91025,3.1337893,1,1,7,1,0.097516927,-0.273372569,0.813964398,0.013345934,-0.191643191,0.876036538,0.04506517,-0.213044973,0.870834433,3.545443668,4.076538614,0.777579653,0.802110276,5.297043,5.436584,4,4,High,0.841938691,1.187734939
10,5,0,0,Low,8,100,100,413.2961,,0.24195728,10,100,100,738.89935,,0.13533643,8,100,100,832.9409375,,0.120056532,300.0045,157.939,100,68.75,4,0,4,89,3,33.81052178,6,463.5086964,8.666666667,100,661.7121292,,0.165783414,44.011,37.563,45.729,33.789,40.273,2.483053162,1,1,7,1,0.088386152,-0.280693207,0.792516914,0.028802433,-0.193920726,0.868209528,0.065180761,-0.218092778,0.863642339,3.588751634,4.132707492,0.802720815,0.827115387,5.070648,5.440338,4,4,Low,0,1.187734939
10,6,0,0,Low,8,100,100,413.2961,,0.24195728,10,100,100,738.89935,,0.13533643,8,100,100,832.9409375,,0.120056532,300.0045,116.292,50,68.75,2,2,6,79,3,40.75946755,6,579.3244591,8.666666667,100,661.7121292,,0.165783414,35.674,26.463,26.263,31.959,30.08975,1.661695428,1,1,7,1,0.077888274,-0.235372558,0.817267051,0.001888214,-0.175702141,0.858406234,0.031187092,-0.202878774,0.855787874,3.410042099,4.068701765,0.806927753,0.830877082,4.792343,5.605515,4,4,High,1.683877382,1.187734939
10,7,0,0,Low,8,100,100,413.2961,,0.24195728,10,100,100,738.89935,,0.13533643,8,100,100,832.9409375,,0.120056532,300.0045,104.906,75,68.75,3,1,3,67,3,38.32001983,6,538.6669971,8.666666667,100,661.7121292,,0.165783414,23.709,18.714,31.996,33.694,27.02825,2.774874437,1,1,7,1,-0.087125728,-0.225644767,0.794597306,-0.089886261,-0.149957037,0.856368342,-0.058354053,-0.176147463,0.857107147,3.430160977,4.007182837,0.744842363,0.776847183,5.018784,5.484024,4,4,Low,-0.841938691,1.187734939
10,8,0,0,Low,8,100,100,413.2961,,0.24195728,10,100,100,738.89935,,0.13533643,8,100,100,832.9409375,,0.120056532,300.0045,138.315,75,68.75,3,1,4,79,3,34.269602,6,471.1600333,8.666666667,100,661.7121292,,0.165783414,26.845,26.144,47.689,37.637,34.57875,2.168962152,1,1,7,1,-0.021993739,-0.161631804,0.808520152,-0.054604693,-0.119317213,0.870156784,-0.021749697,-0.140829937,0.86641069,3.481440948,4.018170393,0.779830552,0.821368999,4.983551,5.553864,4,4,Low,0,1.187734939
15,1,0,0,Low,7,87.5,100,415.6692286,,0.210503915,10,100,100,482.19574,,0.207384661,8,100,96.875,677.1924125,834.154,0.147668518,300.0025,174.074,75,62.5,3,1,7,63,23,21.71490286,46,-52.79368944,8.333333333,95.83333333,525.019127,,0.188519031,50.619,18.801,39.916,37.218,36.6385,2.047027034,2,1,6,3,-0.094024193,-0.151915699,0.650315992,-0.108075156,-0.161483578,0.820026488,-0.082616715,-0.148293321,0.827431523,2.688888281,3.273406328,0.859961774,0.895071199,4.114914,4.456802,5,3.5,High,3.82043776,0.916125381
15,2,0,0,Low,7,87.5,100,415.6692286,,0.210503915,10,100,100,482.19574,,0.207384661,8,100,96.875,677.1924125,834.154,0.147668518,300.0025,105.143,50,62.5,2,2,8,43,23,24.53801014,46,-46.6564997,8.333333333,95.83333333,525.019127,,0.188519031,50.085,13.328,17.103,32.163,28.16975,1.774953629,2,1,6,3,-0.236912226,-0.04871327,0.808252508,-0.17030506,-0.096053614,0.87691363,-0.157710937,-0.082023701,0.883975438,2.829937466,3.29018826,0.86636346,0.891507184,3.925079,4.482498,5,3.5,High,4.911991406,0.916125381
15,3,0,0,Low,7,87.5,100,415.6692286,,0.210503915,10,100,100,482.19574,,0.207384661,8,100,96.875,677.1924125,834.154,0.147668518,300.0025,167.783,75,62.5,3,1,9,59,23,21.09868103,46,-54.1333021,8.333333333,95.83333333,525.019127,,0.188519031,47.267,31.154,43.05,50.22,42.92275,1.747325136,2,1,6,3,-0.190730553,-0.004110798,0.796967848,-0.174273641,-0.059853017,0.881809231,-0.15233288,-0.049743696,0.886143647,2.807892538,3.303011274,0.901096777,0.915738634,4.010498,4.486618,5,3.5,High,6.003545052,0.916125381
15,4,0,0,Low,7,87.5,100,415.6692286,,0.210503915,10,100,100,482.19574,,0.207384661,8,100,96.875,677.1924125,834.154,0.147668518,300.0025,127.36,100,62.5,4,0,7,68,23,32.03517588,46,-30.35831331,8.333333333,95.83333333,525.019127,,0.188519031,39.221,42.199,31.203,19.109,32.933,3.03646798,2,1,6,3,-0.084052215,-0.122187943,0.78322334,-0.116647208,-0.123114379,0.880880241,-0.093841935,-0.108649721,0.885581927,2.898328147,3.46580088,0.885867682,0.918835028,4.012375,4.655914,5,3.5,High,3.82043776,0.916125381
15,5,0,0,Low,7,87.5,100,415.6692286,,0.210503915,10,100,100,482.19574,,0.207384661,8,100,96.875,677.1924125,834.154,0.147668518,300.0025,151.724,75,62.5,3,1,9,43,23,17.00456091,46,-63.03356323,8.333333333,95.83333333,525.019127,,0.188519031,50.237,32.533,31.153,40.893,38.704,1.937784208,2,1,6,3,0.0215933,-0.036504497,0.802725723,-0.061902537,-0.079160537,0.89970184,-0.039916707,-0.063449501,0.902373593,2.951225499,3.541254033,0.924535877,0.934926453,4.250336,4.645981,5,3.5,High,6.003545052,0.916125381
15,6,0,0,Low,7,87.5,100,415.6692286,,0.210503915,10,100,100,482.19574,,0.207384661,8,100,96.875,677.1924125,834.154,0.147668518,300.0025,121.988,50,62.5,2,2,9,34,23,16.72295636,46,-63.64574705,8.333333333,95.83333333,525.019127,,0.188519031,11.323,36.599,25.606,51.003,31.13275,1.606025809,2,1,6,3,-0.089652932,-0.106210376,0.791844578,-0.098311805,-0.115407573,0.889776434,-0.086735289,-0.100326636,0.893586852,2.899458989,3.429346978,0.915305762,0.925932218,3.997696,4.462708,5,3.5,High,6.003545052,0.916125381
15,7,0,0,Low,7,87.5,100,415.6692286,,0.210503915,10,100,100,482.19574,,0.207384661,8,100,96.875,677.1924125,834.154,0.147668518,300.0025,129.425,25,62.5,1,3,9,55,23,25.49739231,46,-44.57088628,8.333333333,95.83333333,525.019127,,0.188519031,21.058,43.127,31.538,35.581,32.826,0.761591421,2,1,6,3,-0.23885572,-0.032385438,0.777602269,-0.179804296,-0.077333784,0.878509948,-0.16691379,-0.062586948,0.881381068,2.886702081,3.407244096,0.909844172,0.916936023,4.004593,4.415848,5,3.5,High,6.003545052,0.916125381
15,8,0,0,Low,7,87.5,100,415.6692286,,0.210503915,10,100,100,482.19574,,0.207384661,8,100,96.875,677.1924125,834.154,0.147668518,300.0025,126.256,50,62.5,2,2,9,47,23,22.33557217,46,-51.44440832,8.333333333,95.83333333,525.019127,,0.188519031,17.461,33.152,37.113,38.53,31.564,1.584083133,2,1,6,3,-0.146573853,-0.047659704,0.793292825,-0.148725868,-0.087631758,0.880677128,-0.128337102,-0.074839504,0.885623326,2.816782576,3.38733386,0.898501505,0.913552607,4.132767,4.462585,5,3.5,High,6.003545052,0.916125381
16,1,9,37.5,Low,8,100,100,493.83675,,0.202496068,9,90,100,545.0597,,0.165119527,8,100,100,511.578625,,0.195473374,300.006,132.405,75,68.75,3,1,3,71,12,32.17401156,24,34.05838148,8.333333333,96.66666667,516.825025,,0.187696323,22.014,17.746,39.093,19.004,24.46425,3.065697906,1,1,5,2,0.025072053,-0.21977244,0.768365598,0.015612515,-0.156922404,0.850808988,0.025684466,-0.163115127,0.854245967,3.308230562,3.821958769,0.931922882,0.949853414,4.6931,5.113861,3,3,Low,0,1.772810521
16,2,9,37.5,Low,8,100,100,493.83675,,0.202496068,9,90,100,545.0597,,0.165119527,8,100,100,511.578625,,0.195473374,300.006,54.614,100,68.75,4,0,2,27,12,29.66272384,24,23.59468268,8.333333333,96.66666667,516.825025,,0.187696323,20.013,9.213,12.41,17.602,14.8095,6.752422432,1,1,5,2,0.073053025,-0.221767461,0.886700706,0.029266234,-0.108576753,0.906802462,0.023818922,-0.129478066,0.9131194,3.789657737,4.233364994,0.958760831,0.966286383,4.643799,5.164566,3,3,Low,-0.564076075,1.772810521
16,3,9,37.5,Low,8,100,100,493.83675,,0.202496068,9,90,100,545.0597,,0.165119527,8,100,100,511.578625,,0.195473374,300.006,72.33,75,68.75,3,1,3,37,12,30.69265865,24,27.8860777,8.333333333,96.66666667,516.825025,,0.187696323,11.918,23.14,26.421,13.898,18.84425,3.979993897,1,1,5,2,0.0770444,-0.264050036,0.872923173,0.041929455,-0.124546859,0.913324015,0.035969817,-0.140645549,0.912577137,3.772591692,4.188674056,0.955182656,0.964199754,5.532227,5.137482,3,3,Low,0,1.772810521
16,4,9,37.5,Low,8,100,100,493.83675,,0.202496068,9,90,100,545.0597,,0.165119527,8,100,100,511.578625,,0.195473374,300.006,77.665,75,68.75,3,1,4,39,12,30.12940192,24,25.53917466,8.333333333,96.66666667,516.825025,,0.187696323,19.755,21.178,26.937,13.166,20.259,3.702058344,1,1,5,2,0.007372318,-0.325706839,0.83883368,0.025024805,-0.170696633,0.893626165,0.020705883,-0.186017081,0.894179733,3.808631472,4.247393451,0.942890146,0.953061125,4.6465,5.183655,3,3,High,0.564076075,1.772810521
16,5,9,37.5,Low,8,100,100,493.83675,,0.202496068,9,90,100,545.0597,,0.165119527,8,100,100,511.578625,,0.195473374,300.006,81.913,75,68.75,3,1,5,40,12,29.29937861,24,22.0807442,8.333333333,96.66666667,516.825025,,0.187696323,24.391,27.453,16.792,15.947,21.14575,3.546812007,1,1,5,2,0.102915645,-0.27536737,0.855823087,0.046291374,-0.145789125,0.900475409,0.043976844,-0.164844456,0.903498531,3.778562705,4.252246504,0.951299248,0.9564361,6.038132,5.251297,3,3,High,1.12815215,1.772810521
16,6,9,37.5,Low,8,100,100,493.83675,,0.202496068,9,90,100,545.0597,,0.165119527,8,100,100,511.578625,,0.195473374,300.006,60.606,75,68.75,3,1,6,29,12,28.71002871,24,19.62511963,8.333333333,96.66666667,516.825025,,0.187696323,13.787,18.877,15.131,17.176,16.24275,4.617444706,1,1,5,2,0.101807635,-0.234840218,0.86847685,0.047250254,-0.128268365,0.90372874,0.039304368,-0.145474939,0.902875744,3.67879714,4.111919108,0.944228381,0.949000947,4.526306,5.158417,3,3,High,1.692228224,1.772810521
16,7,9,37.5,Low,8,100,100,493.83675,,0.202496068,9,90,100,545.0597,,0.165119527,8,100,100,511.578625,,0.195473374,300.006,59.151,75,68.75,3,1,6,35,12,35.50235837,24,47.92649321,8.333333333,96.66666667,516.825025,,0.187696323,9.222,11.629,25.055,15.524,15.3575,4.883607358,1,1,5,2,-0.021249878,-0.235499194,0.853833653,-0.014382585,-0.117472977,0.889350231,-0.018307967,-0.137052371,0.888441513,3.606408317,4.016807089,0.938934439,0.938014077,4.513962,4.963318,3,3,High,1.692228224,1.772810521
16,8,9,37.5,Low,8,100,100,493.83675,,0.202496068,9,90,100,545.0597,,0.165119527,8,100,100,511.578625,,0.195473374,300.006,61.825,0,68.75,0,4,7,32,12,31.0553983,24,29.39749292,8.333333333,96.66666667,516.825025,,0.187696323,23.922,4.207,9.218,24.478,15.45625,0,1,1,5,2,0.072513542,-0.186193889,0.827859013,0.020982016,-0.107746526,0.884822421,0.026493917,-0.124119513,0.882208868,3.524920661,3.949557624,0.90430985,0.891782597,5.356537,5.146606,3,3,High,2.256304299,1.772810521
20,1,11,45.83,High,8,100,71.875,552.762125,378.0111778,0.180909645,9,90,100,470.9427556,,0.191106029,4,50,96.875,882.451275,1376.9507,0.056660352,300.007,184.244,75,75,3,1,4,188,19,61.22316059,38,61.1135805,7,80,635.3853852,,0.142892009,24.555,35.677,46.91,28.273,33.85375,2.215411882,3,2,8,1,-0.033779194,-0.190298205,0.562708416,-0.027692769,-0.153579037,0.736142612,-0.02314543,-0.118069398,0.47225816,2.333280672,1.182929239,0.1974863,0.471071596,4.860474,5.090881,8,5,Low,-1.932183566,0.51754917
20,2,11,45.83,High,8,100,71.875,552.762125,378.0111778,0.180909645,9,90,100,470.9427556,,0.191106029,4,50,96.875,882.451275,1376.9507,0.056660352,300.007,124.048,100,75,4,0,4,142,19,68.68309042,38,80.74497478,7,80,635.3853852,,0.142892009,29.366,30.412,22.423,44.834,31.75875,3.148738537,3,2,8,1,-0.067956557,-0.114374562,0.560770555,-0.057375689,-0.085975758,0.713193582,-0.067198801,-0.038685847,0.433097026,2.412298611,1.044749561,0.184697803,0.495146534,5.089142,5.165222,8,5,Low,-1.932183566,0.51754917
20,3,11,45.83,High,8,100,71.875,552.762125,378.0111778,0.180909645,9,90,100,470.9427556,,0.191106029,4,50,96.875,882.451275,1376.9507,0.056660352,300.007,122.941,75,75,3,1,4,175,19,85.40682116,38,124.7547925,7,80,635.3853852,,0.142892009,31.187,30.441,30.209,33.395,31.308,2.395553852,3,2,8,1,-0.012956836,-0.110133882,0.578130334,-0.004157467,-0.093115907,0.768061656,-0.038379586,-0.031806595,0.401710441,2.809051327,0.917881438,0.186610233,0.52326003,5.377609,5.104996,8,5,Low,-1.932183566,0.51754917
20,4,11,45.83,High,8,100,71.875,552.762125,378.0111778,0.180909645,9,90,100,470.9427556,,0.191106029,4,50,96.875,882.451275,1376.9507,0.056660352,300.007,109.717,75,75,3,1,4,135,19,73.82629857,38,94.27973307,7,80,635.3853852,,0.142892009,43.703,20.479,31.252,16.144,27.8945,2.688702074,3,2,8,1,-0.027205754,-0.127953268,0.615383682,-0.028792952,-0.098017183,0.803095737,-0.040682693,-0.051831714,0.437947706,2.910957885,1.151143407,0.207581388,0.59094813,5.23996,5.404602,8,5,Low,-1.932183566,0.51754917
20,5,11,45.83,High,8,100,71.875,552.762125,378.0111778,0.180909645,9,90,100,470.9427556,,0.191106029,4,50,96.875,882.451275,1376.9507,0.056660352,300.007,121.2,50,75,2,2,5,103,19,50.99009901,38,34.18447108,7,80,635.3853852,,0.142892009,35.3,21.323,22.478,43.903,30.751,1.625963383,3,2,8,1,-0.054777745,-0.114701422,0.700889958,-0.069795768,-0.081988296,0.809436101,-0.057520738,-0.039167128,0.607301305,2.958055613,2.007159912,0.32640984,0.639525118,5.168182,5.412811,8,5,Low,0,0.51754917
20,6,11,45.83,High,8,100,71.875,552.762125,378.0111778,0.180909645,9,90,100,470.9427556,,0.191106029,4,50,96.875,882.451275,1376.9507,0.056660352,300.007,95.935,50,75,2,2,5,136,19,85.05759108,38,123.835766,7,80,635.3853852,,0.142892009,17.268,29.155,19.535,31.608,24.3915,2.04989443,3,2,8,1,-0.075231039,-0.143082676,0.623601242,-0.055388347,-0.109082982,0.769759796,-0.05734688,-0.064728588,0.496335147,2.815047407,1.443676209,0.288628316,0.621657159,5.106186,5.451599,8,5,Low,0,0.51754917
20,7,11,45.83,High,8,100,71.875,552.762125,378.0111778,0.180909645,9,90,100,470.9427556,,0.191106029,4,50,96.875,882.451275,1376.9507,0.056660352,300.007,121.58,100,75,4,0,4,161,19,79.45385754,38,109.0890988,7,80,635.3853852,,0.142892009,25.829,33.357,42.413,23.61,31.30225,3.194658531,3,2,8,1,-0.075543516,-0.133348773,0.65555406,-0.026296433,-0.103165569,0.793374681,-0.05406108,-0.053828309,0.535874225,2.888393627,1.657954808,0.274168285,0.62483522,5.035019,5.332016,8,5,Low,-1.932183566,0.51754917
20,8,11,45.83,High,8,100,71.875,552.762125,378.0111778,0.180909645,9,90,100,470.9427556,,0.191106029,4,50,96.875,882.451275,1376.9507,0.056660352,300.007,131.64,75,75,3,1,5,140,19,63.81039198,38,67.92208415,7,80,635.3853852,,0.142892009,15.882,31.363,42.259,42.136,32.91,2.278942571,3,2,8,1,-0.092865917,-0.118040112,0.607666376,-0.0736047,-0.09535686,0.757758918,-0.047960558,-0.048927815,0.495701935,2.774571779,1.425636477,0.282603962,0.537246147,5.318848,5.440948,8,5,Low,0,0.51754917
21,1,14,58.33,High,8,100,100,467.178425,,0.214050981,9,90,100,378.0194,,0.238083019,8,100,93.75,488.458475,443.8682,0.204725693,300.003,123.909,100,78.125,4,0,1,54,14,26.14822168,28,-6.613494004,8.333333333,96.66666667,444.5521,,0.218953231,35.807,19.556,22.582,26.895,26.21,3.815337657,1,1,6,1,-0.159850443,-0.027241355,0.827871302,-0.111090868,-0.044006224,0.876006947,-0.103366955,-0.050563768,0.881171458,2.968973912,2.997518832,0.932138336,0.927595081,4.235703,4.202225,6,3.5,Low,-1.207614729,2.070196678
21,2,14,58.33,High,8,100,100,467.178425,,0.214050981,9,90,100,378.0194,,0.238083019,8,100,93.75,488.458475,443.8682,0.204725693,300.003,89.47,100,78.125,4,0,2,37,14,24.81278641,28,-11.38290568,8.333333333,96.66666667,444.5521,,0.218953231,26.937,26.645,17.868,21.166,23.154,4.31890818,1,1,6,1,-0.086978046,-0.110485194,0.869313083,-0.069940415,-0.105982092,0.895124538,-0.056061445,-0.106014718,0.899722971,3.18751955,3.141460655,0.927093009,0.917531608,4.515259,4.051071,6,3.5,Low,-0.724568837,2.070196678
21,3,14,58.33,High,8,100,100,467.178425,,0.214050981,9,90,100,378.0194,,0.238083019,8,100,93.75,488.458475,443.8682,0.204725693,300.003,69.543,100,78.125,4,0,2,32,14,27.60881757,28,-1.397080121,8.333333333,96.66666667,444.5521,,0.218953231,18.299,24.427,14.689,15.142,18.13925,5.512907094,1,1,6,1,-0.001194292,-0.085380955,0.878280906,-0.012450539,-0.106585875,0.912141892,0.003044944,-0.107215414,0.917845912,3.235485477,3.205740524,0.944314899,0.930172684,4.060623,3.979996,6,3.5,Low,-0.724568837,2.070196678
21,4,14,58.33,High,8,100,100,467.178425,,0.214050981,9,90,100,378.0194,,0.238083019,8,100,93.75,488.458475,443.8682,0.204725693,300.003,73.786,75,78.125,3,1,2,23,14,18.70273494,28,-33.20451809,8.333333333,96.66666667,444.5521,,0.218953231,17.798,22.692,17.623,18.015,19.032,3.9407314,1,1,6,1,0.037729932,-0.109125594,0.895323646,0.016262379,-0.121099832,0.9262782,0.034803046,-0.121078695,0.928730175,3.357491623,3.32175232,0.949343043,0.944877524,4.16925,4.100555,6,3.5,Low,-0.724568837,2.070196678
21,5,14,58.33,High,8,100,100,467.178425,,0.214050981,9,90,100,378.0194,,0.238083019,8,100,93.75,488.458475,443.8682,0.204725693,300.003,98.087,25,78.125,1,3,5,41,14,25.07977612,28,-10.42937101,8.333333333,96.66666667,444.5521,,0.218953231,29.833,7.905,32.674,29.941,25.08825,0.996482417,1,1,6,1,0.116195027,-0.119313511,0.862340717,0.036751536,-0.125347991,0.907841897,0.054894938,-0.12318337,0.911909984,3.317441821,3.247147836,0.940136439,0.934865742,4.302139,4.31424,6,3.5,High,0.724568837,2.070196678
21,6,14,58.33,High,8,100,100,467.178425,,0.214050981,9,90,100,378.0194,,0.238083019,8,100,93.75,488.458475,443.8682,0.204725693,300.003,73.023,75,78.125,3,1,5,36,14,29.57972146,28,5.641862349,8.333333333,96.66666667,444.5521,,0.218953231,17.309,18.775,18.162,20.647,18.72325,4.00571482,1,1,6,1,-0.056298994,-0.071229949,0.879313079,-0.032353557,-0.091687447,0.913611836,-0.015135998,-0.089939103,0.918649797,3.306217666,3.227063274,0.934231545,0.927998754,4.168091,4.070557,6,3.5,High,0.724568837,2.070196678
21,7,14,58.33,High,8,100,100,467.178425,,0.214050981,9,90,100,378.0194,,0.238083019,8,100,93.75,488.458475,443.8682,0.204725693,300.003,74.528,100,78.125,4,0,4,31,14,24.95706312,28,-10.86763172,8.333333333,96.66666667,444.5521,,0.218953231,13.2,19.919,20.812,24.162,19.52325,5.122098011,1,1,6,1,-0.074281063,-0.104716141,0.867483467,-0.041017401,-0.106911018,0.901116839,-0.024442183,-0.103663448,0.905167354,3.291686037,3.206905318,0.934867323,0.92336193,4.290649,4.22644,6,3.5,High,0.241522946,2.070196678
21,8,14,58.33,High,8,100,100,467.178425,,0.214050981,9,90,100,378.0194,,0.238083019,8,100,93.75,488.458475,443.8682,0.204725693,300.003,90.414,50,78.125,2,2,7,42,14,27.87178977,28,-0.457893689,8.333333333,96.66666667,444.5521,,0.218953231,20.746,24.8,20.957,23.911,22.6035,2.212046807,1,1,6,1,-0.020831933,-0.10187089,0.850129593,-0.033958445,-0.11054242,0.896996328,-0.016046665,-0.110396149,0.900989093,3.346656395,3.234322363,0.930403764,0.927303666,4.450119,4.312286,6,3.5,High,1.69066062,2.070196678
22,1,14,58.33,High,8,100,100,415.093075,,0.240909825,10,100,100,384.19541,,0.260284213,8,100,100,416.1763625,,0.240282748,300.008,71.298,50,87.5,2,2,4,15,3,12.62307498,6,110.384583,8.666666667,100,405.1549492,,0.247158929,21.609,11.972,20.663,16.261,17.62625,2.83667825,1,2,5,1,-0.039216948,-0.103633628,0.904788014,-0.03304863,0.00304738,0.931486704,-0.031314799,0.006126735,0.929510256,3.266401163,3.341717263,0.976492154,0.977120245,4.415314,4.434738,5,3.5,High,0.540061725,0.9258201
22,2,14,58.33,High,8,100,100,415.093075,,0.240909825,10,100,100,384.19541,,0.260284213,8,100,100,416.1763625,,0.240282748,300.008,63.481,100,87.5,4,0,4,12,3,11.34197634,6,89.03293899,8.666666667,100,405.1549492,,0.247158929,24.037,12.15,11.093,19.422,16.6755,5.996821685,1,2,5,1,-0.038063796,-0.221462114,0.87998374,-0.033283761,-0.063841335,0.920113421,-0.026042763,-0.059171992,0.918354329,3.341032641,3.434494562,0.974447393,0.973726901,4.166595,4.519516,5,3.5,High,0.540061725,0.9258201
22,3,14,58.33,High,8,100,100,415.093075,,0.240909825,10,100,100,384.19541,,0.260284213,8,100,100,416.1763625,,0.240282748,300.008,74.9,100,87.5,4,0,4,13,3,10.41388518,6,73.564753,8.666666667,100,405.1549492,,0.247158929,17.08,25.624,19.033,16.74,19.61925,5.0970348,1,2,5,1,-0.081289739,-0.316155449,0.872937918,-0.087187259,-0.117964602,0.922599351,-0.083705143,-0.11506107,0.918533364,3.604649711,3.728987766,0.965888621,0.973210212,4.440704,4.607071,5,3.5,High,0.540061725,0.9258201
22,4,14,58.33,High,8,100,100,415.093075,,0.240909825,10,100,100,384.19541,,0.260284213,8,100,100,416.1763625,,0.240282748,300.008,56.416,100,87.5,4,0,3,16,3,17.01644923,6,183.6074872,8.666666667,100,405.1549492,,0.247158929,17.561,14.225,17.135,10.527,14.862,6.728569506,1,2,5,1,-0.030827783,-0.313356217,0.850992009,-0.042421047,-0.120507438,0.90564356,-0.040061617,-0.116352369,0.902866718,3.530142022,3.650464405,0.965451563,0.965977958,4.481934,4.882141,5,3.5,Low,-0.540061725,0.9258201
22,5,14,58.33,High,8,100,100,415.093075,,0.240909825,10,100,100,384.19541,,0.260284213,8,100,100,416.1763625,,0.240282748,300.008,74.991,100,87.5,4,0,5,16,3,12.80153618,6,113.3589364,8.666666667,100,405.1549492,,0.247158929,15.048,26.479,18.317,19.387,19.80775,5.048528985,1,2,5,1,0.040721125,-0.29219185,0.866906832,0.014308195,-0.101301104,0.923021659,0.019883801,-0.090541801,0.918899174,3.520263698,3.615007127,0.931042292,0.951131986,4.794968,5.355881,5,3.5,High,1.620185175,0.9258201
22,6,14,58.33,High,8,100,100,415.093075,,0.240909825,10,100,100,384.19541,,0.260284213,8,100,100,416.1763625,,0.240282748,300.008,65.973,75,87.5,3,1,5,14,3,12.73248147,6,112.2080245,8.666666667,100,405.1549492,,0.247158929,9.151,22.212,22.583,19.447,18.34825,4.087583285,1,2,5,1,0.048910646,-0.392678486,0.848217712,0.035374192,-0.167567433,0.923895703,0.043394236,-0.153583478,0.918803673,3.727008432,3.848110234,0.968264298,0.974075014,5.047638,4.767853,5,3.5,High,1.620185175,0.9258201
22,7,14,58.33,High,8,100,100,415.093075,,0.240909825,10,100,100,384.19541,,0.260284213,8,100,100,416.1763625,,0.240282748,300.008,73.777,75,87.5,3,1,6,22,3,17.89175488,6,198.1959147,8.666666667,100,405.1549492,,0.247158929,11.745,10.175,34.604,19.758,19.0705,3.932775753,1,2,5,1,0.058784286,-0.385884216,0.832345273,0.041219873,-0.171071065,0.910950948,0.053988655,-0.149674717,0.905206662,3.583141193,3.675030378,0.897695166,0.930710235,5.051361,5.355118,5,3.5,High,2.700308624,0.9258201
22,8,14,58.33,High,8,100,100,415.093075,,0.240909825,10,100,100,384.19541,,0.260284213,8,100,100,416.1763625,,0.240282748,300.008,87.131,100,87.5,4,0,5,23,3,15.83822061,6,163.9703435,8.666666667,100,405.1549492,,0.247158929,17.564,18.064,20.671,30.832,21.78275,4.590788583,1,2,5,1,-0.027245715,-0.306458159,0.860512511,-0.021656499,-0.10759017,0.925833092,-0.00796973,-0.095211805,0.920859313,3.54516119,3.664916622,0.896064281,0.92213015,5.410034,5.759201,5,3.5,High,1.620185175,0.9258201
23,1,22,91.67,High,8,100,100,406.8845,,0.245769991,9,90,100,518.1873667,,0.173682351,8,100,96.875,520.1505625,914.4311,0.192252027,300.0034,112.832,75,84.375,3,1,3,79,8,42.00935905,16,162.558494,8.333333333,96.66666667,481.7408097,,0.203901456,48.193,16.948,16.981,17.602,24.931,3.008302916,4,2,6,1,0.185880534,-0.166831443,0.728425482,0.092394352,-0.065449671,0.837103314,0.104850411,-0.068228838,0.838829497,3.863554979,3.828817032,0.886191758,0.886247608,5.520233,5.54541,6,4,Low,-0.664036808,1.505940617
23,2,22,91.67,High,8,100,100,406.8845,,0.245769991,9,90,100,518.1873667,,0.173682351,8,100,96.875,520.1505625,914.4311,0.192252027,300.0034,54.565,100,84.375,4,0,3,48,8,52.78108678,16,229.8817924,8.333333333,96.66666667,481.7408097,,0.203901456,16.947,15.912,7.579,20.166,15.151,6.600224408,4,2,6,1,0.122145458,-0.259979903,0.750409512,0.064333296,-0.100441454,0.833510122,0.071879846,-0.114325781,0.835199326,3.924013209,3.882568154,0.882175338,0.891710574,5.607803,5.574753,6,4,Low,-0.664036808,1.505940617
23,3,22,91.67,High,8,100,100,406.8845,,0.245769991,9,90,100,518.1873667,,0.173682351,8,100,96.875,520.1505625,914.4311,0.192252027,300.0034,67.072,75,84.375,3,1,4,70,8,62.61927481,16,291.3704676,8.333333333,96.66666667,481.7408097,,0.203901456,25.501,15.725,15.195,21.785,19.5515,3.836022812,4,2,6,1,0.055599621,-0.182568923,0.768904983,0.036513885,-0.067509233,0.834436253,0.040625856,-0.082017473,0.83561152,3.863023422,3.810807234,0.880551072,0.885817631,5.500946,5.388062,6,4,Low,0,1.505940617
23,4,22,91.67,High,8,100,100,406.8845,,0.245769991,9,90,100,518.1873667,,0.173682351,8,100,96.875,520.1505625,914.4311,0.192252027,300.0034,62.588,100,84.375,4,0,4,61,8,58.47766345,16,265.4853966,8.333333333,96.66666667,481.7408097,,0.203901456,18.175,13.855,18.291,17.396,16.92925,5.90693622,4,2,6,1,0.06454812,-0.252042343,0.742393763,0.046249166,-0.110451117,0.822014334,0.049156885,-0.125684925,0.824246271,3.904694838,3.867146961,0.891128348,0.89391393,5.587097,5.546387,6,4,Low,0,1.505940617
23,5,22,91.67,High,8,100,100,406.8845,,0.245769991,9,90,100,518.1873667,,0.173682351,8,100,96.875,520.1505625,914.4311,0.192252027,300.0034,81.748,50,84.375,2,2,6,70,8,51.37740373,16,221.1087733,8.333333333,96.66666667,481.7408097,,0.203901456,18.666,22.912,15.72,38.91,24.052,2.078829203,4,2,6,1,0.130189593,-0.219706512,0.74367736,0.079890645,-0.099937621,0.821093423,0.078978736,-0.113351736,0.823532407,3.926259177,3.903106082,0.888845851,0.883175344,5.707932,5.652863,6,4,High,1.328073615,1.505940617
23,6,22,91.67,High,8,100,100,406.8845,,0.245769991,9,90,100,518.1873667,,0.173682351,8,100,96.875,520.1505625,914.4311,0.192252027,300.0034,61.039,100,84.375,4,0,4,62,8,60.94464195,16,280.9040122,8.333333333,96.66666667,481.7408097,,0.203901456,14.96,12.222,15.299,24.766,16.81175,5.948220738,4,2,6,1,0.10953921,-0.266692819,0.744487225,0.070294709,-0.121203475,0.832373381,0.075029461,-0.137565081,0.8340274,4.053107316,3.988251652,0.876061861,0.890748895,5.650146,5.531281,6,4,Low,0,1.505940617
23,7,22,91.67,High,8,100,100,406.8845,,0.245769991,9,90,100,518.1873667,,0.173682351,8,100,96.875,520.1505625,914.4311,0.192252027,300.0034,115.628,100,84.375,4,0,6,97,8,50.33382918,16,214.5864324,8.333333333,96.66666667,481.7408097,,0.203901456,14.397,29.816,46.181,40.413,32.70175,3.057940324,4,2,6,1,0.076305791,-0.253000444,0.749940569,0.048145755,-0.118848119,0.839807802,0.050336221,-0.133448546,0.840726894,4.156081938,4.116474526,0.871366626,0.886673285,5.83757,5.687775,6,4,High,1.328073615,1.505940617
23,8,22,91.67,High,8,100,100,406.8845,,0.245769991,9,90,100,518.1873667,,0.173682351,8,100,96.875,520.1505625,914.4311,0.192252027,300.0034,90.54,75,84.375,3,1,7,72,8,47.71371769,16,198.2107356,8.333333333,96.66666667,481.7408097,,0.203901456,21.395,10.561,20.503,38.081,22.635,3.313452618,4,2,6,1,0.092982924,-0.222638129,0.768290898,0.058143161,-0.097849138,0.847316208,0.058252262,-0.113447774,0.84957563,4.261147765,4.180048813,0.87059216,0.896722372,5.780853,5.825226,6,4,High,1.992110423,1.505940617
24,1,12,50,High,8,100,96.875,440.2261875,441.9396,0.227155955,9,90,100,516.1156778,,0.174379512,7,87.5,96.875,669.2694143,1414.0589,0.130739577,300.0106,86.756,75,90.625,3,1,4,15,7,10.37392226,14,-25.90055525,8,92.5,541.8704265,,0.177425015,38.091,12.911,14.188,27.71,23.225,3.229278794,3,1,6,3,-0.124148675,-0.313140435,0.845081394,-0.115448054,-0.165230375,0.91866344,-0.098331006,-0.171035241,0.923740624,3.944378077,4.12570393,0.95246275,0.93723057,5.393799,5.386978,3,3.5,High,0.661437828,0.755928946
24,2,12,50,High,8,100,96.875,440.2261875,441.9396,0.227155955,9,90,100,516.1156778,,0.174379512,7,87.5,96.875,669.2694143,1414.0589,0.130739577,300.0106,56.185,100,90.625,4,0,3,10,7,10.67900685,14,-23.72137963,8,92.5,541.8704265,,0.177425015,15.942,11.671,15.698,17.117,15.107,6.619447938,3,1,6,3,-0.131898813,-0.324772138,0.867955245,-0.110750408,-0.16766305,0.922076067,-0.098550124,-0.177212188,0.928164871,4.149864319,4.346746063,0.964364791,0.955603814,5.020264,5.384644,3,3.5,Low,-0.661437828,0.755928946
24,3,12,50,High,8,100,96.875,440.2261875,441.9396,0.227155955,9,90,100,516.1156778,,0.174379512,7,87.5,96.875,669.2694143,1414.0589,0.130739577,300.0106,71.425,100,90.625,4,0,4,18,7,15.12075604,14,8.00540027,8,92.5,541.8704265,,0.177425015,24.782,25.595,11.316,14.783,19.119,5.230399079,3,1,6,3,-0.153815456,-0.295836161,0.879628122,-0.123804203,-0.141679604,0.93155731,-0.112193397,-0.148015697,0.934842801,4.284566159,4.502546987,0.957454817,0.94227867,5.375534,5.866623,3,3.5,High,0.661437828,0.755928946
24,4,12,50,High,8,100,96.875,440.2261875,441.9396,0.227155955,9,90,100,516.1156778,,0.174379512,7,87.5,96.875,669.2694143,1414.0589,0.130739577,300.0106,76.058,75,90.625,3,1,5,12,7,9.466459807,14,-32.38242995,8,92.5,541.8704265,,0.177425015,19.247,19.058,23.057,18.645,20.00175,3.749671904,3,1,6,3,-0.16092371,-0.33153207,0.862574878,-0.13292743,-0.165808762,0.929372809,-0.122247555,-0.175852959,0.931231677,4.298165887,4.514864875,0.969941972,0.966804982,5.190338,6.179047,3,3.5,High,1.984313483,0.755928946
24,5,12,50,High,8,100,96.875,440.2261875,441.9396,0.227155955,9,90,100,516.1156778,,0.174379512,7,87.5,96.875,669.2694143,1414.0589,0.130739577,300.0106,84.278,100,90.625,4,0,5,15,7,10.6789435,14,-23.72183217,8,92.5,541.8704265,,0.177425015,18.452,23.118,21.357,24.55,21.86925,4.57263052,3,1,6,3,-0.085838536,-0.348889382,0.8550354,-0.076347791,-0.175912926,0.925408457,-0.071277133,-0.185343824,0.932442579,4.367628169,4.646515938,0.953563367,0.942948395,5.517502,6.148422,3,3.5,High,1.984313483,0.755928946
24,6,12,50,High,8,100,96.875,440.2261875,441.9396,0.227155955,9,90,100,516.1156778,,0.174379512,7,87.5,96.875,669.2694143,1414.0589,0.130739577,300.0106,68.546,75,90.625,3,1,5,13,7,11.37921979,14,-18.71985861,8,92.5,541.8704265,,0.177425015,17.358,21.041,12.61,21.031,18.01,4.164353137,3,1,6,3,-0.125618893,-0.345418944,0.854414821,-0.120564264,-0.16923213,0.929393711,-0.113745341,-0.176612541,0.932109019,4.25143873,4.518089729,0.965432175,0.959383529,5.215195,5.493073,3,3.5,High,1.984313483,0.755928946
24,7,12,50,High,8,100,96.875,440.2261875,441.9396,0.227155955,9,90,100,516.1156778,,0.174379512,7,87.5,96.875,669.2694143,1414.0589,0.130739577,300.0106,102.397,100,90.625,4,0,5,14,7,8.203365333,14,-41.40453334,8,92.5,541.8704265,,0.177425015,29.625,21.522,32.359,23.888,26.8485,3.724602864,3,1,6,3,-0.17655099,-0.360994925,0.850076742,-0.132974874,-0.166597767,0.927254951,-0.131931247,-0.179717499,0.927415631,4.475294454,4.712638381,0.965211818,0.958667689,6.017548,5.983307,3,3.5,High,1.984313483,0.755928946
24,8,12,50,High,8,100,96.875,440.2261875,441.9396,0.227155955,9,90,100,516.1156778,,0.174379512,7,87.5,96.875,669.2694143,1414.0589,0.130739577,300.0106,96.826,100,90.625,4,0,5,14,7,8.675355793,14,-38.03317291,8,92.5,541.8704265,,0.177425015,18.319,22.407,28.093,28.007,24.2065,4.131121806,3,1,6,3,-0.194027657,-0.354060247,0.8286309,-0.141012326,-0.164705706,0.926864745,-0.138774126,-0.177444311,0.924862637,4.410157659,4.66041667,0.973028965,0.969339975,5.29068,5.717972,3,3.5,High,1.984313483,0.755928946
25,1,6,25,Low,8,100,100,447.3996875,,0.22351379,10,100,100,539.30505,,0.185423815,8,100,93.75,691.9474875,813.4975,0.144519637,300.0051,70.144,75,84.375,3,1,6,21,12,17.96304745,24,-25.15396898,8.666666667,100,559.5507417,,0.184485748,14.176,9.767,13.956,14.093,12.998,5.77011848,1,1,6,2,0.049329277,-0.089547241,0.820932379,-0.009969345,-0.036332992,0.906993806,0.007756953,-0.027330306,0.910036376,3.587321381,3.609881602,0.918355341,0.890762794,5.068481,5.45665,5,3.5,High,2.357022604,1.060660172
25,2,6,25,Low,8,100,100,447.3996875,,0.22351379,10,100,100,539.30505,,0.185423815,8,100,93.75,691.9474875,813.4975,0.144519637,300.0051,90.673,100,84.375,4,0,6,22,12,14.55780662,24,-39.3424724,8.666666667,100,559.5507417,,0.184485748,28.51,21.023,13.971,31.391,23.72375,4.215185205,1,1,6,2,0.184597664,-0.296338638,0.813535672,0.048506455,-0.15089099,0.924899798,0.060443585,-0.139901957,0.923965241,4.130177567,4.141795628,0.94145309,0.9391231,5.539932,6.416397,5,3.5,High,2.357022604,1.060660172
25,3,6,25,Low,8,100,100,447.3996875,,0.22351379,10,100,100,539.30505,,0.185423815,8,100,93.75,691.9474875,813.4975,0.144519637,300.0051,110.545,100,84.375,4,0,7,40,12,21.71061559,24,-9.539101723,8.666666667,100,559.5507417,,0.184485748,24.285,23.867,40.579,24.736,28.36675,3.525254039,1,1,6,2,-0.048880224,-0.262931135,0.832333699,-0.066795565,-0.119033172,0.919857098,-0.053931066,-0.111411498,0.925853741,3.90731653,3.923963201,0.931200018,0.923364753,5.445892,5.904007,5,3.5,High,3.299831646,1.060660172
25,4,6,25,Low,8,100,100,447.3996875,,0.22351379,10,100,100,539.30505,,0.185423815,8,100,93.75,691.9474875,813.4975,0.144519637,300.0051,67.963,100,84.375,4,0,5,26,12,22.95366597,24,-4.359725145,8.666666667,100,559.5507417,,0.184485748,15.668,10.231,33.962,13.578,18.35975,5.446697259,1,1,6,2,0.097722255,-0.350587554,0.80969132,-0.000628127,-0.18139092,0.921070395,0.009171399,-0.171600902,0.922119356,4.049489628,4.076054364,0.935875582,0.926496309,5.435287,5.49173,5,3.5,High,1.414213562,1.060660172
25,5,6,25,Low,8,100,100,447.3996875,,0.22351379,10,100,100,539.30505,,0.185423815,8,100,93.75,691.9474875,813.4975,0.144519637,300.0051,61.661,75,84.375,3,1,7,14,12,13.62287345,24,-43.23802728,8.666666667,100,559.5507417,,0.184485748,7.519,13.006,14.303,30.898,16.4315,4.564403737,1,1,6,2,0.136916689,-0.254841136,0.809994607,0.038901638,-0.125821377,0.919876781,0.05188782,-0.118256594,0.924251557,3.850322478,3.896550264,0.939823653,0.930955032,5.307556,5.190018,5,3.5,High,3.299831646,1.060660172
25,6,6,25,Low,8,100,100,447.3996875,,0.22351379,10,100,100,539.30505,,0.185423815,8,100,93.75,691.9474875,813.4975,0.144519637,300.0051,84.55,100,84.375,4,0,5,33,12,23.4180958,24,-2.424600828,8.666666667,100,559.5507417,,0.184485748,12.26,23.058,15.658,39.97,22.7365,4.398214325,1,1,6,2,0.039659632,-0.314138049,0.808660693,-0.013930681,-0.16131935,0.905807846,-0.001963768,-0.15247748,0.910575093,3.871497978,3.914512155,0.930923194,0.924985566,5.537827,5.586655,5,3.5,High,1.414213562,1.060660172
25,7,6,25,Low,8,100,100,447.3996875,,0.22351379,10,100,100,539.30505,,0.185423815,8,100,93.75,691.9474875,813.4975,0.144519637,300.0051,61.828,75,84.375,3,1,7,29,12,28.14258912,24,17.26078799,8.666666667,100,559.5507417,,0.184485748,9.512,15.568,20.182,19.73,16.248,4.615952733,1,1,6,2,0.077739552,-0.291176568,0.836631644,-0.014542125,-0.154190488,0.917878472,-0.006283281,-0.147481182,0.922546755,4.037063286,4.14310351,0.921555677,0.912218504,5.458313,5.408463,5,3.5,High,3.299831646,1.060660172
25,8,6,25,Low,8,100,100,447.3996875,,0.22351379,10,100,100,539.30505,,0.185423815,8,100,93.75,691.9474875,813.4975,0.144519637,300.0051,57.353,50,84.375,2,2,8,16,12,16.73844437,24,-30.25648179,8.666666667,100,559.5507417,,0.184485748,12.8,10.723,14.461,19.369,14.33825,3.487175911,1,1,6,2,0.076705894,-0.24244724,0.865038042,-0.004335696,-0.125378855,0.929766105,0.007140003,-0.11865922,0.935783038,3.892233407,3.976789409,0.934724095,0.921738964,5.597031,5.350937,5,3.5,High,4.242640687,1.060660172
26,1,3,12.5,Low,5,62.5,96.875,850.3047,681.4744,0.073503063,1,10,96.66666667,522.8373,707.8524,0.019126409,1,12.5,93.75,601.3781,529.6898,0.020785592,300.0052,92.708,50,59.375,2,2,5,59,23,38.18440696,46,-16.99041966,2.333333333,28.33333333,658.1733667,639.6722,0.037805021,15.445,9.339,26.188,15.072,16.511,3.028284174,6,2,8,9,-0.088667526,-0.178118765,0.689984649,-0.096789255,-0.021154316,0.766524464,-0.0953368,-0.013825549,0.732443137,2.385481901,2.319431115,0.662054686,0.791156055,4.932724,4.966492,4,5,Low,0,1.552647509
26,2,3,12.5,Low,5,62.5,96.875,850.3047,681.4744,0.073503063,1,10,96.66666667,522.8373,707.8524,0.019126409,1,12.5,93.75,601.3781,529.6898,0.020785592,300.0052,36.304,75,59.375,3,1,4,18,23,29.74878801,46,-35.32872171,2.333333333,28.33333333,658.1733667,639.6722,0.037805021,12.517,7.15,9.917,11.245,10.20725,7.347718533,6,2,8,9,-0.174491,-0.348120081,0.82227206,-0.156989855,-0.102209556,0.916478958,-0.159757244,-0.095314998,0.890644924,2.9582394,2.992730742,0.877504278,0.914749457,4.712753,4.506714,4,5,Low,-0.644061189,1.552647509
26,3,3,12.5,Low,5,62.5,96.875,850.3047,681.4744,0.073503063,1,10,96.66666667,522.8373,707.8524,0.019126409,1,12.5,93.75,601.3781,529.6898,0.020785592,300.0052,20.73,100,59.375,4,0,2,14,23,40.52098408,46,-11.91090417,2.333333333,28.33333333,658.1733667,639.6722,0.037805021,7.371,4.4,4.444,11.04,6.81375,14.6762062,6,2,8,9,-0.185284499,-0.300994436,0.834991639,-0.165598886,-0.084663013,0.913289886,-0.172507132,-0.06824773,0.884967794,2.836027399,2.866266658,0.850277103,0.874104114,3.648117,4.251663,4,5,Low,-1.932183566,1.552647509
26,4,3,12.5,Low,5,62.5,96.875,850.3047,681.4744,0.073503063,1,10,96.66666667,522.8373,707.8524,0.019126409,1,12.5,93.75,601.3781,529.6898,0.020785592,300.0052,29.748,50,59.375,2,2,6,17,23,34.28801936,46,-25.46082747,2.333333333,28.33333333,658.1733667,639.6722,0.037805021,11.089,3.322,6.79,13.038,8.55975,5.841292094,6,2,8,9,-0.206060051,-0.348683838,0.830466441,-0.163622459,-0.117787328,0.916586186,-0.16126016,-0.108468147,0.893809164,2.921130286,2.950671481,0.81483933,0.862038405,4.371887,4.456512,4,5,High,0.644061189,1.552647509
26,5,3,12.5,Low,5,62.5,96.875,850.3047,681.4744,0.073503063,1,10,96.66666667,522.8373,707.8524,0.019126409,1,12.5,93.75,601.3781,529.6898,0.020785592,300.0052,19.579,50,59.375,2,2,7,14,23,42.90311048,46,-6.732368532,2.333333333,28.33333333,658.1733667,639.6722,0.037805021,6.715,4.009,2.91,14.692,7.0815,7.060650992,6,2,8,9,-0.178780381,-0.274919327,0.754867998,-0.150434825,-0.085364827,0.825528336,-0.150566391,-0.076379239,0.792749097,2.501767135,2.472483536,0.726625126,0.757381499,4.320694,4.125229,4,5,High,1.288122377,1.552647509
26,6,3,12.5,Low,5,62.5,96.875,850.3047,681.4744,0.073503063,1,10,96.66666667,522.8373,707.8524,0.019126409,1,12.5,93.75,601.3781,529.6898,0.020785592,300.0052,35.207,25,59.375,1,3,6,29,23,49.42198995,46,7.439108576,2.333333333,28.33333333,658.1733667,639.6722,0.037805021,21.107,5.098,4.248,8.987,9.86,2.535496957,6,2,8,9,-0.141385132,-0.370671652,0.725569521,-0.149414654,-0.149899994,0.846744103,-0.156737638,-0.139079689,0.810379632,2.7488838,2.750941189,0.78267337,0.823751916,4.677414,4.47139,4,5,High,0.644061189,1.552647509
26,7,3,12.5,Low,5,62.5,96.875,850.3047,681.4744,0.073503063,1,10,96.66666667,522.8373,707.8524,0.019126409,1,12.5,93.75,601.3781,529.6898,0.020785592,300.0052,24.676,75,59.375,3,1,4,14,23,34.04117361,46,-25.99744867,2.333333333,28.33333333,658.1733667,639.6722,0.037805021,9.686,2.945,7.859,7.319,6.95225,10.78787443,6,2,8,9,-0.218212764,-0.256697752,0.744163752,-0.171381566,-0.065803453,0.841150208,-0.175096563,-0.051807578,0.793525689,2.648499453,2.567300348,0.777600924,0.830591739,4.056,4.414505,4,5,Low,-0.644061189,1.552647509
26,8,3,12.5,Low,5,62.5,96.875,850.3047,681.4744,0.073503063,1,10,96.66666667,522.8373,707.8524,0.019126409,1,12.5,93.75,601.3781,529.6898,0.020785592,300.0052,17.029,50,59.375,2,2,5,6,23,21.14040754,46,-54.0425923,2.333333333,28.33333333,658.1733667,639.6722,0.037805021,7.156,3.043,3.421,3.409,4.25725,11.74467086,6,2,8,9,-0.037213898,-0.386372142,0.809479703,-0.083511507,-0.131454074,0.931808046,-0.086639561,-0.127748419,0.919356735,3.02517113,3.085244134,0.90179509,0.94435719,3.687088,4.246872,4,5,Low,0,1.552647509
27,1,7,29.17,Low,8,100,100,378.0147,,0.264539977,10,100,96.66666667,513.51615,507.3593,0.194735842,7,87.5,87.5,625.731,1049.289175,0.139836447,300.0029,95.718,75,90.625,3,1,4,14,3,8.77577885,6,46.26298084,8.333333333,95.83333333,505.75395,,0.199704089,27.795,19.936,27.143,15.984,22.7145,3.301855643,3,2,5,2,0.063722894,-0.117209795,0.851981986,-0.003379194,-0.097218848,0.922845794,0.028468651,-0.099268775,0.912221021,3.330231405,3.065147864,0.908621572,0.929952126,4.413849,4.102158,4,3.5,High,0.504524979,0.991031209
27,2,7,29.17,Low,8,100,100,378.0147,,0.264539977,10,100,96.66666667,513.51615,507.3593,0.194735842,7,87.5,87.5,625.731,1049.289175,0.139836447,300.0029,124.807,100,90.625,4,0,5,22,3,10.57632985,6,76.27216422,8.333333333,95.83333333,505.75395,,0.199704089,21.276,27.737,43.875,38.932,32.955,3.034440904,3,2,5,2,0.091095596,-0.188327846,0.828115474,0.009235428,-0.132463718,0.914092864,0.034980481,-0.134803151,0.904824747,3.419668036,3.138840968,0.907311652,0.926314136,4.234924,4.647552,4,3.5,High,1.513574937,0.991031209
27,3,7,29.17,Low,8,100,100,378.0147,,0.264539977,10,100,96.66666667,513.51615,507.3593,0.194735842,7,87.5,87.5,625.731,1049.289175,0.139836447,300.0029,142.363,100,90.625,4,0,6,35,3,14.75102379,6,145.8503965,8.333333333,95.83333333,505.75395,,0.199704089,50.316,31.963,23.256,40.282,36.45425,2.743164377,3,2,5,2,0.064412774,-0.116322937,0.883538567,0.009218837,-0.080137208,0.939756816,0.033282264,-0.074631275,0.935461632,3.451907855,3.232340166,0.947184444,0.957352607,4.33989,4.284012,4,3.5,High,2.522624896,0.991031209
27,4,7,29.17,Low,8,100,100,378.0147,,0.264539977,10,100,96.66666667,513.51615,507.3593,0.194735842,7,87.5,87.5,625.731,1049.289175,0.139836447,300.0029,98.533,75,90.625,3,1,6,29,3,17.65905839,6,194.3176398,8.333333333,95.83333333,505.75395,,0.199704089,19.207,39.656,22.888,20.024,25.44375,2.947678703,3,2,5,2,0.082715196,-0.171021129,0.84683101,0.027929099,-0.124659631,0.926558511,0.054682118,-0.115470782,0.919011246,3.460827821,3.233289058,0.92898292,0.946652016,4.309311,4.236328,4,3.5,High,2.522624896,0.991031209
27,5,7,29.17,Low,8,100,100,378.0147,,0.264539977,10,100,96.66666667,513.51615,507.3593,0.194735842,7,87.5,87.5,625.731,1049.289175,0.139836447,300.0029,126.409,100,90.625,4,0,6,25,3,11.8662437,6,97.77072835,8.333333333,95.83333333,505.75395,,0.199704089,20.347,36.976,27.616,44.413,32.338,3.092337188,3,2,5,2,0.078848845,-0.142523258,0.871933334,0.016864327,-0.112814923,0.934292191,0.057342777,-0.10419735,0.92898168,3.415707224,3.245043562,0.945460363,0.963147641,4.356094,4.330246,4,3.5,High,2.522624896,0.991031209
27,6,7,29.17,Low,8,100,100,378.0147,,0.264539977,10,100,96.66666667,513.51615,507.3593,0.194735842,7,87.5,87.5,625.731,1049.289175,0.139836447,300.0029,115.325,75,90.625,3,1,6,23,3,11.96618253,6,99.43637546,8.333333333,95.83333333,505.75395,,0.199704089,28.22,37.3,19.188,34.498,29.8015,2.516651846,3,2,5,2,-0.024303915,-0.134531451,0.905344697,-0.019060917,-0.107294899,0.945871419,0.030969693,-0.090473338,0.939715249,3.374708788,3.304711391,0.947468873,0.956499248,4.357468,4.267334,4,3.5,High,2.522624896,0.991031209
27,7,7,29.17,Low,8,100,100,378.0147,,0.264539977,10,100,96.66666667,513.51615,507.3593,0.194735842,7,87.5,87.5,625.731,1049.289175,0.139836447,300.0029,114.343,100,90.625,4,0,7,23,3,12.06895044,6,101.149174,8.333333333,95.83333333,505.75395,,0.199704089,22.474,25.158,46.099,22.377,29.027,3.445068385,3,2,5,2,0.028845803,-0.172857826,0.878154137,0.001557464,-0.134845736,0.94126678,0.040348104,-0.124447623,0.934258841,3.430669445,3.260245093,0.947715658,0.951865557,4.235611,4.247192,4,3.5,High,3.531674854,0.991031209
27,8,7,29.17,Low,8,100,100,378.0147,,0.264539977,10,100,96.66666667,513.51615,507.3593,0.194735842,7,87.5,87.5,625.731,1049.289175,0.139836447,300.0029,113.726,100,90.625,4,0,7,12,3,6.331006102,6,5.516768373,8.333333333,95.83333333,505.75395,,0.199704089,33.046,26.455,22.987,31.238,28.4315,3.517225612,3,2,5,2,0.012817718,-0.074365301,0.893742336,-0.026464437,-0.078265876,0.953342384,0.012215485,-0.075476191,0.942470649,3.538438099,3.329203492,0.953149016,0.958367403,4.672531,4.340668,4,3.5,High,3.531674854,0.991031209
28,1,13,54.17,High,8,100,100,421.174325,,0.237431377,9,90,100,540.9330222,,0.166379194,6,75,96.875,638.2853167,1723.9792,0.117502311,300.0033,122.111,100,84.375,4,0,7,50,6,24.56781125,12,104.7317604,7.666666667,88.33333333,533.4642213,,0.173770961,28.336,17.574,29.038,21.139,24.02175,4.162894044,4,2,6,3,-0.020519149,-0.076437299,0.787355142,-0.031618247,-0.088042253,0.866105533,-0.008787326,-0.099856091,0.863269026,4.029443212,4.022924323,0.906216155,0.901008129,5.478394,5.672531,6,4,High,4.03212903,0.744023809
28,2,13,54.17,High,8,100,100,421.174325,,0.237431377,9,90,100,540.9330222,,0.166379194,6,75,96.875,638.2853167,1723.9792,0.117502311,300.0033,73.65,75,84.375,3,1,5,25,6,20.36659878,12,69.72165648,7.666666667,88.33333333,533.4642213,,0.173770961,16.391,10.859,26.288,23.411,19.23725,3.898686143,4,2,6,3,-0.043795029,-0.027848909,0.877336674,-0.02007438,-0.061618813,0.918619843,-0.011701209,-0.071736993,0.918773465,4.340426899,4.424769668,0.927287938,0.919071742,5.691193,5.888336,6,4,High,1.34404301,0.744023809
28,3,13,54.17,High,8,100,100,421.174325,,0.237431377,9,90,100,540.9330222,,0.166379194,6,75,96.875,638.2853167,1723.9792,0.117502311,300.0033,82.778,75,84.375,3,1,6,28,6,20.29524753,12,69.12706275,7.666666667,88.33333333,533.4642213,,0.173770961,27.833,16.508,16.578,25.164,21.52075,3.485008654,4,2,6,3,-0.040992618,-0.036290816,0.876377073,-0.040578852,-0.07425568,0.915587079,-0.024681985,-0.087025996,0.91580613,4.555454999,4.582470306,0.947090584,0.928921173,5.861557,6.311981,6,4,High,2.68808602,0.744023809
28,4,13,54.17,High,8,100,100,421.174325,,0.237431377,9,90,100,540.9330222,,0.166379194,6,75,96.875,638.2853167,1723.9792,0.117502311,300.0033,76.338,75,84.375,3,1,7,33,6,25.93727894,12,116.1439912,7.666666667,88.33333333,533.4642213,,0.173770961,31.097,17.228,11.097,19.046,19.617,3.823214559,4,2,6,3,0.002204031,-0.006273453,0.845669029,-0.021508421,-0.052621775,0.911494965,-0.002191692,-0.068197565,0.909656568,4.508377192,4.493507793,0.939847202,0.919430712,5.792374,5.980469,6,4,High,4.03212903,0.744023809
28,5,13,54.17,High,8,100,100,421.174325,,0.237431377,9,90,100,540.9330222,,0.166379194,6,75,96.875,638.2853167,1723.9792,0.117502311,300.0033,104.17,75,84.375,3,1,7,31,6,17.85542863,12,48.79523855,7.666666667,88.33333333,533.4642213,,0.173770961,23.487,44.603,11.514,26.304,26.477,2.832647203,4,2,6,3,0.065326719,-0.043282059,0.816035126,0.010781074,-0.078706977,0.909599694,0.03161502,-0.091417287,0.909212398,4.597129807,4.605173714,0.941486918,0.92291298,5.705109,5.997284,6,4,High,4.03212903,0.744023809
28,6,13,54.17,High,8,100,100,421.174325,,0.237431377,9,90,100,540.9330222,,0.166379194,6,75,96.875,638.2853167,1723.9792,0.117502311,300.0033,63.488,75,84.375,3,1,6,17,6,16.06602823,12,33.88356855,7.666666667,88.33333333,533.4642213,,0.173770961,20.575,16.519,11.912,16.837,16.46075,4.556293,4,2,6,3,-0.083460317,-0.066389784,0.882386567,-0.050756955,-0.09793551,0.932842572,-0.031350604,-0.11031916,0.934030667,4.811452929,4.810387626,0.970815679,0.962385158,5.935059,6.388428,6,4,High,2.68808602,0.744023809
28,7,13,54.17,High,8,100,100,421.174325,,0.237431377,9,90,100,540.9330222,,0.166379194,6,75,96.875,638.2853167,1723.9792,0.117502311,300.0033,72.56,100,84.375,4,0,6,24,6,19.84564498,12,65.38037486,7.666666667,88.33333333,533.4642213,,0.173770961,17.53,15.756,19.126,23.042,18.8635,5.301243142,4,2,6,3,-0.053398966,-0.058344909,0.835598069,-0.029866148,-0.106348762,0.904835485,-0.012834971,-0.112132579,0.906036615,4.609469161,4.652880664,0.942913533,0.925980748,5.909973,5.989044,6,4,High,2.68808602,0.744023809
28,8,13,54.17,High,8,100,100,421.174325,,0.237431377,9,90,100,540.9330222,,0.166379194,6,75,96.875,638.2853167,1723.9792,0.117502311,300.0033,75.499,100,84.375,4,0,7,27,6,21.45723784,12,78.81031537,7.666666667,88.33333333,533.4642213,,0.173770961,18.53,20.463,21.24,15.266,18.87475,5.298083418,4,2,6,3,-0.041202666,-0.105049901,0.808052242,-0.036133304,-0.110735182,0.89769878,-0.015436985,-0.124365999,0.898917812,4.623079633,4.632230273,0.940480936,0.932514273,5.616776,6.098495,6,4,High,4.03212903,0.744023809
29,1,20,83.33,High,8,100,100,378.23445,,0.264386282,9,90,100,395.7501778,,0.227416196,8,100,100,723.2175375,,0.138270983,300.0009,124.094,100,90.625,4,0,5,56,10,27.07624865,20,35.38124325,8.333333333,96.66666667,499.0673884,,0.210024487,34.204,28.842,27.14,24.068,28.5635,3.50097152,2,2,6,3,-0.045716417,0.148779959,0.828788178,-0.049013231,0.023195889,0.88039755,-0.042637848,0.007964061,0.892961734,3.742724338,3.537283716,0.902490628,0.889822234,5.146759,5.219299,6,4,High,1.414213562,0.707106781
29,2,20,83.33,High,8,100,100,378.23445,,0.264386282,9,90,100,395.7501778,,0.227416196,8,100,100,723.2175375,,0.138270983,300.0009,78.501,100,90.625,4,0,6,26,10,19.87235831,20,-0.63820843,8.333333333,96.66666667,499.0673884,,0.210024487,20.567,11.695,12.288,38.134,20.671,4.837695322,2,2,6,3,-0.030130788,0.014204354,0.870872483,-0.02372704,-0.055456878,0.908338479,-0.009734707,-0.07137739,0.916451731,3.960528038,3.665980953,0.951241471,0.934501426,5.100433,4.745621,6,4,High,2.828427125,0.707106781
29,3,20,83.33,High,8,100,100,378.23445,,0.264386282,9,90,100,395.7501778,,0.227416196,8,100,100,723.2175375,,0.138270983,300.0009,110.109,100,90.625,4,0,6,50,10,27.24572923,20,36.22864616,8.333333333,96.66666667,499.0673884,,0.210024487,32.101,31.394,32.09,17.662,28.31175,3.532102396,2,2,6,3,0.046043183,-0.031031917,0.861850467,0.020729473,-0.089560996,0.915994819,0.038793986,-0.101429787,0.922189631,4.159992801,3.806547122,0.94610105,0.936577412,5.527069,4.963669,6,4,High,2.828427125,0.707106781
29,4,20,83.33,High,8,100,100,378.23445,,0.264386282,9,90,100,395.7501778,,0.227416196,8,100,100,723.2175375,,0.138270983,300.0009,104.363,100,90.625,4,0,6,42,10,24.1464887,20,20.73244349,8.333333333,96.66666667,499.0673884,,0.210024487,33.185,18.283,27.352,38.115,29.23375,3.42070381,2,2,6,3,0.046848171,-0.027168062,0.858777871,0.002597982,-0.081650322,0.905581624,0.022227927,-0.095042642,0.913502514,4.071517822,3.712132569,0.942211635,0.929934985,5.386734,4.924866,6,4,High,2.828427125,0.707106781
29,5,20,83.33,High,8,100,100,378.23445,,0.264386282,9,90,100,395.7501778,,0.227416196,8,100,100,723.2175375,,0.138270983,300.0009,127.791,75,90.625,3,1,7,65,10,30.51858112,20,52.5929056,8.333333333,96.66666667,499.0673884,,0.210024487,30.193,47.966,19.346,32.773,32.5695,2.302767927,2,2,6,3,0.025638325,-0.003965222,0.863965504,-0.018544467,-0.067809889,0.900125832,0.00660811,-0.077892558,0.907290022,4.253464396,3.827176264,0.930636739,0.922863635,5.700241,5.123901,6,4,High,4.242640687,0.707106781
29,6,20,83.33,High,8,100,100,378.23445,,0.264386282,9,90,100,395.7501778,,0.227416196,8,100,100,723.2175375,,0.138270983,300.0009,101.188,75,90.625,3,1,6,43,10,25.49709452,20,27.48547259,8.333333333,96.66666667,499.0673884,,0.210024487,21.275,27.67,22.688,34.914,26.63675,2.815658817,2,2,6,3,-0.033200592,-0.072172531,0.875057786,-0.057370732,-0.108339302,0.914136502,-0.031421669,-0.118215781,0.921987803,4.205521543,3.783074325,0.950329933,0.944454318,5.459427,4.973694,6,4,High,2.828427125,0.707106781
29,7,20,83.33,High,8,100,100,378.23445,,0.264386282,9,90,100,395.7501778,,0.227416196,8,100,100,723.2175375,,0.138270983,300.0009,103.686,75,90.625,3,1,7,57,10,32.9842023,20,64.92101152,8.333333333,96.66666667,499.0673884,,0.210024487,22.223,23.824,38.951,21.358,26.589,2.820715333,2,2,6,3,-0.047174004,-0.081173687,0.863125776,-0.050187712,-0.114592147,0.899873185,-0.023383216,-0.126527689,0.907497573,4.19985673,3.733563156,0.931411854,0.931934471,5.592484,4.968658,6,4,High,4.242640687,0.707106781
29,8,20,83.33,High,8,100,100,378.23445,,0.264386282,9,90,100,395.7501778,,0.227416196,8,100,100,723.2175375,,0.138270983,300.0009,103.037,100,90.625,4,0,7,26,10,15.14019236,20,-24.29903821,8.333333333,96.66666667,499.0673884,,0.210024487,18.156,19.991,31.332,33.558,25.75925,3.882100605,2,2,6,3,-0.051894736,-0.02490437,0.854857049,-0.043681382,-0.087886116,0.926779973,-0.017428451,-0.096103253,0.93192921,4.307531405,3.853830285,0.950134033,0.948020705,5.618301,5.082047,6,4,High,4.242640687,0.707106781
30,1,13,54.17,High,8,100,96.875,375.84625,302.9405,0.266066244,10,100,100,531.91362,,0.18800045,8,100,100,567.50325,,0.176210445,300.0096,146.035,75,84.375,3,1,4,41,1,16.84527682,2,742.2638409,8.666666667,100,491.7543733,,0.21009238,44.876,28.495,29.677,25.877,32.23125,2.326934264,4,2,6,1,-0.011082889,0.026455361,0.772311843,0.007949847,0.006126265,0.893901314,-0.094890005,-0.024164064,0.905704457,3.28743778,3.22277549,0.92971438,0.894399382,4.556732,4.446045,8,4,Low,0,0.9258201
30,2,13,54.17,High,8,100,96.875,375.84625,302.9405,0.266066244,10,100,100,531.91362,,0.18800045,8,100,100,567.50325,,0.176210445,300.0096,89.073,75,84.375,3,1,5,31,1,20.88174868,2,944.0874339,8.666666667,100,491.7543733,,0.21009238,18.349,23.153,22.057,28.265,22.956,3.267119707,4,2,6,1,0.076233061,-0.114959427,0.806576673,0.05065137,-0.059525098,0.898255098,-0.049643621,-0.101118056,0.91940045,3.545505291,3.465408016,0.952558816,0.905729742,4.926147,4.294098,8,4,High,1.08012345,0.9258201
30,3,13,54.17,High,8,100,96.875,375.84625,302.9405,0.266066244,10,100,100,531.91362,,0.18800045,8,100,100,567.50325,,0.176210445,300.0096,130.218,100,84.375,4,0,5,37,1,17.04833433,2,752.4167166,8.666666667,100,491.7543733,,0.21009238,49.301,19.86,36.603,28.363,33.53175,2.982248168,4,2,6,1,0.010830862,-0.045345555,0.800690852,0.015780714,-0.039509896,0.914812473,-0.087416856,-0.076881452,0.913292835,3.624867017,3.482880123,0.940416055,0.920372481,4.69986,4.52507,8,4,High,1.08012345,0.9258201
30,4,13,54.17,High,8,100,96.875,375.84625,302.9405,0.266066244,10,100,100,531.91362,,0.18800045,8,100,100,567.50325,,0.176210445,300.0096,90.362,100,84.375,4,0,5,30,1,19.91987782,2,895.9938912,8.666666667,100,491.7543733,,0.21009238,18.414,18.083,32.638,23.696,23.20775,4.30890543,4,2,6,1,-0.008340926,-0.070619075,0.790217458,0.011945648,-0.063215701,0.909330511,-0.08987958,-0.098841992,0.902206168,3.631774573,3.476900781,0.931476931,0.923795346,4.72998,4.842896,8,4,High,1.08012345,0.9258201
30,5,13,54.17,High,8,100,96.875,375.84625,302.9405,0.266066244,10,100,100,531.91362,,0.18800045,8,100,100,567.50325,,0.176210445,300.0096,91.134,100,84.375,4,0,6,31,1,20.40950688,2,920.475344,8.666666667,100,491.7543733,,0.21009238,30.14,22.385,18.292,21.756,23.14325,4.320914305,4,2,6,1,0.104600938,-0.003129396,0.774110302,0.074751086,-0.029793096,0.900614718,-0.026493435,-0.066835226,0.9026803,3.631889907,3.489550764,0.926482481,0.927014056,4.605942,4.360184,8,4,High,2.160246899,0.9258201
30,6,13,54.17,High,8,100,96.875,375.84625,302.9405,0.266066244,10,100,100,531.91362,,0.18800045,8,100,100,567.50325,,0.176210445,300.0096,94.628,75,84.375,3,1,6,22,1,13.9493596,2,597.4679799,8.666666667,100,491.7543733,,0.21009238,19.968,31.678,20.954,26.521,24.78025,3.026603848,4,2,6,1,0.006709558,-0.019190582,0.781108611,0.021391803,-0.042453634,0.911239142,-0.081352885,-0.07969253,0.908325053,3.725534042,3.539334851,0.947696258,0.925414258,4.586639,4.338104,8,4,High,2.160246899,0.9258201
30,7,13,54.17,High,8,100,96.875,375.84625,302.9405,0.266066244,10,100,100,531.91362,,0.18800045,8,100,100,567.50325,,0.176210445,300.0096,142.892,50,84.375,2,2,7,41,1,17.21579934,2,760.7899672,8.666666667,100,491.7543733,,0.21009238,35.277,28.177,46.285,34.689,36.107,1.384773036,4,2,6,1,0.017479463,-0.022898211,0.763034713,0.020581743,-0.052872224,0.90392443,-0.08133444,-0.087469971,0.899999557,3.76905639,3.582434313,0.929470895,0.909987513,4.653534,4.472809,8,4,High,3.240370349,0.9258201
30,8,13,54.17,High,8,100,96.875,375.84625,302.9405,0.266066244,10,100,100,531.91362,,0.18800045,8,100,100,567.50325,,0.176210445,300.0096,95.544,100,84.375,4,0,6,30,1,18.83948757,2,841.9743783,8.666666667,100,491.7543733,,0.21009238,37.65,17.369,14.491,26.034,23.886,4.186552792,4,2,6,1,0.02761494,0.055102155,0.732930587,0.039695326,-0.013393186,0.898686627,-0.062732622,-0.046264874,0.894166028,3.718157391,3.507081961,0.934850538,0.929315189,5.825348,4.473694,8,4,High,2.160246899,0.9258201
31,1,8,33.33,Low,8,100,100,418.8061625,,0.238773946,10,100,100,450.34778,,0.222050612,8,100,93.75,413.631825,1714.56885,0.241760894,300.0057,165.706,50,71.875,2,2,6,65,7,23.53565954,14,68.11185387,8.666666667,100,427.5952558,,0.234195151,50.057,33.169,39.532,18.68,35.3595,1.414047144,3,4,8,1,-0.083653157,-0.13236228,0.856636909,-0.080707509,-0.060479552,0.910945196,-0.070203504,-0.070037606,0.911104568,3.718317791,3.856479908,0.962263719,0.96301182,4.831177,4.962585,3,6,Low,0,0.755928946
31,2,8,33.33,Low,8,100,100,418.8061625,,0.238773946,10,100,100,450.34778,,0.222050612,8,100,93.75,413.631825,1714.56885,0.241760894,300.0057,93.201,100,71.875,4,0,4,47,7,30.25718608,14,116.1227577,8.666666667,100,427.5952558,,0.234195151,30.261,23.723,18.966,45.824,29.6935,3.367740415,3,4,8,1,-0.05882365,-0.240492307,0.824535918,-0.063104536,-0.124999269,0.886438419,-0.064698175,-0.139330359,0.868640658,3.773202737,3.970700934,0.929183969,0.928563249,4.854874,5.592865,3,6,Low,-2.645751311,0.755928946
31,3,8,33.33,Low,8,100,100,418.8061625,,0.238773946,10,100,100,450.34778,,0.222050612,8,100,93.75,413.631825,1714.56885,0.241760894,300.0057,93.961,75,71.875,3,1,5,60,7,38.31376848,14,173.6697748,8.666666667,100,427.5952558,,0.234195151,27.103,38.889,12.91,19.799,24.67525,3.039482883,3,4,8,1,-0.028035589,-0.228044436,0.83134696,-0.041258959,-0.11269262,0.892296641,-0.050857602,-0.142263249,0.879650265,3.715735578,4.155462652,0.879537728,0.910077805,4.809921,6.150787,3,6,Low,-1.322875656,0.755928946
31,4,8,33.33,Low,8,100,100,418.8061625,,0.238773946,10,100,100,450.34778,,0.222050612,8,100,93.75,413.631825,1714.56885,0.241760894,300.0057,110.296,100,71.875,4,0,4,54,7,29.37549866,14,109.8249904,8.666666667,100,427.5952558,,0.234195151,44.911,22.859,32.276,14.855,28.72525,3.481257778,3,4,8,1,-0.001579528,-0.238390247,0.83811336,-0.029234984,-0.11201067,0.905198626,-0.027846685,-0.140939805,0.896777887,3.846428363,4.183153674,0.948282609,0.954744466,5.222488,5.516052,3,6,Low,-2.645751311,0.755928946
31,5,8,33.33,Low,8,100,100,418.8061625,,0.238773946,10,100,100,450.34778,,0.222050612,8,100,93.75,413.631825,1714.56885,0.241760894,300.0057,100.254,75,71.875,3,1,5,45,7,26.93159375,14,92.3685268,8.666666667,100,427.5952558,,0.234195151,26.399,33.885,16.792,26.602,25.9195,2.893574336,3,4,8,1,0.017923299,-0.218712033,0.803931744,-0.009423328,-0.116911268,0.89044244,-0.004750543,-0.14474266,0.884345314,3.761325921,3.995619238,0.950548725,0.943539918,5.099869,5.352951,3,6,Low,-1.322875656,0.755928946
31,6,8,33.33,Low,8,100,100,418.8061625,,0.238773946,10,100,100,450.34778,,0.222050612,8,100,93.75,413.631825,1714.56885,0.241760894,300.0057,84.392,50,71.875,2,2,5,49,7,34.83742535,14,148.8387525,8.666666667,100,427.5952558,,0.234195151,20.177,29.087,19.347,18.951,21.8905,2.284095841,3,4,8,1,0.055015041,-0.277612824,0.811238991,0.001300669,-0.144446901,0.88842126,0.003095211,-0.159372653,0.882268109,3.633327295,3.930276694,0.925779079,0.947831791,4.703369,5.040009,3,6,Low,-1.322875656,0.755928946
31,7,8,33.33,Low,8,100,100,418.8061625,,0.238773946,10,100,100,450.34778,,0.222050612,8,100,93.75,413.631825,1714.56885,0.241760894,300.0057,96.229,75,71.875,3,1,5,51,7,31.79914579,14,127.1367556,8.666666667,100,427.5952558,,0.234195151,24.73,25.822,26.443,23.331,25.0815,2.990251779,3,4,8,1,0.052579472,-0.287100238,0.798156618,-0.004453474,-0.161741403,0.87867727,-0.004601441,-0.179334712,0.875948858,3.544258815,3.848451163,0.89043944,0.921283676,4.566162,4.994583,3,6,Low,-1.322875656,0.755928946
31,8,8,33.33,Low,8,100,100,418.8061625,,0.238773946,10,100,100,450.34778,,0.222050612,8,100,93.75,413.631825,1714.56885,0.241760894,300.0057,106.951,50,71.875,2,2,6,56,7,31.41625604,14,124.4018289,8.666666667,100,427.5952558,,0.234195151,28.077,15.825,30.853,32.196,26.73775,1.870015241,3,4,8,1,0.053977178,-0.216254193,0.778152636,-0.001599642,-0.112327637,0.875649675,0.005629135,-0.129697903,0.856823603,3.491866085,3.668236037,0.913344998,0.946467518,4.780975,4.973969,3,6,Low,0,0.755928946
32,1,9,37.5,Low,8,100,100,404.01195,,0.247517431,9,90,100,651.2078111,,0.13820473,4,50,96.875,879.66025,1163.2205,0.056840127,300.0008,167.163,50,75,2,2,6,42,5,15.07510633,10,50.75106333,7,80,644.9600037,,0.147520763,42.49,26.688,38.404,19.294,31.719,1.576342255,4,1,5,2,-0.117228598,0.021628106,0.872707981,-0.096144672,-0.047231199,0.929706463,-0.096366406,-0.050720706,0.931128133,3.256680396,2.788265304,0.840991563,0.699093875,4.467346,3.52861,6,3,High,1.560378995,1.922609833
32,2,9,37.5,Low,8,100,100,404.01195,,0.247517431,9,90,100,651.2078111,,0.13820473,4,50,96.875,879.66025,1163.2205,0.056840127,300.0008,136.218,75,75,3,1,4,30,5,13.21411267,10,32.14112672,7,80,644.9600037,,0.147520763,36.56,30.745,46.177,29.753,35.80875,2.094460153,4,1,5,2,-0.018899123,-0.104706487,0.900092402,-0.054108044,-0.107589454,0.942203573,-0.066295612,-0.116551387,0.943630978,3.78617001,3.135522702,0.85233518,0.760397143,4.820114,3.796356,6,3,High,0.520126332,1.922609833
32,3,9,37.5,Low,8,100,100,404.01195,,0.247517431,9,90,100,651.2078111,,0.13820473,4,50,96.875,879.66025,1163.2205,0.056840127,300.0008,130.448,100,75,4,0,4,33,5,15.17846192,10,51.78461916,7,80,644.9600037,,0.147520763,31.91,38.969,26.608,38.47,33.98925,2.942106695,4,1,5,2,-0.133540405,-0.028682249,0.810564655,-0.097196082,-0.071124872,0.922929669,-0.111519721,-0.079518991,0.92202645,3.832453258,3.160313248,0.82544305,0.801580822,4.740814,3.785919,6,3,High,0.520126332,1.922609833
32,4,9,37.5,Low,8,100,100,404.01195,,0.247517431,9,90,100,651.2078111,,0.13820473,4,50,96.875,879.66025,1163.2205,0.056840127,300.0008,144.556,100,75,4,0,6,30,5,12.45192175,10,24.51921747,7,80,644.9600037,,0.147520763,44.102,34.522,44.331,25.732,37.17175,2.690215015,4,1,5,2,-0.155346338,-0.056519453,0.789344551,-0.102781531,-0.086592662,0.920808942,-0.114176971,-0.093104551,0.92019738,3.977313571,3.237596392,0.796939942,0.86044066,4.926529,3.973724,6,3,High,1.560378995,1.922609833
32,5,9,37.5,Low,8,100,100,404.01195,,0.247517431,9,90,100,651.2078111,,0.13820473,4,50,96.875,879.66025,1163.2205,0.056840127,300.0008,144.737,50,75,2,2,8,42,5,17.4108901,10,74.10890097,7,80,644.9600037,,0.147520763,45.003,38.948,13.765,52.376,37.523,1.332516057,4,1,5,2,-0.153265627,-0.044358011,0.793929637,-0.101498183,-0.088940108,0.902968973,-0.113132672,-0.094154022,0.90198058,3.833278483,3.10476232,0.836181632,0.653135617,4.829483,3.810837,6,3,High,2.600631659,1.922609833
32,6,9,37.5,Low,8,100,100,404.01195,,0.247517431,9,90,100,651.2078111,,0.13820473,4,50,96.875,879.66025,1163.2205,0.056840127,300.0008,174.115,75,75,3,1,8,48,5,16.54079201,10,65.40792005,7,80,644.9600037,,0.147520763,44.752,38.671,45.34,50.244,44.75175,1.675912115,4,1,5,2,-0.137384044,-0.104586247,0.797159918,-0.098790907,-0.105361232,0.913632924,-0.110508515,-0.11090948,0.913892214,3.825599573,3.158454938,0.685318612,0.829673671,4.831406,3.969849,6,3,High,2.600631659,1.922609833
32,7,9,37.5,Low,8,100,100,404.01195,,0.247517431,9,90,100,651.2078111,,0.13820473,4,50,96.875,879.66025,1163.2205,0.056840127,300.0008,153.591,75,75,3,1,8,40,5,15.62591558,10,56.25915581,7,80,644.9600037,,0.147520763,29.153,43.391,41.743,45.535,39.9555,1.877088261,4,1,5,2,-0.175363474,-0.109816014,0.832609497,-0.101768644,-0.096898843,0.925521472,-0.114636157,-0.099433019,0.927233903,3.830471106,3.183300126,0.699725249,0.635991452,4.767807,4.134857,6,3,High,2.600631659,1.922609833
32,8,9,37.5,Low,8,100,100,404.01195,,0.247517431,9,90,100,651.2078111,,0.13820473,4,50,96.875,879.66025,1163.2205,0.056840127,300.0008,164.718,75,75,3,1,9,55,5,20.03424034,10,100.3424034,7,80,644.9600037,,0.147520763,42.926,31.453,45.899,44.44,41.1795,1.821294576,4,1,5,2,-0.173269693,-0.088206572,0.788347832,-0.112999993,-0.082697791,0.903148166,-0.12728766,-0.08217534,0.906918789,3.754375335,3.165503301,0.749364082,0.841202759,4.758362,4.130814,6,3,High,3.12075799,1.922609833
33,1,9,37.5,Low,7,87.5,100,377.4090571,,0.231843933,5,50,40,553.7579,747.2513,0.090292166,7,87.5,96.875,614.6024857,993.1232,0.142368445,300.0016,172.083,75,78.125,3,1,2,150,16,52.30034344,32,63.43857325,6.333333333,75,515.256481,,0.154834848,39.901,43.857,13.88,29.881,31.87975,2.352590594,4,1,2,1,-0.001515183,0.177989761,0.797601073,-0.030204046,0.021585153,0.832916357,-0.014261747,0.017854959,0.836335159,3.051473642,2.863640755,0.875265663,0.882082693,5.349701,4.607788,3,1.5,High,0.471404521,1.060660172
33,2,9,37.5,Low,7,87.5,100,377.4090571,,0.231843933,5,50,40,553.7579,747.2513,0.090292166,7,87.5,96.875,614.6024857,993.1232,0.142368445,300.0016,68.968,100,78.125,4,0,2,75,16,65.24765108,32,103.8989096,6.333333333,75,515.256481,,0.154834848,16.235,18.665,10.973,25.059,17.733,5.639203744,4,1,2,1,0.008473757,0.004127479,0.817708024,-0.024565968,-0.086235423,0.822122095,-0.001106181,-0.088443806,0.824362309,3.130398656,2.930489029,0.861039891,0.871169822,4.561905,5.112045,3,1.5,High,0.471404521,1.060660172
33,3,9,37.5,Low,7,87.5,100,377.4090571,,0.231843933,5,50,40,553.7579,747.2513,0.090292166,7,87.5,96.875,614.6024857,993.1232,0.142368445,300.0016,78.241,50,78.125,2,2,3,68,16,52.14657277,32,62.9580399,6.333333333,75,515.256481,,0.154834848,9.525,25,20.402,25.399,20.0815,2.489853846,4,1,2,1,0.028107957,0.00146191,0.85551635,-0.024104597,-0.092168021,0.855823584,0.003251015,-0.097342365,0.860864545,3.337787449,3.086261666,0.887146663,0.891356506,4.765411,4.425323,3,1.5,High,1.414213562,1.060660172
33,4,9,37.5,Low,7,87.5,100,377.4090571,,0.231843933,5,50,40,553.7579,747.2513,0.090292166,7,87.5,96.875,614.6024857,993.1232,0.142368445,300.0016,140.94,75,78.125,3,1,3,108,16,45.97701149,32,43.67816092,6.333333333,75,515.256481,,0.154834848,39.108,33.897,39.814,29.949,35.692,2.101311218,4,1,2,1,0.045852284,-0.004602363,0.8604571,0.001667872,-0.073522081,0.864470605,0.030419333,-0.083509462,0.866032116,3.480220499,3.22192406,0.89725683,0.903359476,4.867706,4.482407,3,1.5,High,1.414213562,1.060660172
33,5,9,37.5,Low,7,87.5,100,377.4090571,,0.231843933,5,50,40,553.7579,747.2513,0.090292166,7,87.5,96.875,614.6024857,993.1232,0.142368445,300.0016,144.415,50,78.125,2,2,4,90,16,37.39223765,32,16.85074265,6.333333333,75,515.256481,,0.154834848,30.775,38.371,31.212,45.875,36.55825,1.367680346,4,1,2,1,0.106294276,-0.053279192,0.86664549,0.012355238,-0.096565973,0.877819788,0.043393569,-0.108669127,0.877291182,3.663448976,3.389180087,0.908385959,0.913830739,4.881287,4.595078,3,1.5,High,2.357022604,1.060660172
33,6,9,37.5,Low,7,87.5,100,377.4090571,,0.231843933,5,50,40,553.7579,747.2513,0.090292166,7,87.5,96.875,614.6024857,993.1232,0.142368445,300.0016,121.346,75,78.125,3,1,4,84,16,41.53412556,32,29.79414237,6.333333333,75,515.256481,,0.154834848,26.116,29.693,17.795,49.898,30.8755,2.42911046,4,1,2,1,0.120977484,-0.014224579,0.856526534,0.041004083,-0.094553442,0.874193252,0.069937563,-0.097323093,0.875157831,3.511227576,3.23904552,0.880024237,0.886105971,4.784088,4.780411,3,1.5,High,2.357022604,1.060660172
33,7,9,37.5,Low,7,87.5,100,377.4090571,,0.231843933,5,50,40,553.7579,747.2513,0.090292166,7,87.5,96.875,614.6024857,993.1232,0.142368445,300.0016,147.446,100,78.125,4,0,5,114,16,46.38986476,32,44.96832739,6.333333333,75,515.256481,,0.154834848,23.714,43.692,43.608,38.36,37.3435,2.677842195,4,1,2,1,0.005920526,-0.007933861,0.848029713,0.002314282,-0.091363019,0.871773726,0.027638037,-0.100649645,0.872516047,3.679579655,3.414144261,0.890421194,0.898995812,5.091217,4.785492,3,1.5,High,3.299831646,1.060660172
33,8,9,37.5,Low,7,87.5,100,377.4090571,,0.231843933,5,50,40,553.7579,747.2513,0.090292166,7,87.5,96.875,614.6024857,993.1232,0.142368445,300.0016,110.599,100,78.125,4,0,4,82,16,44.48503151,32,39.01572347,6.333333333,75,515.256481,,0.154834848,23.036,27.279,30.404,29.88,27.64975,3.616669228,4,1,2,1,0.03269052,-0.040629563,0.81904329,0.00910131,-0.112700504,0.867593594,0.03467921,-0.121755426,0.865766962,3.748042473,3.464220752,0.896565976,0.910438857,5.194427,5.088821,3,1.5,High,2.357022604,1.060660172
34,1,5,20.83,Low,7,87.5,100,477.8441857,,0.183114083,8,80,100,910.0002125,,0.087912067,7,87.5,100,903.3431,,0.096862421,300.004,229.146,75,75,3,1,5,108,24,28.27891388,48,-41.08559608,7.333333333,85,763.7291661,,0.122629524,50.093,34.007,45.185,83.367,53.163,1.410755601,3,4,6,2,-0.04904091,-0.286632947,0.782078179,-0.070800758,-0.150189997,0.864620773,-0.041386285,-0.160153626,0.87130838,3.101335497,3.067814684,0.85046679,0.849891693,4.731979,4.656006,4,5,Low,0,0.707106781
34,2,5,20.83,Low,7,87.5,100,477.8441857,,0.183114083,8,80,100,910.0002125,,0.087912067,7,87.5,100,903.3431,,0.096862421,300.004,145.894,75,75,3,1,6,64,24,26.32047925,48,-45.16566822,7.333333333,85,763.7291661,,0.122629524,46.748,24.922,28.876,49.145,37.42275,2.004128505,3,4,6,2,0.00764959,-0.264581634,0.852178196,-0.059848497,-0.13920312,0.901844059,-0.035036277,-0.152933237,0.90954056,3.293394483,3.247918385,0.867071667,0.867943866,4.487595,4.326187,4,5,High,1.414213562,0.707106781
34,3,5,20.83,Low,7,87.5,100,477.8441857,,0.183114083,8,80,100,910.0002125,,0.087912067,7,87.5,100,903.3431,,0.096862421,300.004,179.716,50,75,2,2,7,83,24,27.7103875,48,-42.27002604,7.333333333,85,763.7291661,,0.122629524,45.211,44.522,41.963,51.783,45.86975,1.090043002,3,4,6,2,-0.000663839,-0.236478154,0.827147558,-0.036658755,-0.121363526,0.898921108,-0.014686241,-0.132759416,0.908189802,3.292321453,3.248685345,0.853383528,0.858284261,4.518188,4.371948,4,5,High,2.828427125,0.707106781
34,4,5,20.83,Low,7,87.5,100,477.8441857,,0.183114083,8,80,100,910.0002125,,0.087912067,7,87.5,100,903.3431,,0.096862421,300.004,140.835,100,75,4,0,6,72,24,30.6741932,48,-36.09543082,7.333333333,85,763.7291661,,0.122629524,39.296,31.417,31.096,42.369,36.0445,2.774348375,3,4,6,2,0.156085096,-0.277225474,0.829814159,0.024720651,-0.160248213,0.906418756,0.04999456,-0.172452135,0.910589493,3.251954726,3.229818696,0.810143996,0.805347479,4.375183,4.360199,4,5,High,1.414213562,0.707106781
34,5,5,20.83,Low,7,87.5,100,477.8441857,,0.183114083,8,80,100,910.0002125,,0.087912067,7,87.5,100,903.3431,,0.096862421,300.004,179.464,75,75,3,1,6,99,24,33.09856016,48,-31.04466634,7.333333333,85,763.7291661,,0.122629524,47.015,47.713,41.277,46.145,45.5375,1.646994236,3,4,6,2,0.174409883,-0.237039339,0.823868616,0.044891061,-0.13313023,0.90047,0.070831338,-0.146507348,0.902742506,3.251358347,3.179331248,0.842905234,0.85490053,4.469833,4.491074,4,5,High,1.414213562,0.707106781
34,6,5,20.83,Low,7,87.5,100,477.8441857,,0.183114083,8,80,100,910.0002125,,0.087912067,7,87.5,100,903.3431,,0.096862421,300.004,131.928,75,75,3,1,7,73,24,33.19992723,48,-30.83348493,7.333333333,85,763.7291661,,0.122629524,30.842,33.773,27.059,42.558,33.558,2.234936528,3,4,6,2,0.07726944,-0.276640745,0.826724244,-0.010450845,-0.151409936,0.897669933,0.018139819,-0.164958504,0.903907836,3.131858004,3.065343474,0.857057622,0.863510786,4.559021,4.437012,4,5,High,2.828427125,0.707106781
34,7,5,20.83,Low,7,87.5,100,477.8441857,,0.183114083,8,80,100,910.0002125,,0.087912067,7,87.5,100,903.3431,,0.096862421,300.004,172.55,75,75,3,1,6,99,24,34.4248044,48,-28.28165749,7.333333333,85,763.7291661,,0.122629524,45.974,43.995,44.247,40.823,43.75975,1.713903759,3,4,6,2,-0.040244028,-0.257115049,0.791189848,-0.047658845,-0.129959584,0.885951606,-0.022940033,-0.139570931,0.890574609,3.155449745,3.067809908,0.857831604,0.869590282,4.378372,4.352722,4,5,High,1.414213562,0.707106781
34,8,5,20.83,Low,7,87.5,100,477.8441857,,0.183114083,8,80,100,910.0002125,,0.087912067,7,87.5,100,903.3431,,0.096862421,300.004,177.206,75,75,3,1,7,106,24,35.8904326,48,-25.22826541,7.333333333,85,763.7291661,,0.122629524,46.06,40.676,45.906,44.564,44.3015,1.692944934,3,4,6,2,-0.027399345,-0.171601969,0.825587517,-0.047159541,-0.092225745,0.887177691,-0.025219954,-0.104824717,0.891150811,3.040482598,2.968044714,0.820974446,0.79334322,4.528259,4.765472,4,5,High,2.828427125,0.707106781
35,1,3,12.5,Low,8,100,100,447.9664125,,0.223231022,10,100,100,391.99269,,0.255106798,4,50,93.75,879.115525,599.3786,0.056875346,300.009,240.279,50,68.75,2,2,8,72,6,17.9790993,12,49.82582748,7.333333333,83.33333333,573.0248758,,0.178404389,49.162,29.898,43.505,58.042,45.15175,1.10737679,6,1,6,2,-0.062190804,0.045723088,0.736889533,-0.074121432,-0.04333873,0.876373574,-0.056044509,-0.040215297,0.878256188,2.478432099,2.791790193,0.905707522,0.88411831,3.410751,3.992477,3,3.5,High,2.816037984,1.597989809
35,2,3,12.5,Low,8,100,100,447.9664125,,0.223231022,10,100,100,391.99269,,0.255106798,4,50,93.75,879.115525,599.3786,0.056875346,300.009,164.131,100,68.75,4,0,4,57,6,20.83701434,12,73.64178613,7.333333333,83.33333333,573.0248758,,0.178404389,44.723,43.965,30.536,50.532,42.439,2.356323193,6,1,6,2,0.08631321,0.018455293,0.785175286,0.024010739,-0.067476561,0.904828057,0.035199974,-0.058244261,0.895920931,2.653468085,3.029263337,0.914398834,0.885740799,3.580627,4.206558,3,3.5,High,0.312893109,1.597989809
35,3,3,12.5,Low,8,100,100,447.9664125,,0.223231022,10,100,100,391.99269,,0.255106798,4,50,93.75,879.115525,599.3786,0.056875346,300.009,174.526,50,68.75,2,2,9,55,6,18.90835749,12,57.56964578,7.333333333,83.33333333,573.0248758,,0.178404389,50.087,41.067,37.809,55.192,46.03875,1.08604165,6,1,6,2,0.008862457,-0.003538414,0.804183401,-0.024446201,-0.070659577,0.913357528,-0.014139497,-0.049501935,0.914665502,2.75549757,3.239191158,0.945835305,0.922470469,3.454895,4.12001,3,3.5,High,3.441824203,1.597989809
35,4,3,12.5,Low,8,100,100,447.9664125,,0.223231022,10,100,100,391.99269,,0.255106798,4,50,93.75,879.115525,599.3786,0.056875346,300.009,171.877,75,68.75,3,1,8,76,6,26.53060037,12,121.0883364,7.333333333,83.33333333,573.0248758,,0.178404389,46.925,39.461,42.904,51.186,45.119,1.662270884,6,1,6,2,0.078468559,-0.042336897,0.762780382,0.013279852,-0.10146887,0.883939736,0.027287856,-0.083735983,0.871592758,2.703321498,3.102001177,0.902578082,0.899661527,3.542557,4.198883,3,3.5,High,2.816037984,1.597989809
35,5,3,12.5,Low,8,100,100,447.9664125,,0.223231022,10,100,100,391.99269,,0.255106798,4,50,93.75,879.115525,599.3786,0.056875346,300.009,168.946,50,68.75,2,2,9,69,6,24.50487138,12,104.2072615,7.333333333,83.33333333,573.0248758,,0.178404389,50.062,32.774,41.482,47.667,42.99625,1.162892113,6,1,6,2,0.138628709,-0.026037873,0.743182947,0.045195835,-0.100157797,0.878555837,0.058804858,-0.092800663,0.873188959,2.724302671,3.102091415,0.890566792,0.889337693,3.617447,4.312836,3,3.5,High,3.441824203,1.597989809
35,6,3,12.5,Low,8,100,100,447.9664125,,0.223231022,10,100,100,391.99269,,0.255106798,4,50,93.75,879.115525,599.3786,0.056875346,300.009,142.802,75,68.75,3,1,8,67,6,28.15086623,12,134.590552,7.333333333,83.33333333,573.0248758,,0.178404389,18.107,42.343,41.114,45.652,36.804,2.037821976,6,1,6,2,0.066986435,-0.050197559,0.757998724,0.008587681,-0.112922739,0.878597556,0.021118133,-0.100877653,0.873329972,2.690454427,3.101899418,0.916177208,0.907269667,3.542923,4.333923,3,3.5,High,2.816037984,1.597989809
35,7,3,12.5,Low,8,100,100,447.9664125,,0.223231022,10,100,100,391.99269,,0.255106798,4,50,93.75,879.115525,599.3786,0.056875346,300.009,181,75,68.75,3,1,8,87,6,28.83977901,12,140.3314917,7.333333333,83.33333333,573.0248758,,0.178404389,45.751,42.717,45.853,50.077,46.0995,1.626915693,6,1,6,2,0.01841149,-0.067648289,0.720366137,-0.017739465,-0.139892256,0.852863138,-0.003438097,-0.131258733,0.85217778,2.76710633,3.120907988,0.857691008,0.864617545,3.778336,4.324692,3,3.5,High,2.816037984,1.597989809
35,8,3,12.5,Low,8,100,100,447.9664125,,0.223231022,10,100,100,391.99269,,0.255106798,4,50,93.75,879.115525,599.3786,0.056875346,300.009,144.778,75,68.75,3,1,7,80,6,33.15420851,12,176.2850709,7.333333333,83.33333333,573.0248758,,0.178404389,34.229,41.184,38.229,31.136,36.1945,2.072138032,6,1,6,2,-0.033052893,-0.003883039,0.788318903,-0.059328816,-0.075873269,0.881655276,-0.044093427,-0.070400783,0.86961856,2.710974879,2.773088429,0.922591931,0.937427608,4.003845,4.275223,3,3.5,High,2.190251766,1.597989809
36,1,22,91.67,High,8,100,100,445.56555,,0.224433868,10,100,100,682.25508,,0.146572745,5,62.5,100,1015.91872,,0.06152067,300.01,103.957,100,90.625,4,0,2,25,9,14.42904278,18,-19.83865124,7.666666667,87.5,714.5797833,,0.144175761,26.656,17.491,15.893,13.283,18.33075,5.455314158,2,2,4,1,0.023608217,-0.146857821,0.787227692,-0.013883561,-0.106657423,0.895018356,0.009625093,-0.105769538,0.902267422,3.938751465,4.107205093,0.933540242,0.933563164,5.716385,5.369965,7,3,Low,-0.836660027,1.195228609
36,2,22,91.67,High,8,100,100,445.56555,,0.224433868,10,100,100,682.25508,,0.146572745,5,62.5,100,1015.91872,,0.06152067,300.01,70.607,100,90.625,4,0,2,24,9,20.39457844,18,13.30321356,7.666666667,87.5,714.5797833,,0.144175761,28.964,12.769,14.162,18.479,18.5935,5.378223573,2,2,4,1,0.087286036,-0.228256514,0.864030497,0.020462648,-0.11742931,0.935727396,0.03016779,-0.121759123,0.94772315,4.122417348,4.325460549,0.937809014,0.926839829,5.610611,5.216415,7,3,Low,-0.836660027,1.195228609
36,3,22,91.67,High,8,100,100,445.56555,,0.224433868,10,100,100,682.25508,,0.146572745,5,62.5,100,1015.91872,,0.06152067,300.01,56.621,75,90.625,3,1,2,23,9,24.37258261,18,35.40323673,7.666666667,87.5,714.5797833,,0.144175761,22.466,13.506,9.788,15.01,15.1925,4.936646372,2,2,4,1,-0.006213558,-0.138913906,0.887010867,-0.011447661,-0.078463624,0.935000853,0.000200792,-0.076605153,0.94685336,4.133416908,4.267903499,0.941471687,0.926025371,5.521149,5.126099,7,3,Low,-0.836660027,1.195228609
36,4,22,91.67,High,8,100,100,445.56555,,0.224433868,10,100,100,682.25508,,0.146572745,5,62.5,100,1015.91872,,0.06152067,300.01,57.552,100,90.625,4,0,2,24,9,25.02085071,18,39.00472616,7.666666667,87.5,714.5797833,,0.144175761,14.005,15.953,15.793,13.837,14.897,6.712760959,2,2,4,1,0.031884443,-0.187149984,0.855242951,0.001054114,-0.111214148,0.920603599,0.012136598,-0.110063404,0.936283199,4.087078755,4.296693943,0.904286637,0.896166908,5.414948,5.714462,7,3,Low,-0.836660027,1.195228609
36,5,22,91.67,High,8,100,100,445.56555,,0.224433868,10,100,100,682.25508,,0.146572745,5,62.5,100,1015.91872,,0.06152067,300.01,65.927,100,90.625,4,0,3,15,9,13.65146298,18,-24.15853899,7.666666667,87.5,714.5797833,,0.144175761,8.994,17.973,15.799,25.044,16.9525,5.89883498,2,2,4,1,0.125967642,-0.160025114,0.85944825,0.051371176,-0.088583643,0.93522314,0.059798063,-0.091937869,0.941862709,4.234309264,4.401158295,0.95654254,0.94873116,5.2854,5.273209,7,3,Low,0,1.195228609
36,6,22,91.67,High,8,100,100,445.56555,,0.224433868,10,100,100,682.25508,,0.146572745,5,62.5,100,1015.91872,,0.06152067,300.01,77.78,50,90.625,2,2,4,13,9,10.02828491,18,-44.28730608,7.666666667,87.5,714.5797833,,0.144175761,5.955,31.677,12.114,29.573,19.82975,2.521463962,2,2,4,1,-0.042385461,-0.207146173,0.842630151,-0.033572417,-0.117999926,0.932775436,-0.025239686,-0.11629264,0.939983014,4.210960349,4.330111735,0.938760048,0.929749808,5.651276,5.506042,7,3,High,0.836660027,1.195228609
36,7,22,91.67,High,8,100,100,445.56555,,0.224433868,10,100,100,682.25508,,0.146572745,5,62.5,100,1015.91872,,0.06152067,300.01,79.574,100,90.625,4,0,4,39,9,29.40659009,18,63.36994496,7.666666667,87.5,714.5797833,,0.144175761,14.928,12.76,38.626,14.84,20.2885,4.928900609,2,2,4,1,-0.040662156,-0.248395795,0.853434091,-0.03729887,-0.13421411,0.924926545,-0.028561138,-0.136293126,0.939579899,4.234621398,4.443741743,0.938285736,0.939590393,5.600601,6.018738,7,3,High,0.836660027,1.195228609
36,8,22,91.67,High,8,100,100,445.56555,,0.224433868,10,100,100,682.25508,,0.146572745,5,62.5,100,1015.91872,,0.06152067,300.01,60.256,100,90.625,4,0,5,23,9,22.90228359,18,27.23490883,7.666666667,87.5,714.5797833,,0.144175761,13.747,13.854,16.304,16.351,15.064,6.63834307,2,2,4,1,-0.02604924,-0.129774081,0.841763493,-0.030476626,-0.080011073,0.920701837,-0.024243649,-0.080944983,0.931131661,4.052840245,4.250131655,0.932299341,0.919542679,5.922531,5.128159,7,3,High,1.673320053,1.195228609
37,1,18,75,High,8,100,100,388.0571875,,0.257693977,10,100,100,414.7489,,0.241109741,8,100,93.75,1296.227925,1062.5153,0.077146926,300.0071,127.397,75,78.125,3,1,3,13,13,6.122593154,26,-76.45156479,8.666666667,100,699.6780042,,0.191983548,14.089,9.685,22.249,11.934,14.48925,5.176251359,4,3,6,1,-0.124028493,0.008299674,0.901820471,-0.066272428,0.053748362,0.944287575,-0.139776654,0.046729062,0.93725621,2.95265981,3.088458817,0.971376908,0.963022383,3.957077,4.162292,4,4.5,Low,-1.984313483,0.755928946
37,2,18,75,High,8,100,100,388.0571875,,0.257693977,10,100,100,414.7489,,0.241109741,8,100,93.75,1296.227925,1062.5153,0.077146926,300.0071,47.705,100,78.125,4,0,4,2,13,2.515459595,26,-90.3251554,8.666666667,100,699.6780042,,0.191983548,19.362,11.095,8.47,10.811,12.4345,8.042140818,4,3,6,1,-0.104438572,-0.229494506,0.928063407,-0.069317228,-0.069320849,0.97068694,-0.143819418,-0.081838238,0.961432007,3.281080712,3.525233983,0.989416115,0.985498955,3.829697,4.08754,4,4.5,Low,-0.661437828,0.755928946
37,3,18,75,High,8,100,100,388.0571875,,0.257693977,10,100,100,414.7489,,0.241109741,8,100,93.75,1296.227925,1062.5153,0.077146926,300.0071,54.419,25,78.125,1,3,4,4,13,4.41022437,26,-83.03759858,8.666666667,100,699.6780042,,0.191983548,13.846,17.759,10.439,21.589,15.90825,1.571511637,4,3,6,1,-0.104488063,-0.199085598,0.92437189,-0.045447058,-0.051924119,0.966569359,-0.119511842,-0.063270113,0.95781542,3.23115882,3.453305215,0.976989702,0.973138729,3.913406,4.167145,4,4.5,Low,-0.661437828,0.755928946
37,4,18,75,High,8,100,100,388.0571875,,0.257693977,10,100,100,414.7489,,0.241109741,8,100,93.75,1296.227925,1062.5153,0.077146926,300.0071,69.572,100,78.125,4,0,5,1,13,0.862415914,26,-96.68301571,8.666666667,100,699.6780042,,0.191983548,16.65,16.734,26.515,14.979,18.7195,5.342023024,4,3,6,1,-0.11657929,-0.311170017,0.88758192,-0.031389124,-0.108857994,0.969548077,-0.106320628,-0.125775083,0.962504924,3.291888522,3.490452039,0.989766659,0.990261133,3.915558,4.137756,4,4.5,High,0.661437828,0.755928946
37,5,18,75,High,8,100,100,388.0571875,,0.257693977,10,100,100,414.7489,,0.241109741,8,100,93.75,1296.227925,1062.5153,0.077146926,300.0071,76.852,75,78.125,3,1,5,4,13,3.122885546,26,-87.98890175,8.666666667,100,699.6780042,,0.191983548,10.572,26.599,13.305,28.131,19.65175,3.816454005,4,3,6,1,-0.062158197,-0.238176629,0.907818313,-0.004495468,-0.070341937,0.962997968,-0.078546873,-0.086830906,0.957069069,3.301407262,3.521559015,0.97177367,0.97465415,4.010651,4.257126,4,4.5,High,0.661437828,0.755928946
37,6,18,75,High,8,100,100,388.0571875,,0.257693977,10,100,100,414.7489,,0.241109741,8,100,93.75,1296.227925,1062.5153,0.077146926,300.0071,74.2,75,78.125,3,1,5,3,13,2.425876011,26,-90.66970765,8.666666667,100,699.6780042,,0.191983548,10.076,20.477,18.391,26.924,18.967,3.954236305,4,3,6,1,-0.044436875,-0.31081454,0.902764509,-0.014832267,-0.101908656,0.968715016,-0.088341538,-0.117038474,0.963371525,3.278442101,3.52375396,0.987310319,0.982836786,3.861389,4.350952,4,4.5,High,0.661437828,0.755928946
37,7,18,75,High,8,100,100,388.0571875,,0.257693977,10,100,100,414.7489,,0.241109741,8,100,93.75,1296.227925,1062.5153,0.077146926,300.0071,81.471,75,78.125,3,1,5,4,13,2.945833487,26,-88.6698712,8.666666667,100,699.6780042,,0.191983548,10.66,16.125,28.402,27.806,20.74825,3.614762691,4,3,6,1,-0.079111844,-0.351987248,0.880341023,-0.002247689,-0.136737408,0.956285402,-0.075438986,-0.153813315,0.948836029,3.277662966,3.513997568,0.977002336,0.972914888,4.628632,4.283417,4,4.5,High,0.661437828,0.755928946
37,8,18,75,High,8,100,100,388.0571875,,0.257693977,10,100,100,414.7489,,0.241109741,8,100,93.75,1296.227925,1062.5153,0.077146926,300.0071,57.754,100,78.125,4,0,5,4,13,4.155556325,26,-84.01709106,8.666666667,100,699.6780042,,0.191983548,15.02,20.419,10.197,12.118,14.4385,6.925927209,4,3,6,1,-0.168227455,-0.300386277,0.852502796,-0.077792576,-0.112058701,0.956316114,-0.148692129,-0.124910621,0.945298848,3.232337339,3.507653762,0.980026426,0.978344033,3.832245,4.170959,4,4.5,High,0.661437828,0.755928946
38,1,17,70.83,High,8,100,96.875,432.5471125,679.2166,0.231188689,10,100,36.66666667,540.16951,591.521979,0.185127072,8,100,90.625,489.526825,576.5416667,0.204278897,300.006,103.957,100,90.625,4,0,5,36,8,20.7778216,16,29.861385,8.666666667,100,487.4144825,615.7600819,0.206864886,24.714,19.719,20.59,13.35,19.59325,5.103798502,4,4,5,2,-0.060756637,-0.197085274,0.734155813,-0.039582889,-0.123744877,0.868339579,-0.012283394,-0.083184272,0.844582601,2.616315704,2.419949901,0.883192501,0.901319457,3.579544,3.686295,3,4.5,High,0.353553391,1.414213562
38,2,17,70.83,High,8,100,96.875,432.5471125,679.2166,0.231188689,10,100,36.66666667,540.16951,591.521979,0.185127072,8,100,90.625,489.526825,576.5416667,0.204278897,300.006,50.326,100,90.625,4,0,7,16,8,19.07562691,16,19.2226682,8.666666667,100,487.4144825,615.7600819,0.206864886,11.329,13.637,14.416,16.181,13.89075,7.199035329,4,4,5,2,-0.017899304,-0.163500357,0.873276639,-0.006772675,-0.068630951,0.929771554,0.007192679,-0.05943116,0.927537332,2.734295702,2.72216515,0.947939877,0.946518162,3.557571,3.489914,3,4.5,High,1.767766953,1.414213562
38,3,17,70.83,High,8,100,96.875,432.5471125,679.2166,0.231188689,10,100,36.66666667,540.16951,591.521979,0.185127072,8,100,90.625,489.526825,576.5416667,0.204278897,300.006,57.679,75,90.625,3,1,8,24,8,24.96575877,16,56.0359923,8.666666667,100,487.4144825,615.7600819,0.206864886,13.229,17.027,14.202,17.537,15.49875,4.839099927,4,4,5,2,-0.0542378,-0.204623594,0.846072308,-0.022714431,-0.089159929,0.913227131,-0.008315183,-0.082823865,0.915625928,2.721716512,2.737358512,0.932308221,0.937761758,3.514603,3.49588,3,4.5,High,2.474873734,1.414213562
38,4,17,70.83,High,8,100,96.875,432.5471125,679.2166,0.231188689,10,100,36.66666667,540.16951,591.521979,0.185127072,8,100,90.625,489.526825,576.5416667,0.204278897,300.006,69.623,75,90.625,3,1,8,22,8,18.95925197,16,18.49532482,8.666666667,100,487.4144825,615.7600819,0.206864886,10.908,10.152,32.373,19.456,18.22225,4.115847384,4,4,5,2,-0.013545303,-0.33567623,0.820509258,-0.006396375,-0.162976903,0.922734677,0.009952227,-0.159044593,0.921693199,2.815902296,2.82851784,0.935372557,0.935279389,4.739563,3.489288,3,4.5,High,2.474873734,1.414213562
