participant_number,subexperiment_number,MRTScore,MRTAcc,MRTGroup,nback_hits_0,nback_hit_rate_0,nback_correct_rejections_0,nback_rt_target_0,nback_rt_nontarget_0,nback_composite_0,nback_hits_1,nback_hit_rate_1,nback_correct_rejections_1,nback_rt_target_1,nback_rt_nontarget_1,nback_composite_1,nback_hits_2,nback_hit_rate_2,nback_correct_rejections_2,nback_rt_target_2,nback_rt_nontarget_2,nback_composite_2,rest_time,time_subexperiment,accuracy_subexperiment,accuracy_total,answer_correct_subexperiment,answer_incorrect_subexperiment,feedback_score_subexperiment,O2Hb_highest_peak,O2Hb_lowest_peak,O2Hb_average_peak,O2Hb_difference_peak,O2Hb_auc,nback_hits_avg,nback_hit_rate_avg,nback_rt_target_avg,nback_rt_non_target_avg,nback_composite_avg,trial_duration_1,trial_duration_2,trial_duration_3,trial_duration_4,trial_duration_mean,performance_subexperiment,feedback_score_tutorial_1,feedback_score_tutorial_2,feedback_score_tutorial_3,feedback_score_rest_1,O2Hb_highest_peak_trial_1,O2Hb_highest_peak_trial_2,O2Hb_highest_peak_trial_3,O2Hb_highest_peak_trial_4,O2Hb_lowest_peak_trial_1,O2Hb_lowest_peak_trial_2,O2Hb_lowest_peak_trial_3,O2Hb_lowest_peak_trial_4,O2Hb_average_peak_trial_1,O2Hb_average_peak_trial_2,O2Hb_average_peak_trial_3,O2Hb_average_peak_trial_4,O2Hb_difference_peak_trial_1,O2Hb_difference_peak_trial_2,O2Hb_difference_peak_trial_3,O2Hb_difference_peak_trial_4,O2Hb_auc_peak_trial_1,O2Hb_auc_peak_trial_2,O2Hb_auc_peak_trial_3,O2Hb_auc_peak_trial_4,cogload_group_binary
2,1,0,0.0,Low,8,100.0,100.0,429.662737500621,,0.23274068536105127,9,90.0,100.0,468.9398778007469,,0.191922257544156,7,87.5,93.75,395.24815713853707,1204.8808499821462,0.2213799063187806,300.00599999999986,121.68100000000004,50.0,46.875,2,2,5,0.016712155549419978,-0.023325425279151452,-7.942690291719259e-05,0.04003758082857143,-0.0023290808098383464,8.0,92.5,431.2835908133017,,0.21534761640799596,45.052000000000135,11.149999999999864,33.85400000000004,28.17800000000011,29.558500000000038,1.6915608031530673,1,3,8,1,0.016712155549419978,0.00999722884941998,0.011089454149419978,0.006186862506562837,-0.023325425279151452,-0.014101490122008592,-0.008317473136294306,-0.004494547507722877,-0.0004976351567152489,-0.0013717822620712093,0.0006553679814174582,0.0006320244911144778,0.04003758082857143,0.02409871897142857,0.019406927285714283,0.010681410014285714,-0.021438345197846962,-0.012323261638612101,0.020849453555156418,0.013552406137238689,1
2,2,0,0.0,Low,8,100.0,100.0,429.662737500621,,0.23274068536105127,9,90.0,100.0,468.9398778007469,,0.191922257544156,7,87.5,93.75,395.24815713853707,1204.8808499821462,0.2213799063187806,300.00599999999986,109.62699999999995,75.0,46.875,3,1,4,0.056554391006562836,-0.012456263564865734,0.00019418951040624255,0.06901065457142858,0.004424250339846834,8.0,92.5,431.2835908133017,,0.21534761640799596,42.835000000000036,31.192999999999984,12.032999999999902,25.688000000000102,27.937250000000006,2.684587781546143,1,3,8,1,0.056554391006562836,0.009049697292277125,0.006467077435134265,0.011557139863705695,-0.012456263564865734,-0.007904506279151449,-0.005547421050580019,-0.007889619307722875,0.00047572110493662603,-0.0005825207284807251,-0.0013131820273040197,-7.284510286892014e-05,0.06901065457142858,0.016954203571428572,0.012014498485714283,0.01944675917142857,0.01952276328141672,-0.017153243292846065,-0.013185255884445496,-0.0016231127688875122,0
2,3,0,0.0,Low,8,100.0,100.0,429.662737500621,,0.23274068536105127,9,90.0,100.0,468.9398778007469,,0.191922257544156,7,87.5,93.75,395.24815713853707,1204.8808499821462,0.2213799063187806,300.00599999999986,140.31499999999983,25.0,46.875,1,3,7,0.05952094143513426,-0.01544456687915145,6.059205472945506e-06,0.07496550831428571,0.006015675262312597,8.0,92.5,431.2835908133017,,0.21534761640799596,39.246999999999844,31.576000000000022,40.256000000000085,31.654999999999973,35.68349999999998,0.7006039205795399,1,3,8,1,0.019090580063705696,0.01247344800656284,0.016751036863705694,0.05952094143513426,-0.010652512264865733,-0.007351268264865734,-0.01544456687915145,-0.014632693422008593,-0.0004814443002012093,-0.00010021139482078617,-0.000652163901662332,0.0017551204281025434,0.02974309232857143,0.019824716271428573,0.03219560374285714,0.07415363485714285,-0.017733901315866798,-0.003167599469943449,-0.02488358632164936,0.048046262506983045,1
2,4,0,0.0,Low,8,100.0,100.0,429.662737500621,,0.23274068536105127,9,90.0,100.0,468.9398778007469,,0.191922257544156,7,87.5,93.75,395.24815713853707,1204.8808499821462,0.2213799063187806,300.00599999999986,89.45800000000008,25.0,46.875,1,3,7,0.03870671829227712,-0.021609589507722876,4.183414447095567e-05,0.060316307799999996,0.0064815138900608735,8.0,92.5,431.2835908133017,,0.21534761640799596,15.026000000000067,22.374000000000024,23.822999999999865,30.13000000000011,22.838250000000016,1.0946548006086272,1,3,8,1,0.012071313006562836,0.018663686292277125,0.03870671829227712,0.03204787929227713,-0.008128111536294306,-0.01054485545058002,-0.01077240742200859,-0.021609589507722876,-0.0008080077761680107,-0.0005239626287127333,0.00011326645253941,-0.0008014204490361583,0.02019942454285714,0.029208541742857145,0.04947912571428571,0.053657468800000004,-0.010314162310069437,-0.010814541550985214,0.0022789772364677115,-0.021487854515906582,1
2,5,0,0.0,Low,8,100.0,100.0,429.662737500621,,0.23274068536105127,9,90.0,100.0,468.9398778007469,,0.191922257544156,7,87.5,93.75,395.24815713853707,1204.8808499821462,0.2213799063187806,300.00599999999986,144.34500000000003,25.0,46.875,1,3,7,0.036959321863705694,-0.03480498799343717,-0.00011791403046493291,0.07176430985714286,-0.019628118258080394,8.0,92.5,431.2835908133017,,0.21534761640799596,28.631999999999834,35.16100000000006,42.17000000000007,40.552000000000135,36.628750000000025,0.6825239736545742,1,3,8,1,0.03141319089227712,0.036959321863705694,0.029712071892277123,0.018631506863705693,-0.015852114993437163,-0.017534150279151447,-0.03480498799343717,-0.01347693827915145,-0.0012627202378448232,-0.000785323072414361,-0.00010547437244049872,-0.0011818984017075561,0.04726530588571429,0.054493472142857144,0.0645170598857143,0.03210844514285714,-0.033483813360678655,-0.02699495475287307,-0.004759170587392494,-0.04243470889687707,1
2,6,0,0.0,Low,8,100.0,100.0,429.662737500621,,0.23274068536105127,9,90.0,100.0,468.9398778007469,,0.191922257544156,7,87.5,93.75,395.24815713853707,1204.8808499821462,0.2213799063187806,300.00599999999986,126.91899999999987,75.0,46.875,3,1,7,0.022419385720848554,-0.02751383813629431,-0.00019724202805788905,0.04993322385714287,-0.006286447571356657,8.0,92.5,431.2835908133017,,0.21534761640799596,25.311999999999898,34.152000000000044,22.338999999999942,47.71799999999985,32.38024999999993,2.316226712270602,1,3,8,1,0.02006510572084855,0.02208383629227712,0.022419385720848554,0.01429773007799141,-0.02751383813629431,-0.012799386764865734,-0.017426249707722878,-0.023441696279151446,-0.0009105205200449861,-0.0002887122016759573,-0.00037073327086347546,-0.0005681990715717805,0.04757894385714286,0.03488322305714286,0.03984563542857143,0.037739426357142856,-0.020932381081272003,-0.00964334673824577,-0.008082757200737894,-0.024480240748135765,1
2,7,0,0.0,Low,8,100.0,100.0,429.662737500621,,0.23274068536105127,9,90.0,100.0,468.9398778007469,,0.191922257544156,7,87.5,93.75,395.24815713853707,1204.8808499821462,0.2213799063187806,300.00599999999986,122.38200000000006,75.0,46.875,3,1,6,0.022061000577991405,-0.05714964613629431,-0.0003208918042982044,0.07921064671428571,-0.041158361693190995,8.0,92.5,431.2835908133017,,0.21534761640799596,37.70900000000029,18.524999999999636,34.03500000000031,33.766999999999825,31.009000000000015,2.418652649230867,1,3,8,1,0.022061000577991405,0.010109161463705694,0.015528332635134267,0.009641771349419983,-0.05714964613629431,-0.008279787593437163,-0.011713622693437162,-0.008666221593437162,-0.0004289720103848199,-0.0009364201613714689,0.0001636302066095613,-0.0012863420984127248,0.07921064671428571,0.018388949057142855,0.02724195532857143,0.018307992942857145,-0.015385735011001503,-0.01550425045789457,0.005131156882028606,-0.0386569724146453,1
2,8,0,0.0,Low,8,100.0,100.0,429.662737500621,,0.23274068536105127,9,90.0,100.0,468.9398778007469,,0.191922257544156,7,87.5,93.75,395.24815713853707,1204.8808499821462,0.2213799063187806,300.00599999999986,126.63200000000006,25.0,46.875,1,3,7,0.0773503295779914,-0.016459277707722878,-0.0002745880679384801,0.09380960728571427,-0.10277411434012705,8.0,92.5,431.2835908133017,,0.21534761640799596,33.31800000000021,20.679999999999836,27.38700000000017,45.246999999999844,31.658000000000015,0.7896898098426934,1,3,8,1,0.011264877877991407,0.006815956392277123,0.0773503295779914,0.03504908214941998,-0.009390783749151449,-0.00992159055058002,-0.008578853407722877,-0.011811847422008595,-0.0013350136895447413,-0.000831631162193432,0.00742989481846842,0.00011512207788018418,0.020655661627142857,0.016737546942857142,0.08592918298571428,0.046860929571428574,-0.04114066746896419,-0.015262025069874521,0.0517942591628494,0.005050130259016707,1
3,1,0,0.0,Low,8,100.0,100.0,432.0889249938773,,0.2314338420069827,10,100.0,100.0,444.56208002520725,,0.2249404627455627,8,100.0,96.875,543.1930249906145,2013.5157000040635,0.18409662016872885,300.0095,92.54500000000007,25.0,78.125,1,3,6,0.04982893521026895,-0.028836637956397713,0.0006062774951034188,0.07866557316666667,0.0006790235634853425,8.666666666666666,100.0,473.28134333656635,,0.2134903083070914,15.986999999999853,21.585000000000036,30.735000000000127,38.3119999999999,26.65474999999998,0.9379191326123869,4,1,7,1,0.042070663043602276,0.04982893521026895,0.03276319704360229,0.020884854543602286,-0.028836637956397713,-0.014498363956397713,-0.02133245545639771,-0.013309494123064381,-0.0025050317164302814,0.0021729468496643105,-0.0009074646902254687,-0.001108012463678825,0.07090730099999999,0.06432729916666667,0.0540956525,0.034194348666666666,-0.03469132801112093,0.04150573628813015,-0.026370953082743027,-0.01363171153022276,1
3,2,0,0.0,Low,8,100.0,100.0,432.0889249938773,,0.2314338420069827,10,100.0,100.0,444.56208002520725,,0.2249404627455627,8,100.0,96.875,543.1930249906145,2013.5157000040635,0.18409662016872885,300.0095,55.68599999999992,100.0,78.125,4,0,2,0.03195982821026896,-0.028652835789731046,-0.0004974089986589767,0.060612664000000004,0.0039950972453005225,8.666666666666666,100.0,473.28134333656635,,0.2134903083070914,25.40000000000009,9.707999999999856,9.07100000000014,15.042999999999893,14.805499999999995,6.7542467326331455,4,1,7,1,0.03195982821026896,0.016623654543602286,0.013313229876935617,0.02907820701026895,-0.022325239789731045,-0.020893228789731048,-0.02289056268973105,-0.028641067456397717,-0.0005904832698052173,0.00344220528857349,-0.009647399908969142,0.005107076060475692,0.054285068000000006,0.037516883333333334,0.03620379256666667,0.057719274466666665,-0.01390367747780906,0.026226681368623987,-0.06471722704701756,0.04817880478106127,0
3,3,0,0.0,Low,8,100.0,100.0,432.0889249938773,,0.2314338420069827,10,100.0,100.0,444.56208002520725,,0.2249404627455627,8,100.0,96.875,543.1930249906145,2013.5157000040635,0.18409662016872885,300.0095,95.07400000000007,75.0,78.125,3,1,3,0.029250302210268957,-0.02992660062306438,0.00011641922143287525,0.059176902833333336,-0.0031588727544669126,8.666666666666666,100.0,473.28134333656635,,0.2134903083070914,19.124000000000024,31.988000000000056,19.909999999999854,29.64500000000021,25.166750000000036,2.980122582375551,4,1,7,1,0.029250302210268957,0.022803244710268955,0.017913658043602287,0.010752756710268952,-0.017222609956397714,-0.013280847289731048,-0.008714046456397714,-0.02992660062306438,0.0006932356003814617,-0.0004899470582465883,0.0005301552492974266,-0.002472246143950912,0.04647291216666667,0.036084092000000005,0.026627704500000002,0.04067935733333333,0.011215581231407888,-0.014694297859175864,0.009020066925917601,-0.05374777427259951,0
3,4,0,0.0,Low,8,100.0,100.0,432.0889249938773,,0.2314338420069827,10,100.0,100.0,444.56208002520725,,0.2249404627455627,8,100.0,96.875,543.1930249906145,2013.5157000040635,0.18409662016872885,300.0095,93.19999999999982,100.0,78.125,4,0,2,0.020888236710268956,-0.02713638162306438,-0.0004346501122193014,0.04802461833333334,-0.03593361022849962,8.666666666666666,100.0,473.28134333656635,,0.2134903083070914,34.677999999999884,10.586999999999989,33.5630000000001,16.843999999999824,23.91799999999995,4.18095158458066,4,1,7,1,0.014913610710268954,0.007629487376935619,0.016640947876935618,0.020888236710268956,-0.02713638162306438,-0.01577639178973105,-0.008852452956397713,-0.009163305456397713,-0.0013006251178075134,-0.003519331099669856,-0.0004456642554131787,0.00023298293975867123,0.042049992333333334,0.023405879166666668,0.025493400833333332,0.030051542166666667,-0.04237686161507851,-0.029202887540344565,-0.01423024108060163,0.002598083955083959,0
3,5,0,0.0,Low,8,100.0,100.0,432.0889249938773,,0.2314338420069827,10,100.0,100.0,444.56208002520725,,0.2249404627455627,8,100.0,96.875,543.1930249906145,2013.5157000040635,0.18409662016872885,300.0095,78.32200000000012,75.0,78.125,3,1,3,0.035199233043602285,-0.02024537762306438,8.828857437626335e-05,0.055444610666666665,-0.0181190879459788,8.666666666666666,100.0,473.28134333656635,,0.2134903083070914,15.993000000000166,19.412000000000035,13.63299999999981,32.759000000000015,20.449250000000006,3.6676161717422393,4,1,7,1,0.035199233043602285,0.020168187043602286,0.011640093543602285,0.018221183543602287,-0.02024537762306438,-0.00892550712306438,-0.011836198456397712,-0.015348299456397714,-0.001222270268505928,-0.00025697650942119345,-0.003163555064233362,-0.0008929736074862973,0.055444610666666665,0.029093694166666666,0.023476291999999996,0.033569483,-0.01684097551745925,-0.00498845625158733,-0.03673524887104512,-0.024219333052609506,0
3,6,0,0.0,Low,8,100.0,100.0,432.0889249938773,,0.2314338420069827,10,100.0,100.0,444.56208002520725,,0.2249404627455627,8,100.0,96.875,543.1930249906145,2013.5157000040635,0.18409662016872885,300.0095,93.39200000000005,75.0,78.125,3,1,4,0.015639060043602285,-0.014652784456397715,-9.628621783240544e-05,0.030291844499999998,-0.022206568918235005,8.666666666666666,100.0,473.28134333656635,,0.2134903083070914,13.286000000000058,22.810999999999922,23.479000000000042,39.11000000000013,24.671500000000037,3.03994487566625,4,1,7,1,0.01399032537693562,0.011492282210268955,0.015639060043602285,0.007260145210268953,-0.014652784456397715,-0.010060875456397713,-0.0067423997897310475,-0.010354420956397714,-0.0034600034189097052,0.00012187483864668753,0.0007135935950274573,-0.00013914007794527323,0.028643109833333333,0.02155315766666667,0.022381459833333332,0.017614566166666668,-0.038689129896686374,0.002519023032681457,0.015259469853510068,-0.004420145480383872,0
3,7,0,0.0,Low,8,100.0,100.0,432.0889249938773,,0.2314338420069827,10,100.0,100.0,444.56208002520725,,0.2249404627455627,8,100.0,96.875,543.1930249906145,2013.5157000040635,0.18409662016872885,300.0095,69.53499999999985,75.0,78.125,3,1,6,0.03149011946026895,-0.027323088789731043,0.0001649550633239932,0.05881320825,0.03308391467620631,8.666666666666666,100.0,473.28134333656635,,0.2134903083070914,12.649999999999864,17.182999999999993,21.610000000000127,22.479000000000042,18.480500000000006,4.058331755093205,4,1,7,1,0.03149011946026895,0.014372128543602286,0.019845086043602286,0.010754937543602287,-0.027323088789731043,-0.008952130456397714,-0.009117611289731048,-0.009405765456397715,-0.00027828859065979903,-0.00025653144069965906,0.0002160955980842679,0.0006465073368639609,0.05881320825,0.023324259,0.028962697333333336,0.020160703000000002,-0.0031477047388583923,-0.003953798542161213,0.003988067195396853,0.010235260332566002,1
3,8,0,0.0,Low,8,100.0,100.0,432.0889249938773,,0.2314338420069827,10,100.0,100.0,444.56208002520725,,0.2249404627455627,8,100.0,96.875,543.1930249906145,2013.5157000040635,0.18409662016872885,300.0095,82.37299999999982,100.0,78.125,4,0,7,0.04301389471026895,-0.027136219456397714,-2.914032170563e-06,0.07015011416666667,0.013490044469667561,8.666666666666666,100.0,473.28134333656635,,0.2134903083070914,15.670999999999822,21.593000000000075,31.396999999999935,13.711999999999989,20.593249999999955,4.85596008400812,4,1,7,1,0.019308724043602284,0.04301389471026895,0.03729636571026895,0.020722860710268954,-0.027136219456397714,-0.01939051745639771,-0.025475114456397715,-0.01647287662306438,-0.0035632874525220923,-0.0007740129559329639,-0.00010635841366321795,0.001412914343648582,0.0464449435,0.06240441216666666,0.06277148016666667,0.03719573733333333,-0.0479325473188751,-0.015609531056318557,-0.003544255013921596,0.016192346693752604,1
4,1,3,12.5,Low,8,100.0,100.0,404.70643748994917,,0.2470926843175888,4,40.0,100.0,649.7102749708574,,0.06156590335868429,8,100.0,96.875,789.0615499636624,1578.8971000583842,0.12673282585446619,300.0152999999999,128.1916,75.0,84.375,3,1,4,0.1510828619534992,-0.11217327679650081,0.00043548572403597337,0.26325613875000003,-0.23572844788052993,6.666666666666667,80.0,614.4927541414896,,0.1451304711769131,36.62760000000003,30.31549999999993,32.14350000000002,26.01679999999999,31.27584999999999,2.398016360866292,5,1,7,4,0.10772067070349918,0.10987614070349917,0.07743856695349918,0.05889494732849919,-0.1078958555465008,-0.07755056929650081,-0.11217327679650081,-0.06918731054650082,-0.00018355342873430268,0.0015133346185394962,-0.009707803513670031,-0.0034022345516329737,0.21561652625,0.18742671,0.18961184375,0.128082257875,-0.005944207574298241,0.04267794336915716,-0.2925619969528369,-0.06577256851666799,0
4,2,3,12.5,Low,8,100.0,100.0,404.70643748994917,,0.2470926843175888,4,40.0,100.0,649.7102749708574,,0.06156590335868429,8,100.0,96.875,789.0615499636624,1578.8971000583842,0.12673282585446619,300.0152999999999,80.10100000000011,100.0,84.375,4,0,3,0.09837793195349918,-0.1412273017965008,-0.0009330656893785006,0.23960523374999998,0.08216777594910467,6.666666666666667,80.0,614.4927541414896,,0.1451304711769131,26.881000000000085,21.955999999999904,16.11200000000008,18.595000000000027,20.886000000000024,4.787896198410413,5,1,7,4,0.06727470695349919,0.0981172182034992,0.09243973820349918,0.04738094432849919,-0.1054185305465008,-0.09204219179650082,-0.1412273017965008,-0.08465438179650081,-0.002295236566833542,0.005096623013174737,-0.0067953656220657984,-0.007511795587619642,0.17269323749999999,0.19015941000000003,0.23366704,0.132035326125,-0.05446818255777061,0.09838502329877766,-0.0972666948118317,-0.09687130689368781,0
4,3,3,12.5,Low,8,100.0,100.0,404.70643748994917,,0.2470926843175888,4,40.0,100.0,649.7102749708574,,0.06156590335868429,8,100.0,96.875,789.0615499636624,1578.8971000583842,0.12673282585446619,300.0152999999999,132.47000000000003,50.0,84.375,2,2,5,0.15685635945349918,-0.1470387230465008,-0.0007652490734410988,0.30389508249999997,-0.10342185343553195,6.666666666666667,80.0,614.4927541414896,,0.1451304711769131,26.55399999999986,35.00700000000006,44.77600000000007,29.345000000000027,33.920500000000004,1.474034875665158,5,1,7,4,0.1185489994534992,0.11604103320349918,0.15685635945349918,0.06107310732849918,-0.09913679554650083,-0.08047022929650083,-0.1470387230465008,-0.06423582054650082,-0.011407372103235676,0.0014022709748298598,0.00595541836587032,-0.004782880330027229,0.21768579500000002,0.1965112625,0.30389508249999997,0.125308927875,-0.278171113536473,0.044883176072263636,0.2548824779672023,-0.11466467603450062,1
4,4,3,12.5,Low,8,100.0,100.0,404.70643748994917,,0.2470926843175888,4,40.0,100.0,649.7102749708574,,0.06156590335868429,8,100.0,96.875,789.0615499636624,1578.8971000583842,0.12673282585446619,300.0152999999999,135.61299999999983,100.0,84.375,4,0,5,0.13481058445349917,-0.13482432929650082,-0.0019709068044296086,0.26963491375,-0.05902303917393237,6.666666666666667,80.0,614.4927541414896,,0.1451304711769131,37.557000000000016,45.200999999999794,27.93300000000022,28.88499999999999,34.894000000000005,2.8658222043904393,5,1,7,4,0.08246150820349918,0.13481058445349917,0.09179722570349919,0.11126064820349918,-0.08923083804650081,-0.13482432929650082,-0.09163442929650081,-0.12190442179650082,-0.005920483928031747,0.002804524707284865,-0.007560244119129107,-0.0008026782107057177,0.17169234625,0.26963491375,0.183431655,0.23316507,-0.20760534523797022,0.1189356756740311,-0.1968733678064376,-0.017942040110673213,1
4,5,3,12.5,Low,8,100.0,100.0,404.70643748994917,,0.2470926843175888,4,40.0,100.0,649.7102749708574,,0.06156590335868429,8,100.0,96.875,789.0615499636624,1578.8971000583842,0.12673282585446619,300.0152999999999,99.10299999999984,100.0,84.375,4,0,6,0.08524942445349919,-0.12269475054650082,-0.0009003950880681468,0.207944175,0.061559998490776285,6.666666666666667,80.0,614.4927541414896,,0.1451304711769131,26.011999999999944,28.71900000000005,19.759000000000015,30.49499999999989,26.246249999999975,3.81006810496738,5,1,7,4,0.08524942445349919,0.07095570557849919,0.0685601719534992,0.08434345820349919,-0.08832802554650081,-0.049406882796500816,-0.07871861054650083,-0.12269475054650082,-0.003910404872823511,0.0030722827381176065,3.1155795619657795e-06,0.0027706754028696897,0.17357745,0.120362588375,0.14727878250000004,0.20703820875,-0.09012707178169663,0.08172947282403809,-0.00027299350648296583,0.06150541397918369,1
4,6,3,12.5,Low,8,100.0,100.0,404.70643748994917,,0.2470926843175888,4,40.0,100.0,649.7102749708574,,0.06156590335868429,8,100.0,96.875,789.0615499636624,1578.8971000583842,0.12673282585446619,300.0152999999999,100.94200000000001,75.0,84.375,3,1,7,0.17042438320349917,-0.11663260804650082,0.0011391191665451306,0.28705699125,0.30837530222863757,6.666666666666667,80.0,614.4927541414896,,0.1451304711769131,42.55799999999999,13.076999999999998,20.829999999999927,27.48700000000008,25.988,2.8859473603201478,5,1,7,4,0.17042438320349917,0.05706866695349918,0.04827038945349918,0.10482771945349917,-0.11663260804650082,-0.04858812304650082,-0.07394331804650081,-0.04856407579650082,0.006427846431636584,-0.0008811710183531695,-0.0009448014699116047,0.006946814836961239,0.28705699125,0.10565679,0.12221370749999999,0.15339179525,0.2600050750479428,-0.008611070807257926,-0.017619940719884056,0.1541493673322915,1
4,7,3,12.5,Low,8,100.0,100.0,404.70643748994917,,0.2470926843175888,4,40.0,100.0,649.7102749708574,,0.06156590335868429,8,100.0,96.875,789.0615499636624,1578.8971000583842,0.12673282585446619,300.0152999999999,98.49499999999989,75.0,84.375,3,1,7,0.0955786794534992,-0.08623311429650082,-0.0006382987152595552,0.18181179375,0.12202782722955013,6.666666666666667,80.0,614.4927541414896,,0.1451304711769131,12.75,32.61799999999994,33.35699999999997,22.700000000000045,25.35624999999999,2.9578506285432598,5,1,7,4,0.0955786794534992,0.06401807492849919,0.07695661820349918,0.06956420195349919,-0.03825133804650081,-0.06383442179650083,-0.08623311429650082,-0.04996368054650082,0.007822714424654846,-0.0010661970329612204,0.001877073421799825,-0.0005605579710121269,0.1338300175,0.12785249672500001,0.16318973250000002,0.11952788250000002,0.08294800726045129,-0.03145393290043369,0.05789970409951692,-0.009825945405631628,1
4,8,3,12.5,Low,8,100.0,100.0,404.70643748994917,,0.2470926843175888,4,40.0,100.0,649.7102749708574,,0.06156590335868429,8,100.0,96.875,789.0615499636624,1578.8971000583842,0.12673282585446619,300.0152999999999,113.47700000000009,100.0,84.375,4,0,8,0.1278821807034992,-0.08683390304650082,-0.0014452293881199066,0.21471608375,-0.1033325137417411,6.666666666666667,80.0,614.4927541414896,,0.1451304711769131,30.037000000000035,35.75,34.9670000000001,12.722999999999956,28.369250000000022,3.5249433805969463,5,1,7,4,0.06950650570349919,0.1278821807034992,0.0789627842034992,0.09145624445349919,-0.07435053304650081,-0.08683390304650082,-0.08058609929650082,-0.051887643046500814,-0.004943983783930873,-0.0010605197086249241,-0.0013363214453714042,-0.0005990520789912007,0.14385703875,0.21471608375,0.15954888350000002,0.1433438875,-0.13919195714913435,-0.03595314934962429,-0.04524337975195425,-0.005572702449649414,1
10,1,0,0.0,Low,8,100.0,100.0,413.2961000141222,,0.24195727953054244,10,100.0,100.0,738.8993500149809,,0.1353364297829908,8,100.0,100.0,832.9409375146497,,0.1200565316172147,300.0045,169.0250000000001,75.0,68.75,3,1,3,0.3588574125,-0.250749075,0.042488772014273896,0.6096064875,4.721974463286301,8.666666666666666,100.0,661.7121291812509,,0.16578341364358265,42.87000000000012,38.500999999999976,15.807999999999993,23.40000000000009,30.144750000000045,2.4879954220884195,1,1,7,1,0.32413886249999996,0.16916035250000003,0.21726202125000002,0.22789332499999998,-0.250749075,-0.13744224625,-0.11253047625,-0.11733413625,0.038115518640254656,0.03598866832864172,0.04005714359489825,0.0532620261045463,0.5748879375,0.30660259875000007,0.3297924975,0.34522746125,1.5506891570930224,1.3118380152288418,0.5508853223607983,0.8616278313436538,0
10,2,0,0.0,Low,8,100.0,100.0,413.2961000141222,,0.24195727953054244,10,100.0,100.0,738.8993500149809,,0.1353364297829908,8,100.0,100.0,832.9409375146497,,0.1200565316172147,300.0045,92.92099999999982,75.0,68.75,3,1,4,0.18690197375,-0.1553605125,0.042929758758345295,0.34226248625,3.9711160855831613,8.666666666666666,100.0,661.7121291812509,,0.16578341364358265,28.159999999999854,27.248000000000047,25.673000000000002,31.45600000000013,28.13425000000001,2.6657899179825293,1,1,7,1,0.18690197375,0.17612427874999997,0.18602736125,0.13099665624999998,-0.06441935675,-0.11779072375,-0.12868505375,-0.03777803462499999,0.03720939284237711,0.044005163257214285,0.055166735586048725,0.05150776028455521,0.2513213305,0.29391500249999997,0.314712415,0.16877469087499997,0.9674101208180019,1.107583578546815,1.3041673529557407,0.6713683165500979,0
10,3,0,0.0,Low,8,100.0,100.0,413.2961000141222,,0.24195727953054244,10,100.0,100.0,738.8993500149809,,0.1353364297829908,8,100.0,100.0,832.9409375146497,,0.1200565316172147,300.0045,184.56799999999998,0.0,68.75,0,4,6,0.32394195000000003,-0.17101732999999997,0.041853866338845705,0.49495928,7.607308742941736,8.666666666666666,100.0,661.7121291812509,,0.16578341364358265,47.65599999999995,41.21499999999992,47.697000000000116,51.27999999999997,46.96199999999999,0.0,1,1,7,1,0.32394195000000003,0.19104694000000003,0.22127358749999998,0.27928140125,-0.17101732999999997,-0.06341776625,-0.1173330225,-0.13242133,0.040910599221755925,0.044288919872182836,0.04252078641065293,0.042142589547329856,0.49495928,0.25446470625,0.33860661,0.41170273125,1.8648232147282047,1.7325437781573005,1.9391557997421969,1.9368957985875301,1
10,4,0,0.0,Low,8,100.0,100.0,413.2961000141222,,0.24195727953054244,10,100.0,100.0,738.8993500149809,,0.1353364297829908,8,100.0,100.0,832.9409375146497,,0.1200565316172147,300.0045,122.03199999999993,100.0,68.75,4,0,5,0.32470125999999994,-0.16822593749999998,0.04172947932740789,0.4929271974999999,5.186915132126575,8.666666666666666,100.0,661.7121291812509,,0.16578341364358265,23.336000000000013,32.40499999999997,36.049999999999955,35.84999999999991,31.910249999999962,3.13378929967644,1,1,7,1,0.21542569,0.17713917499999995,0.32470125999999994,0.14445008125,-0.11584705749999999,-0.16822593749999998,-0.09561973,-0.0818619975,0.03265244348538516,0.0358143237406959,0.052830164022600136,0.04635378125751827,0.3312727475,0.3453651124999999,0.42032098999999995,0.22631207875,0.6878555380132425,1.086634115020395,1.7924574312184314,1.3053499958870056,1
10,5,0,0.0,Low,8,100.0,100.0,413.2961000141222,,0.24195727953054244,10,100.0,100.0,738.8993500149809,,0.1353364297829908,8,100.0,100.0,832.9409375146497,,0.1200565316172147,300.0045,157.93900000000008,100.0,68.75,4,0,4,0.47937778750000004,-0.3217113,0.04363342966193769,0.8010890875000001,6.543342346824396,8.666666666666666,100.0,661.7121291812509,,0.16578341364358265,44.011000000000195,37.562999999999874,45.72900000000004,33.78899999999999,40.273000000000025,2.4830531621682006,1,1,7,1,0.19460601000000002,0.39025116249999997,0.28524674250000004,0.18822498374999996,-0.10431276250000002,-0.09254522750000002,-0.3217113,-0.07444610574999999,0.047576287425861986,0.04402061706458455,0.02548895428082802,0.044589707697128854,0.29891877250000004,0.48279638999999996,0.6069580425000001,0.26267108949999995,1.9888116332001153,1.5533349796689744,1.1118261920103352,1.2704322976450015,0
10,6,0,0.0,Low,8,100.0,100.0,413.2961000141222,,0.24195727953054244,10,100.0,100.0,738.8993500149809,,0.1353364297829908,8,100.0,100.0,832.9409375146497,,0.1200565316172147,300.0045,116.29199999999992,50.0,68.75,2,2,6,0.26590386875,-0.165617845,0.04139325513065663,0.43152171375000004,5.000702198700581,8.666666666666666,100.0,661.7121291812509,,0.16578341364358265,35.67399999999998,26.462999999999965,26.263000000000147,31.958999999999833,30.08974999999998,1.6616954278450315,1,1,7,1,0.26590386875,0.22851245875,0.133319995,0.15654563124999998,-0.110474805,-0.03806262125,-0.05539543999999999,-0.15640141375,0.0458266187119894,0.053944735466516965,0.030620918620710952,0.040890281327633726,0.37637867375,0.26657508,0.188715435,0.312947045,1.5320060494099117,1.312921761949523,0.7408937850712133,1.0565260915429513,1
10,7,0,0.0,Low,8,100.0,100.0,413.2961000141222,,0.24195727953054244,10,100.0,100.0,738.8993500149809,,0.1353364297829908,8,100.0,100.0,832.9409375146497,,0.1200565316172147,300.0045,104.90600000000018,75.0,68.75,3,1,3,0.34950282499999996,-0.157071925,0.04162781103575606,0.50657475,4.3157053160281915,8.666666666666666,100.0,661.7121291812509,,0.16578341364358265,23.70900000000006,18.713999999999942,31.996000000000095,33.69399999999996,27.028250000000014,2.7748744369317273,1,1,7,1,0.34950282499999996,0.21485017000000003,0.20653549625,0.17279971000000002,-0.08357989625,-0.14519054725,-0.11679348625000001,-0.157071925,0.04500416915607807,0.01636170323653313,0.04699328235049179,0.03386734175872324,0.43308272124999997,0.36004071725000003,0.32332898250000003,0.32987163500000005,0.9607832403888107,0.26945348737394326,1.3989616217076768,0.9603139454477292,0
10,8,0,0.0,Low,8,100.0,100.0,413.2961000141222,,0.24195727953054244,10,100.0,100.0,738.8993500149809,,0.1353364297829908,8,100.0,100.0,832.9409375146497,,0.1200565316172147,300.0045,138.31500000000005,75.0,68.75,3,1,4,0.38838310125,-0.17727750499999997,0.0436958154277266,0.5656606062499999,5.62226923003717,8.666666666666666,100.0,661.7121291812509,,0.16578341364358265,26.8449999999998,26.144000000000233,47.68899999999985,37.63700000000017,34.578750000000014,2.1689621516104536,1,1,7,1,0.18578899875000002,0.38838310125,0.2089543,0.1633271475,-0.06174361945000001,-0.051383342,-0.17727750499999997,-0.12558546125,0.025987605927721185,0.048830287175043986,0.03822155143086547,0.04362738125485045,0.24753261820000003,0.43976644324999997,0.386231805,0.28891260875,0.6406816220965508,1.1528621165440276,1.7420834609422067,1.5429122141918763,0
15,1,0,0.0,Low,7,87.5,100.0,415.6692285822438,,0.21050391509239985,10,100.0,100.0,482.19574000686407,,0.2073846608403809,8,100.0,96.875,677.1924125059741,834.1540000401437,0.14766851806556208,300.00249999999994,174.07399999999984,75.0,62.5,3,1,7,0.1743711255188091,-0.11438379190976233,0.0010436548270408054,0.2887549174285714,0.1562865865224966,8.333333333333334,95.83333333333333,525.019127031694,,0.18851903133278092,50.61900000000014,18.80099999999993,39.91599999999994,37.218000000000075,36.63850000000002,2.0470270344037,2,1,6,3,0.055405643275951946,0.04779760909023766,0.03685866794738052,0.1743711255188091,-0.08816864062404806,-0.05664478619547664,-0.08782623405261948,-0.11438379190976233,0.0023844682711488133,0.0010726228341857104,0.003464468118537221,0.004243214570488385,0.1435742839,0.1044423952857143,0.124684902,0.2887549174285714,0.11387357661867342,0.019320567523972543,0.1328803026437146,0.1090868709552915,1
15,2,0,0.0,Low,7,87.5,100.0,415.6692285822438,,0.21050391509239985,10,100.0,100.0,482.19574000686407,,0.2073846608403809,8,100.0,96.875,677.1924125059741,834.1540000401437,0.14766851806556208,300.00249999999994,105.14300000000003,50.0,62.5,2,2,8,0.12126748511880907,-0.08202683175261948,0.0006825446815333346,0.20329431687142854,-0.025941513756439126,8.333333333333334,95.83333333333333,525.019127031694,,0.18851903133278092,50.085000000000036,13.327999999999975,17.103000000000065,32.16300000000001,28.169750000000022,1.7749536293364323,2,1,6,3,0.038477172661666226,0.04021458666166623,0.05702303937595195,0.12126748511880907,-0.08202683175261948,-0.058606129766905206,-0.06615240833833377,-0.05506015619547662,0.0009682123101688299,-0.002612863683345421,0.0018459285947253785,-0.003207870480004488,0.1205040044142857,0.09882071642857143,0.12317544771428572,0.1763276413142857,0.046494701800823185,-0.029854283150688624,0.028380867562181215,-0.07321760681536865,1
15,3,0,0.0,Low,7,87.5,100.0,415.6692285822438,,0.21050391509239985,10,100.0,100.0,482.19574000686407,,0.2073846608403809,8,100.0,96.875,677.1924125059741,834.1540000401437,0.14766851806556208,300.00249999999994,167.7829999999999,75.0,62.5,3,1,9,0.20259637694738047,-0.1152942284811909,0.0005018439398983626,0.3178906054285714,0.10666273323585121,8.333333333333334,95.83333333333333,525.019127031694,,0.18851903133278092,47.266999999999825,31.153999999999996,43.05000000000018,50.22000000000003,42.92275000000001,1.7473251364369706,2,1,6,3,0.07223801551880908,0.03645907890452337,0.09362073551880909,0.20259637694738047,-0.07445663560976234,-0.04526863562404805,-0.10717984533833376,-0.1152942284811909,0.0014347621881249438,-0.0008108909022123321,0.002190324181462467,-0.001052391194341566,0.14669465112857144,0.08172771452857142,0.20080058085714286,0.3178906054285714,0.06563721034230302,-0.022726978929257433,0.08918281621635263,-0.04624608934293453,1
15,4,0,0.0,Low,7,87.5,100.0,415.6692285822438,,0.21050391509239985,10,100.0,100.0,482.19574000686407,,0.2073846608403809,8,100.0,96.875,677.1924125059741,834.1540000401437,0.14766851806556208,300.00249999999994,127.3599999999999,100.0,62.5,4,0,7,0.15461746980452334,-0.0869568747669052,-0.0005425129642359118,0.24157434457142854,-0.034605149957941006,8.333333333333334,95.83333333333333,525.019127031694,,0.18851903133278092,39.221000000000004,42.19899999999984,31.202999999999975,19.10900000000015,32.93299999999999,3.036467980445147,2,1,6,3,0.09797412409023766,0.04121367809023767,0.15461746980452334,0.08967982880452337,-0.08443594619547663,-0.06479545848119092,-0.0869568747669052,-0.08041796762404807,-0.004132919129937442,-0.0010169014666343119,0.0048494548614417855,0.0035061656341636386,0.1824100702857143,0.10600913657142859,0.24157434457142854,0.17009779642857142,-0.15472239829648146,-0.0399639653263173,0.14061585534020082,0.04405125363465465,1
15,5,0,0.0,Low,7,87.5,100.0,415.6692285822438,,0.21050391509239985,10,100.0,100.0,482.19574000686407,,0.2073846608403809,8,100.0,96.875,677.1924125059741,834.1540000401437,0.14766851806556208,300.00249999999994,151.72399999999993,75.0,62.5,3,1,9,0.18240399409023764,-0.08205028205261948,0.0007724378990544813,0.2644542761428571,0.1573764733165782,8.333333333333334,95.83333333333333,525.019127031694,,0.18851903133278092,50.23699999999985,32.53300000000013,31.15300000000002,40.89300000000003,38.70400000000001,1.9377842083505576,2,1,6,3,0.05195993309023766,0.037110420233094805,0.18240399409023764,0.04090449394738053,-0.05537209648119091,-0.033661420766905197,-0.08205028205261948,-0.05276957348119092,-0.00018625784065998827,-0.0020264829840912326,0.0038761408507865473,-0.001473570925639312,0.10733202957142857,0.070771841,0.2644542761428571,0.09367406742857146,-0.007669588695064483,-0.06177202018505994,0.1100895984601313,-0.053790361738988546,1
15,6,0,0.0,Low,7,87.5,100.0,415.6692285822438,,0.21050391509239985,10,100.0,100.0,482.19574000686407,,0.2073846608403809,8,100.0,96.875,677.1924125059741,834.1540000401437,0.14766851806556208,300.00249999999994,121.98799999999983,50.0,62.5,2,2,9,0.08672879394738052,-0.07930328462404805,-0.000749008218692583,0.16603207857142857,-0.04020701133939884,8.333333333333334,95.83333333333333,525.019127031694,,0.18851903133278092,11.322999999999865,36.59899999999993,25.605999999999995,51.003000000000156,31.132749999999987,1.6060258088347485,2,1,6,3,0.04452566251880908,0.08672879394738052,0.032738252375951946,0.028117122090237662,-0.07930328462404805,-0.06926888008119092,-0.0512623751811909,-0.07553236333833377,-0.018015541937257615,0.0006799095970859611,0.0026449097950267744,-0.00020811711217250833,0.12382894714285714,0.15599767402857145,0.08400062755714285,0.10364948542857143,-0.16294250519962214,0.023165284704937915,0.06169468203627761,-0.010201339618173648,1
15,7,0,0.0,Low,7,87.5,100.0,415.6692285822438,,0.21050391509239985,10,100.0,100.0,482.19574000686407,,0.2073846608403809,8,100.0,96.875,677.1924125059741,834.1540000401437,0.14766851806556208,300.00249999999994,129.42499999999973,25.0,62.5,1,3,9,0.20867086609023763,-0.10919159733833375,-0.0005975501549889322,0.3178624634285714,0.12916113160486348,8.333333333333334,95.83333333333333,525.019127031694,,0.18851903133278092,21.057999999999993,43.12699999999995,31.53800000000001,35.58100000000013,32.82600000000002,0.7615914214342285,2,1,6,3,0.05768582166166623,0.20867086609023763,0.044876173090237656,0.04341953966166623,-0.09699215076690519,-0.09348840776690519,-0.10919159733833375,-0.04822483843833377,-0.001033511828209677,0.0049453452220778165,-0.005977913565778779,0.0031577986355953444,0.15467797242857143,0.3021592738571428,0.1540677704285714,0.0916443781,-0.020115790435636022,0.20207349217903617,-0.1734339103523542,0.100356964417501,1
15,8,0,0.0,Low,7,87.5,100.0,415.6692285822438,,0.21050391509239985,10,100.0,100.0,482.19574000686407,,0.2073846608403809,8,100.0,96.875,677.1924125059741,834.1540000401437,0.14766851806556208,300.00249999999994,126.25599999999986,50.0,62.5,2,2,9,0.21735813409023766,-0.14047484290976234,0.0013506871611266753,0.357832977,0.22429656318956948,8.333333333333334,95.83333333333333,525.019127031694,,0.18851903133278092,17.460999999999785,33.152000000000044,37.11299999999983,38.5300000000002,31.563999999999965,1.584083132682805,2,1,6,3,0.21735813409023766,0.027098032090237655,0.07426775894738051,0.15361105266166625,-0.14047484290976234,-0.02616928390976234,-0.06910839862404806,-0.11652239733833378,0.008742818819458879,0.000590834565834735,-0.0025096979203665486,0.00045413639964506005,0.357832977,0.053267315999999995,0.14337615757142858,0.27013345,0.13362895181637435,0.018588585148248724,-0.08818914840184523,0.014279805190016627,1
16,1,9,37.5,Low,8,100.0,100.0,493.8367499999572,,0.20249606777950138,9,90.0,100.0,545.0597000000622,,0.16511952727378254,8,100.0,100.0,511.57862500002693,,0.19547337420517666,300.0060000000001,132.40499999999997,75.0,68.75,3,1,3,0.12722525826232087,-0.08084061173767916,0.0004870534892590804,0.20806587000000004,0.052671069097046636,8.333333333333334,96.66666666666667,516.8250250000154,,0.1876963230861535,22.014000000000124,17.745999999999867,39.093000000000075,19.003999999999905,24.464249999999993,3.0656979061283307,1,1,5,2,0.10724601826232084,0.04007372159565418,0.06909883126232085,0.12722525826232087,-0.06621145140434581,-0.02966266075434582,-0.08084061173767916,-0.047317943404345815,0.0010826380712620628,0.0008255135844755787,-0.0048234408453731795,0.020328226071175008,0.17345746966666664,0.06973638235,0.149939443,0.17454320166666668,0.020905854551897005,0.012969891936705148,-0.17913370487311586,0.12922032861169114,0
16,2,9,37.5,Low,8,100.0,100.0,493.8367499999572,,0.20249606777950138,9,90.0,100.0,545.0597000000622,,0.16511952727378254,8,100.0,100.0,511.57862500002693,,0.19547337420517666,300.0060000000001,54.61400000000003,100.0,68.75,4,0,2,0.12662139826232086,-0.0883915350710125,-0.0008050209844558694,0.21501293333333335,-0.05772410159338531,8.333333333333334,96.66666666666667,516.8250250000154,,0.1876963230861535,20.013000000000147,9.212999999999965,12.410000000000082,17.60199999999986,14.809500000000014,6.752422431547311,1,1,5,2,0.12662139826232086,0.037996315595654175,0.04692857992898752,0.031043573262320847,-0.0883915350710125,-0.0650255100710125,-0.03454863173767916,-0.039578136737679154,0.0019261365873582178,-0.014730991087232224,0.005835181739965636,-0.008360895378910771,0.21501293333333335,0.10302182566666668,0.08147721166666667,0.07062171,0.033125523157980744,-0.10514120769507762,0.06010006333888537,-0.0910343419330431,0
16,3,9,37.5,Low,8,100.0,100.0,493.8367499999572,,0.20249606777950138,9,90.0,100.0,545.0597000000622,,0.16511952727378254,8,100.0,100.0,511.57862500002693,,0.19547337420517666,300.0060000000001,72.32999999999993,75.0,68.75,3,1,3,0.06251726776232085,-0.07156880173767914,-0.0009211632646539604,0.1340860695,-0.02865091140503702,8.333333333333334,96.66666666666667,516.8250250000154,,0.1876963230861535,11.91800000000012,23.139999999999873,26.42100000000005,13.89799999999991,18.844249999999988,3.979993897342693,1,1,5,2,0.06251726776232085,0.04644922159565418,0.046741893262320845,0.04484324492898751,-0.07156880173767914,-0.05299390673767915,-0.05364676507101249,-0.05280557007101249,-0.014972205867323965,0.0027703343875392157,-0.0017811077072166469,0.002463168528072799,0.1340860695,0.09944312833333332,0.10038865833333332,0.097648815,-0.14685065632223845,0.056282365168822235,-0.04333847101495569,0.02051695387201613,0
16,4,9,37.5,Low,8,100.0,100.0,493.8367499999572,,0.20249606777950138,9,90.0,100.0,545.0597000000622,,0.16511952727378254,8,100.0,100.0,511.57862500002693,,0.19547337420517666,300.0060000000001,77.66500000000019,75.0,68.75,3,1,4,0.06279057159565417,-0.05496130890434583,0.0003285241977012237,0.11775188049999999,0.01865978006160375,8.333333333333334,96.66666666666667,516.8250250000154,,0.1876963230861535,19.75500000000011,21.177999999999884,26.937000000000126,13.16599999999994,20.259000000000015,3.702058344439506,1,1,5,2,0.04496589826232084,0.05162111259565419,0.06279057159565417,0.03544922042898751,-0.017758224737679153,-0.05496130890434583,-0.043997216737679146,-0.022283026571012485,0.002754100852693755,-0.0015736125614107044,-0.000768014128052947,-0.0006713193426250985,0.06272412299999999,0.10658242150000002,0.10678778833333331,0.057732246999999993,0.04746371981970013,-0.02872820630098251,-0.020164138215116312,-0.005679463726253563,0
16,5,9,37.5,Low,8,100.0,100.0,493.8367499999572,,0.20249606777950138,9,90.0,100.0,545.0597000000622,,0.16511952727378254,8,100.0,100.0,511.57862500002693,,0.19547337420517666,300.0060000000001,81.91300000000001,75.0,68.75,3,1,5,0.05649060159565419,-0.056738608404345824,-0.0002748254690449885,0.11322921000000001,-0.010642246443434797,8.333333333333334,96.66666666666667,516.8250250000154,,0.1876963230861535,24.391000000000076,27.452999999999975,16.791999999999916,15.947000000000116,21.14575000000002,3.5468120071409115,1,1,5,2,0.05649060159565419,0.05370845659565418,0.03318352659565418,0.04990028992898751,-0.056160201737679154,-0.056738608404345824,-0.029531015071012485,-0.03975445507101249,-0.0021656634206887442,0.001922090678301657,-0.0002534341717760745,-0.00020845540661486664,0.11265080333333334,0.11044706500000001,0.06271454166666666,0.08965474500000001,-0.048440967973281394,0.04808721460797229,-0.0032053065593709296,-0.002456048994579574,1
16,6,9,37.5,Low,8,100.0,100.0,493.8367499999572,,0.20249606777950138,9,90.0,100.0,545.0597000000622,,0.16511952727378254,8,100.0,100.0,511.57862500002693,,0.19547337420517666,300.0060000000001,60.605999999999995,75.0,68.75,3,1,6,0.06106348826232085,-0.05876946673767915,-0.0009596302278559539,0.119832955,-0.023588881595384525,8.333333333333334,96.66666666666667,516.8250250000154,,0.1876963230861535,13.787000000000035,18.876999999999953,15.130999999999858,17.17600000000016,16.24275,4.617444706099644,1,1,5,2,0.02138588236232085,0.027826104928987513,0.04178188159565418,0.06106348826232085,-0.03340851007101248,-0.03575474340434582,-0.03468677173767915,-0.05876946673767915,-0.004588726540569957,-0.004012709677308122,-0.0015049268204910134,0.004857100843825822,0.05479439243333333,0.06358084833333333,0.07646865333333333,0.119832955,-0.053926270666437924,-0.067396858272603,-0.020336206963357875,0.051821690170986104,1
16,7,9,37.5,Low,8,100.0,100.0,493.8367499999572,,0.20249606777950138,9,90.0,100.0,545.0597000000622,,0.16511952727378254,8,100.0,100.0,511.57862500002693,,0.19547337420517666,300.0060000000001,59.15099999999984,75.0,68.75,3,1,6,0.07436726976232085,-0.07960798507101248,-0.0004923791833845491,0.15397525483333332,-0.08614226501655456,8.333333333333334,96.66666666666667,516.8250250000154,,0.1876963230861535,9.22199999999998,11.628999999999905,25.055000000000064,15.523999999999887,15.357499999999959,4.883607357968432,1,1,5,2,0.062460534595654184,0.06626488492898752,0.05410736159565418,0.07436726976232085,-0.05895709340434582,-0.03605070173767915,-0.06526708840434582,-0.07960798507101248,0.012503005144375775,0.004228161256753608,-0.001397737879994483,-0.004803842859524168,0.121417628,0.10231558666666668,0.11937445,0.15397525483333332,0.08806291018591793,0.040408109022453675,-0.03168439657516742,-0.05144353008107094,1
16,8,9,37.5,Low,8,100.0,100.0,493.8367499999572,,0.20249606777950138,9,90.0,100.0,545.0597000000622,,0.16511952727378254,8,100.0,100.0,511.57862500002693,,0.19547337420517666,300.0060000000001,61.825000000000045,0.0,68.75,0,4,7,0.1217762415956542,-0.14330093840434582,0.001272381669141543,0.26507718,-0.04191229164577026,8.333333333333334,96.66666666666667,516.8250250000154,,0.1876963230861535,23.922000000000025,4.207000000000107,9.218000000000075,24.477999999999838,15.456250000000011,0.0,1,1,5,2,0.1217762415956542,0.011067174428987513,0.06673627692898751,0.09105548492898752,-0.07319090490434582,-0.015562635804345819,-0.14330093840434582,-0.08555694673767915,0.0012915463379274655,-0.0011683914171235978,-0.010819545554214735,0.00555018359898037,0.19496714650000002,0.026629810233333332,0.21003721533333333,0.17661243166666668,0.02861220147514621,-0.0022579958580919673,-0.07389894711983348,0.12374429330349976,1
20,1,11,45.83,High,8,100.0,71.875,552.7621249998447,378.0111777776053,0.18090964535608894,9,90.0,100.0,470.9427555559766,,0.19110602921102274,4,50.0,96.875,882.4512749988571,1376.9506999997247,0.05666035215379428,300.00699999999995,184.24399999999991,75.0,75.0,3,1,4,0.0786274553265858,-0.06834947778855706,0.0017459595512176842,0.14697693311514287,0.1186654790842689,7.0,80.0,635.3853851848928,,0.14289200890696865,24.554999999999836,35.677000000000135,46.909999999999854,28.27300000000014,33.85374999999999,2.2154118819923947,3,2,8,1,0.06901827304087152,0.03604571375515723,0.0786274553265858,0.04274624218372867,-0.028157331530557054,-0.04691319624484276,-0.06834947778855706,-0.052874731244842765,0.006277017203507395,0.0004181282225869911,0.001354568994647991,0.0014623232263566023,0.09717560457142857,0.08295891,0.14697693311514287,0.09562097342857143,0.14099108693278045,0.015185009409047108,0.061481357778381554,0.02936494950738759,0
20,2,11,45.83,High,8,100.0,71.875,552.7621249998447,378.0111777776053,0.18090964535608894,9,90.0,100.0,470.9427555559766,,0.19110602921102274,4,50.0,96.875,882.4512749988571,1376.9506999997247,0.05666035215379428,300.00699999999995,124.048,100.0,75.0,4,0,4,0.039708295898014376,-0.041332155816271345,0.0007273198172409676,0.08104045171428573,0.0765464667837133,7.0,80.0,635.3853851848928,,0.14289200890696865,29.365999999999985,30.412000000000035,22.423000000000002,44.83399999999983,31.758749999999964,3.1487385366237683,3,2,8,1,0.039708295898014376,0.027592277640871514,0.022519567898014375,0.03786757746944295,-0.041127909387699904,-0.032802656101985635,-0.021352461530557056,-0.03713303953055706,0.0026296988222502993,0.0021152101866654914,-0.0031032232534771885,0.0016539641339446693,0.08083620528571428,0.06039493374285715,0.043872029428571435,0.07500061700000002,0.07272417180528568,0.06003904530391247,-0.06263743943800514,0.06577398318971785,0
20,3,11,45.83,High,8,100.0,71.875,552.7621249998447,378.0111777776053,0.18090964535608894,9,90.0,100.0,470.9427555559766,,0.19110602921102274,4,50.0,96.875,882.4512749988571,1376.9506999997247,0.05666035215379428,300.00699999999995,122.94100000000003,75.0,75.0,3,1,4,0.06924784161230008,-0.05659647981627134,0.00023473464354644756,0.1258443214285714,0.11663740728028366,7.0,80.0,635.3853851848928,,0.14289200890696865,31.187000000000126,30.44100000000003,30.208999999999833,33.39499999999998,31.307999999999993,2.3955538520505946,3,2,8,1,0.04130275104087151,0.06924784161230008,0.024396801183728663,0.02795715689801437,-0.05659647981627134,-0.055130121244842754,-0.03910116795912849,-0.03051147095912848,0.0012035081003764355,0.0034449355773252736,0.0024492864111901043,0.0018690558412274778,0.09789923085714286,0.12437796285714284,0.06349796914285716,0.05846862785714285,0.03594319478587156,0.09866326390074048,0.06934708091176545,0.055187256924953305,0
20,4,11,45.83,High,8,100.0,71.875,552.7621249998447,378.0111777776053,0.18090964535608894,9,90.0,100.0,470.9427555559766,,0.19110602921102274,4,50.0,96.875,882.4512749988571,1376.9506999997247,0.05666035215379428,300.00699999999995,109.7170000000001,75.0,75.0,3,1,4,0.040869599183728664,-0.047493420244842766,0.0016306169548428978,0.08836301942857143,0.1760475122052321,7.0,80.0,635.3853851848928,,0.14289200890696865,43.7030000000002,20.478999999999814,31.25200000000018,16.144000000000005,27.89450000000005,2.688702073885528,3,2,8,1,0.040869599183728664,0.025706827612300087,0.03182983061230009,0.03347815018372866,-0.022022270387699914,-0.04158380381627134,-0.045738602244842774,-0.047493420244842766,0.004455928624425204,-0.004103831364230969,0.0033627599994750395,0.0031527051161541397,0.06289186957142857,0.06729063142857142,0.07756843285714286,0.08097157042857142,0.18495847283592892,-0.0741655323463384,0.09808005747017867,0.0381452793643018,0
20,5,11,45.83,High,8,100.0,71.875,552.7621249998447,378.0111777776053,0.18090964535608894,9,90.0,100.0,470.9427555559766,,0.19110602921102274,4,50.0,96.875,882.4512749988571,1376.9506999997247,0.05666035215379428,300.00699999999995,121.19999999999982,50.0,75.0,2,2,5,0.03855275004087151,-0.047151739244842776,0.00043756313263939727,0.08570448928571428,0.033791560450311425,7.0,80.0,635.3853851848928,,0.14289200890696865,35.299999999999955,21.322999999999865,22.478000000000065,43.90300000000002,30.750999999999976,1.6259633833046092,3,2,8,1,0.031030484040871515,0.019294558798014373,0.03855275004087151,0.035762846469442944,-0.02765233495912848,-0.03333025747341419,-0.047151739244842776,-0.028911291101985623,0.0027391964117871475,0.0001276626689666555,-0.0027579380086710592,0.00034066054884240236,0.058682819,0.052624816271428565,0.08570448928571428,0.06467413757142856,0.09097718587532852,0.003098663833184412,-0.05619433812138064,0.01335966024287183,1
20,6,11,45.83,High,8,100.0,71.875,552.7621249998447,378.0111777776053,0.18090964535608894,9,90.0,100.0,470.9427555559766,,0.19110602921102274,4,50.0,96.875,882.4512749988571,1376.9506999997247,0.05666035215379428,300.00699999999995,95.93500000000017,50.0,75.0,2,2,5,0.03936611604087152,-0.04478580981627134,0.0006707714445457486,0.08415192585714286,0.09385496088309063,7.0,80.0,635.3853851848928,,0.14289200890696865,17.26800000000003,29.154999999999973,19.534999999999854,31.608000000000175,24.391500000000008,2.0498944304368316,3,2,8,1,0.024542315183728656,0.03147135930372866,0.02822456846944294,0.03936611604087152,-0.03659706438769992,-0.03629808567341419,-0.022851086101985628,-0.03659530024484276,0.0018392696723720844,0.0015590595646871885,0.002247804657329509,0.0027982920561441323,0.06113937957142858,0.06776944497714285,0.05107565457142857,0.07596141628571429,0.028342154418679173,0.042781069994836635,0.03960951453448479,0.07838215947447963,1
20,7,11,45.83,High,8,100.0,71.875,552.7621249998447,378.0111777776053,0.18090964535608894,9,90.0,100.0,470.9427555559766,,0.19110602921102274,4,50.0,96.875,882.4512749988571,1376.9506999997247,0.05666035215379428,300.00699999999995,121.57999999999993,100.0,75.0,4,0,4,0.05685384332658581,-0.05324196553055705,0.001503221403983013,0.11009580885714286,0.17263138825000734,7.0,80.0,635.3853851848928,,0.14289200890696865,25.82900000000018,33.35699999999997,42.41300000000001,23.609999999999673,31.302249999999958,3.1946585309362785,3,2,8,1,0.05685384332658581,0.01563247875515723,0.03225787104087151,0.03859340775515723,-0.05324196553055705,-0.032102887816271346,-0.03474495710198563,-0.038914519673414194,0.005666038374886961,-0.0011333634681834712,0.0003788288518955344,0.005557258160737929,0.11009580885714286,0.04773536657142857,0.06700282814285713,0.07750792742857143,0.13468641460711683,-0.0351073592492701,0.015766501873287465,0.09890804861321473,0
20,8,11,45.83,High,8,100.0,71.875,552.7621249998447,378.0111777776053,0.18090964535608894,9,90.0,100.0,470.9427555559766,,0.19110602921102274,4,50.0,96.875,882.4512749988571,1376.9506999997247,0.05666035215379428,300.00699999999995,131.64000000000033,75.0,75.0,3,1,5,0.05815363161230009,-0.06709191453055706,0.0012907271243942989,0.12524554614285716,0.15682043456029487,7.0,80.0,635.3853851848928,,0.14289200890696865,15.882000000000062,31.363000000000284,42.259000000000015,42.13599999999997,32.91000000000008,2.278942570647214,3,2,8,1,0.04978569075515723,0.05322980589801437,0.03657178518372866,0.05815363161230009,-0.04037384638769992,-0.06709191453055706,-0.031208338816271337,-0.05533305124484277,0.003077819530073198,0.002832260692826632,0.0021624625444907537,0.0004015195844412347,0.09015953714285715,0.12032172042857142,0.067780124,0.11348668285714286,0.042936383507362355,0.08378513855147092,0.08712222446511032,0.015138222443631139,1
21,1,14,58.33,High,8,100.0,100.0,467.17842500009965,,0.21405098062903627,9,90.0,100.0,378.0193999999331,,0.23808301901970091,8,100.0,93.75,488.4584750000158,443.86820000022453,0.2047256934174328,300.00299999999993,123.9090000000001,100.0,78.125,4,0,1,0.07803907332519296,-0.08324858917480704,-0.0009373200608806516,0.16128766249999998,-0.23533099326927873,8.333333333333334,96.66666666666667,444.5521000000162,,0.21895323102205666,35.807000000000016,19.55600000000004,22.58199999999988,26.894999999999982,26.20999999999998,3.8153376573826816,1,1,6,1,0.044449253200192954,0.049234640450192955,0.07803907332519296,0.04893281132519294,-0.06416419979980706,-0.03905892442480705,-0.08324858917480704,-0.030144333674807053,-0.0059215597222818305,-0.007599041613036938,-0.0018359701988221301,0.0024512543121003134,0.10861345300000001,0.08829356487500001,0.16128766249999998,0.07907714499999999,-0.20075814203335254,-0.1332325376745989,-0.03765438714079264,0.04509148644448022,0
21,2,14,58.33,High,8,100.0,100.0,467.17842500009965,,0.21405098062903627,9,90.0,100.0,378.0193999999331,,0.23808301901970091,8,100.0,93.75,488.4584750000158,443.86820000022453,0.2047256934174328,300.00299999999993,89.47000000000003,100.0,78.125,4,0,2,0.06858361207519297,-0.11715651667480705,-0.0006620069538474511,0.18574012875,-0.03801645576156146,8.333333333333334,96.66666666666667,444.5521000000162,,0.21895323102205666,26.937000000000126,26.644999999999982,17.867999999999938,21.16599999999994,23.153999999999996,4.318908180012094,1,1,6,1,0.04352127810019294,0.04475227220019294,0.06858361207519297,0.038181747325192944,-0.030145942674807056,-0.048931851674807056,-0.11715651667480705,-0.06282720792480706,-0.0016030785674451243,-0.002848047061979488,-0.0014083736021747548,0.0013853462542067659,0.073667220775,0.093684123875,0.18574012875,0.10100895525,-0.03967282016356373,-0.07031052981522241,-0.021856012180531577,0.023058372283968127,0
21,3,14,58.33,High,8,100.0,100.0,467.17842500009965,,0.21405098062903627,9,90.0,100.0,378.0193999999331,,0.23808301901970091,8,100.0,93.75,488.4584750000158,443.86820000022453,0.2047256934174328,300.00299999999993,69.54300000000012,100.0,78.125,4,0,2,0.08930581082519295,-0.07033221742480705,0.0011165604374592203,0.15963802825,-0.01856547367584624,8.333333333333334,96.66666666666667,444.5521000000162,,0.21895323102205666,18.298999999999978,24.427000000000135,14.68899999999985,15.142000000000053,18.139250000000004,5.512907093733201,1,1,6,1,0.08930581082519295,0.05390521582519295,0.03930927120019294,0.03937086482519295,-0.07033221742480705,-0.04113461517480704,-0.026474063174807057,-0.03586808392480705,0.0024721546050595726,-0.00048085088140942755,0.0027630132245715184,-0.002511004780140551,0.15963802825,0.09503983099999999,0.065783334375,0.07523894875,0.04018909592155295,-0.010348176022067612,0.03478747720659637,-0.025226104848162234,0
21,4,14,58.33,High,8,100.0,100.0,467.17842500009965,,0.21405098062903627,9,90.0,100.0,378.0193999999331,,0.23808301901970091,8,100.0,93.75,488.4584750000158,443.86820000022453,0.2047256934174328,300.00299999999993,73.78600000000006,75.0,78.125,3,1,2,0.05461360795019295,-0.05806691917480704,-0.0005509508308637477,0.11268052712499999,-0.0641532712654315,8.333333333333334,96.66666666666667,444.5521000000162,,0.21895323102205666,17.798000000000002,22.692000000000007,17.623000000000047,18.0150000000001,19.03200000000004,3.940731399747785,1,1,6,1,0.04989143707519295,0.045568123825192944,0.05461360795019295,0.05063347682519295,-0.05806691917480704,-0.04579079417480706,-0.03085169967480706,-0.05396584442480705,-0.002009475825687516,-0.007341692166914091,0.0004964711202492293,0.006588258597913363,0.10795835625,0.09135891800000001,0.08546530762500001,0.10459932125,-0.03202860579320557,-0.15069476979643773,0.007285179615898765,0.0885892224935309,0
21,5,14,58.33,High,8,100.0,100.0,467.17842500009965,,0.21405098062903627,9,90.0,100.0,378.0193999999331,,0.23808301901970091,8,100.0,93.75,488.4584750000158,443.86820000022453,0.2047256934174328,300.00299999999993,98.08699999999999,25.0,78.125,1,3,5,0.08624653082519294,-0.14507085779980702,-0.0017034165894067265,0.23131738862499995,-0.16697751674429592,8.333333333333334,96.66666666666667,444.5521000000162,,0.21895323102205666,29.832999999999856,7.904999999999973,32.67399999999998,29.94100000000003,25.08824999999996,0.9964824170677524,1,1,6,1,0.04823416680019295,0.028954202325192944,0.04699056457519295,0.08624653082519294,-0.036119786549807055,-0.011328105862307054,-0.06248266417480706,-0.14507085779980702,-0.0007864534706190404,0.003658812160925586,-0.0045275263019106515,-0.0047296626243242676,0.08435395335000001,0.0402823081875,0.10947322875000001,0.23131738862499995,-0.0208846721438177,0.020440200705171767,-0.13579207291909823,-0.12005188230324135,1
21,6,14,58.33,High,8,100.0,100.0,467.17842500009965,,0.21405098062903627,9,90.0,100.0,378.0193999999331,,0.23808301901970091,8,100.0,93.75,488.4584750000158,443.86820000022453,0.2047256934174328,300.00299999999993,73.02300000000014,75.0,78.125,3,1,5,0.08873935470019295,-0.11346043167480704,-0.0003880364026619374,0.202199786375,-0.03322750790572268,8.333333333333334,96.66666666666667,444.5521000000162,,0.21895323102205666,17.30899999999997,18.77500000000009,18.162000000000035,20.646999999999935,18.723250000000007,4.005714819809594,1,1,6,1,0.08873935470019295,0.04653546295019295,0.047803025075192955,0.039675905825192946,-0.11346043167480704,-0.03167956954980706,-0.040497418049807055,-0.06750098792480705,4.196847861031034e-05,-0.0002715550481181965,-0.000318474451475585,-0.00671051147071264,0.202199786375,0.0782150325,0.08830044312500002,0.10717689375,-0.00016452222595250698,-0.005959800790022188,-0.005718301450235802,-0.11006464492816959,1
21,7,14,58.33,High,8,100.0,100.0,467.17842500009965,,0.21405098062903627,9,90.0,100.0,378.0193999999331,,0.23808301901970091,8,100.0,93.75,488.4584750000158,443.86820000022453,0.2047256934174328,300.00299999999993,74.52800000000002,100.0,78.125,4,0,4,0.07321426995019294,-0.06575246442480705,-0.0002533897693977114,0.13896673437499998,-0.016124123780461852,8.333333333333334,96.66666666666667,444.5521000000162,,0.21895323102205666,13.200000000000045,19.91899999999987,20.811999999999898,24.162000000000262,19.52325000000002,5.122098011345442,1,1,6,1,0.07316874832519295,0.055192479575192945,0.045936950075192946,0.04943423582519294,-0.06575246442480705,-0.06233664417480706,-0.037544737299807056,-0.037278176924807054,-0.0035658717226496636,-0.004421089858486704,0.0011113367640867636,0.0030643790963632285,0.13892121275,0.11752912375,0.083481687375,0.08671241275,-0.040277050140753556,-0.07887266315341174,0.021087844826503638,0.056716472063933564,0
21,8,14,58.33,High,8,100.0,100.0,467.17842500009965,,0.21405098062903627,9,90.0,100.0,378.0193999999331,,0.23808301901970091,8,100.0,93.75,488.4584750000158,443.86820000022453,0.2047256934174328,300.00299999999993,90.41399999999976,50.0,78.125,2,2,7,0.10590113832519295,-0.10084632667480706,0.0007858490498975279,0.20674746500000002,0.03410715352048729,8.333333333333334,96.66666666666667,444.5521000000162,,0.21895323102205666,20.746000000000095,24.799999999999727,20.957000000000335,23.910999999999603,22.60349999999994,2.21204680691044,1,1,6,1,0.10590113832519295,0.034301254575192945,0.04963040582519295,0.04673750945019294,-0.10084632667480706,-0.03906069879980705,-0.06613797292480705,-0.028292567799807055,0.0013308105020999493,0.0006362114427191356,-0.0027905828655363945,0.002152672033330327,0.20674746500000002,0.073361953375,0.11576837875000001,0.07503007725,0.024302859525379805,0.014824596588073363,-0.05247378790683325,0.04369073891659902,1
22,1,14,58.33,High,8,100.0,100.0,415.0930750001862,,0.24090982486266516,10,100.0,100.0,384.19540999966557,,0.2602842131822633,8,100.0,100.0,416.17636249975476,,0.24028274791809912,300.00800000000004,71.298,50.0,87.5,2,2,4,0.10228048064955493,-0.09489805506473081,-0.00013405112543845178,0.19717853571428573,0.03004089162949186,8.666666666666666,100.0,405.1549491665355,,0.24715892865434252,21.608999999999924,11.97199999999998,20.66300000000001,16.260999999999967,17.62624999999997,2.8366782497695247,1,2,5,1,0.07785057922098348,0.10228048064955493,0.056900634935269194,0.04327235636384062,-0.09489805506473081,-0.09284795649330226,-0.06608621935044509,0.0031081066495549045,-0.012258911140591463,0.02968159708354108,0.0017399594455561388,0.020414406164450817,0.1727486342857143,0.1951284371428572,0.12298685428571429,0.04016424971428572,-0.237408282376043,0.2960846411656095,0.03390929142286364,0.16215515963733246,0
22,2,14,58.33,High,8,100.0,100.0,415.0930750001862,,0.24090982486266516,10,100.0,100.0,384.19540999966557,,0.2602842131822633,8,100.0,100.0,416.17636249975476,,0.24028274791809912,300.00800000000004,63.480999999999995,100.0,87.5,4,0,4,0.05423895922098348,-0.051375116493302245,-0.00010664852925931836,0.10561407571428572,0.0535350173622845,8.666666666666666,100.0,405.1549491665355,,0.24715892865434252,24.037000000000035,12.150000000000091,11.092999999999847,19.422000000000025,16.6755,5.9968216845072115,1,2,5,1,0.05423895922098348,0.02195662379241204,0.03166513193526919,0.03279996636384062,-0.03404079220758795,-0.0367241493504451,-0.043001045064730806,-0.051375116493302245,0.004074998513214869,-0.009729286218131489,0.007161677482210402,0.00019993616021269094,0.08827975142857142,0.05868077314285714,0.074666177,0.08417508285714287,0.08820480822601445,-0.09829143786046479,0.06519632009891649,0.003843165465484369,0
22,3,14,58.33,High,8,100.0,100.0,415.0930750001862,,0.24090982486266516,10,100.0,100.0,384.19540999966557,,0.2602842131822633,8,100.0,100.0,416.17636249975476,,0.24028274791809912,300.00800000000004,74.90000000000009,100.0,87.5,4,0,4,0.09624112064955491,-0.07603239220758795,0.0002399078802185404,0.17227351285714287,0.020120724014832392,8.666666666666666,100.0,405.1549491665355,,0.24715892865434252,17.079999999999927,25.624000000000024,19.03300000000013,16.74000000000001,19.619250000000022,5.097034800005091,1,2,5,1,0.04777117064955489,0.09624112064955491,0.09378506064955491,0.030517590649554904,-0.052451060779016526,-0.07603239220758795,-0.06578223649330224,-0.020440569064730806,0.0031820195385552858,-0.004892282200919585,0.007382966285639811,-0.0019904161497333894,0.10022223142857142,0.17227351285714287,0.15956729714285717,0.05095815971428571,0.04687809705754517,-0.11458847454960819,0.12491240115275504,-0.021822880013027707,0
22,4,14,58.33,High,8,100.0,100.0,415.0930750001862,,0.24090982486266516,10,100.0,100.0,384.19540999966557,,0.2602842131822633,8,100.0,100.0,416.17636249975476,,0.24028274791809912,300.00800000000004,56.41599999999994,100.0,87.5,4,0,3,0.05502517950669776,-0.03971680649330223,0.0011999842839143812,0.094741986,-0.021977638107380917,8.666666666666666,100.0,405.1549491665355,,0.24715892865434252,17.560999999999922,14.224999999999909,17.13500000000022,10.526999999999816,14.861999999999966,6.728569506123014,1,2,5,1,0.048487189220983475,0.019899336509554905,0.028309507506697758,0.039403221649554905,-0.03971680649330223,-0.02186082220758795,-0.02351723506473081,-0.01256466606473081,0.003371915664890582,-0.003893613625805774,-0.002021240177519564,0.003372760129768124,0.08820399571428571,0.04176015871714285,0.051826742571428566,0.05196788771428572,0.051502472016216036,-0.046941827485320886,-0.030195093473019047,0.017262544701859568,0
22,5,14,58.33,High,8,100.0,100.0,415.0930750001862,,0.24090982486266516,10,100.0,100.0,384.19540999966557,,0.2602842131822633,8,100.0,100.0,416.17636249975476,,0.24028274791809912,300.00800000000004,74.99099999999999,100.0,87.5,4,0,5,0.08354449779241203,-0.055134463636159384,-0.0017064895515201263,0.13867896142857142,-0.059744479766265554,8.666666666666666,100.0,405.1549491665355,,0.24715892865434252,15.048000000000002,26.479000000000042,18.317000000000007,19.386999999999944,19.80775,5.048528984867034,1,2,5,1,0.06255073493526918,0.08354449779241203,0.05931753779241204,0.04852052207812634,-0.052079910779016525,-0.04668997220758795,-0.055134463636159384,-0.03816138463615938,-0.011413142297254176,-0.0008147322864802241,0.007126651428516199,0.0028117012959571757,0.1146306457142857,0.13023447,0.11445200142857143,0.08668190671428572,-0.1447560357512945,-0.02079398761895783,0.11616426244169126,0.03796537213085435,1
22,6,14,58.33,High,8,100.0,100.0,415.0930750001862,,0.24090982486266516,10,100.0,100.0,384.19540999966557,,0.2602842131822633,8,100.0,100.0,416.17636249975476,,0.24028274791809912,300.00800000000004,65.97300000000018,75.0,87.5,3,1,5,0.04204255064955491,-0.05259261649330225,0.0009618671778423532,0.09463516714285716,0.06606502381406017,8.666666666666666,100.0,405.1549491665355,,0.24715892865434252,9.151000000000067,22.21199999999999,22.583000000000084,19.44699999999989,18.348250000000007,4.08758328450942,1,2,5,1,0.04204255064955491,0.031316792078126335,0.0313569006495549,0.013079974649554902,-0.0011545589218736672,-0.026679452636159378,-0.05259261649330225,-0.020362852207587955,0.018228761510751115,-0.0036638394252695786,0.003308103537697763,-0.004628348255855308,0.043197109571428575,0.057996244714285716,0.08394951714285714,0.03344282685714286,0.12103288397969085,-0.07333721629469334,0.06761864137749607,-0.04651262791715979,1
22,7,14,58.33,High,8,100.0,100.0,415.0930750001862,,0.24090982486266516,10,100.0,100.0,384.19540999966557,,0.2602842131822633,8,100.0,100.0,416.17636249975476,,0.24028274791809912,300.00800000000004,73.77700000000004,75.0,87.5,3,1,6,0.09603370493526919,-0.09364058649330223,-0.002193718780651859,0.18967429142857142,-0.12227612206857438,8.666666666666666,100.0,405.1549491665355,,0.24715892865434252,11.745000000000118,10.174999999999955,34.60400000000004,19.758000000000038,19.070500000000038,3.9327757531265486,1,2,5,1,0.09603370493526919,0.04536673636384062,0.042939286363840624,0.0502542396495549,-0.09364058649330223,-0.03802504077901652,-0.04832212935044509,-0.0625918193504451,-0.02029689734430464,0.005819376385944767,0.0018624935629936547,-0.0010412760814251174,0.18967429142857142,0.08339177714285714,0.09126141571428571,0.112846059,-0.19536727621519467,0.04693002599931942,0.06063225215366292,-0.013773195734667107,1
22,8,14,58.33,High,8,100.0,100.0,415.0930750001862,,0.24090982486266516,10,100.0,100.0,384.19540999966557,,0.2602842131822633,8,100.0,100.0,416.17636249975476,,0.24028274791809912,300.00800000000004,87.13099999999986,100.0,87.5,4,0,5,0.07536285779241204,-0.08603547935044509,0.002640033933592128,0.16139833714285712,0.2258276879552648,8.666666666666666,100.0,405.1549491665355,,0.24715892865434252,17.56399999999985,18.064000000000078,20.67100000000005,30.83199999999988,21.782749999999965,4.590788582708803,1,2,5,1,0.06270739207812634,0.05712205779241205,0.07387384522098348,0.07536285779241204,-0.08603547935044509,-0.05789282077901652,-0.07117160163615938,-0.03930446306473081,-0.0004043341228037271,0.00448674481906833,-0.004013320079239231,0.00864028274100096,0.14874287142857143,0.11501487857142857,0.14504544685714285,0.11466732085714285,-0.007211698130535349,0.07074329281777361,-0.07101503036478596,0.24690658198520873,1
23,1,22,91.67,High,8,100.0,100.0,406.88449999970544,,0.24576999123847773,9,90.0,100.0,518.1873666660977,,0.17368235080496075,8,100.0,96.875,520.1505625013851,914.4311000018206,0.19225202702675864,300.00339999999994,112.83200000000011,75.0,84.375,3,1,3,0.08538004079690723,-0.2294818384780928,-0.0008228763439743201,0.31486187927500003,-0.06782390144857603,8.333333333333334,96.66666666666667,481.7408097223961,,0.20390145635673237,48.192999999999984,16.947999999999865,16.980999999999995,17.60200000000009,24.930999999999983,3.0083029160482955,4,2,6,1,0.07267401792190721,0.08538004079690723,0.07218952479690723,0.06233439404690722,-0.20198307832809279,-0.04604945582809279,-0.2294818384780928,-0.019637644703092785,-0.005549311837624088,-0.0013349285555256567,-0.004805694857880986,0.007781740418006089,0.27465709625,0.13142949662500003,0.30167136327500005,0.08197203875,-0.25698201722435576,-0.020880851290068503,-0.07315255471896095,0.05396427949510948,0
23,2,22,91.67,High,8,100.0,100.0,406.88449999970544,,0.24576999123847773,9,90.0,100.0,518.1873666660977,,0.17368235080496075,8,100.0,96.875,520.1505625013851,914.4311000018206,0.19225202702675864,300.00339999999994,54.565000000000055,100.0,84.375,4,0,3,0.056373346671907215,-0.04201026495309278,-0.0005696250917066313,0.09838361162499999,-0.008886330920629251,8.333333333333334,96.66666666666667,481.7408097223961,,0.20390145635673237,16.94699999999989,15.912000000000035,7.578999999999951,20.166000000000167,15.15100000000001,6.600224407629855,4,2,6,1,0.037967872814407215,0.056373346671907215,0.032384787671907216,0.04039896579690721,-0.03100754845309278,-0.03501628170309278,-0.04201026495309278,-0.035891934703092786,-0.004729314044824756,0.0015741655091207288,-0.004738920496507638,0.003311930682718476,0.0689754212675,0.091389628375,0.07439505262499999,0.0762909005,-0.06983167707632532,0.021306523011104247,-0.02597811517259775,0.03954508502286201,0
23,3,22,91.67,High,8,100.0,100.0,406.88449999970544,,0.24576999123847773,9,90.0,100.0,518.1873666660977,,0.17368235080496075,8,100.0,96.875,520.1505625013851,914.4311000018206,0.19225202702675864,300.00339999999994,67.07199999999989,75.0,84.375,3,1,4,0.06934243042190721,-0.05459740707809278,-0.0004277417310712569,0.1239398375,-0.004589939604773427,8.333333333333334,96.66666666666667,481.7408097223961,,0.20390145635673237,25.500999999999976,15.724999999999909,15.195000000000164,21.784999999999854,19.551499999999976,3.8360228115489905,4,2,6,1,0.06934243042190721,0.01240976354690722,0.04452380792190721,0.05169755167190722,-0.05459740707809278,-0.04367715357809278,-0.04826324332809278,-0.04568592257809278,0.002420329145966936,-0.004525141897569232,0.000950942968683133,-0.009526387756626436,0.1239398375,0.056086917124999996,0.09278705124999999,0.09738347424999999,0.05678762029491052,-0.06097757031312607,0.011352788717244142,-0.0798899153580114,0
23,4,22,91.67,High,8,100.0,100.0,406.88449999970544,,0.24576999123847773,9,90.0,100.0,518.1873666660977,,0.17368235080496075,8,100.0,96.875,520.1505625013851,914.4311000018206,0.19225202702675864,300.00339999999994,62.587999999999965,100.0,84.375,4,0,4,0.06903730167190722,-0.07101805582809277,1.6853808825062492e-06,0.14005535749999998,-0.12249189680291553,8.333333333333334,96.66666666666667,481.7408097223961,,0.20390145635673237,18.174999999999955,13.855000000000018,18.291000000000167,17.395999999999958,16.929250000000025,5.906936219856158,4,2,6,1,0.028732751046907215,0.03439441692190722,0.06639047667190723,0.041337269171907214,-0.032917548203092784,-0.04956602957809278,-0.07101805582809277,-0.04873684082809278,-0.0032529397836496853,-0.011641537045841907,-0.0002046439047318783,-0.008723091425046521,0.06165029925,0.08396044650000001,0.1374085325,0.09007410999999999,-0.05239134884296488,-0.13374791577505935,-0.004998459802895899,-0.08945143016784636,0
23,5,22,91.67,High,8,100.0,100.0,406.88449999970544,,0.24576999123847773,9,90.0,100.0,518.1873666660977,,0.17368235080496075,8,100.0,96.875,520.1505625013851,914.4311000018206,0.19225202702675864,300.00339999999994,81.74800000000005,50.0,84.375,2,2,6,0.05614519042190722,-0.06853573582809279,-0.0005159539146431623,0.12468092625000002,0.053992280218343264,8.333333333333334,96.66666666666667,481.7408097223961,,0.20390145635673237,18.66599999999994,22.912000000000035,15.720000000000027,38.909999999999854,24.051999999999964,2.0788292033926523,4,2,6,1,0.03219807292190722,0.05614519042190722,0.04566973592190722,0.05080279542190722,-0.040402953953092784,-0.06853573582809279,-0.05036984207809278,-0.05551348582809278,0.0014093402645497229,-0.0009048995379694622,-0.00278009326986325,-0.0007129053994284272,0.072601026875,0.12468092625000002,0.096039578,0.10631628125,0.02240294121499345,-0.01915356289315864,-0.03851867821510485,-0.016018886368093975,1
23,6,22,91.67,High,8,100.0,100.0,406.88449999970544,,0.24576999123847773,9,90.0,100.0,518.1873666660977,,0.17368235080496075,8,100.0,96.875,520.1505625013851,914.4311000018206,0.19225202702675864,300.00339999999994,61.03899999999999,100.0,84.375,4,0,4,0.05764219417190722,-0.08609529957809278,0.0010576010140848757,0.14373749375,0.13132837299335615,8.333333333333334,96.66666666666667,481.7408097223961,,0.20390145635673237,14.960000000000036,12.22199999999998,15.298999999999978,24.766000000000076,16.811750000000018,5.948220738471599,4,2,6,1,0.049780592421907216,0.049043394171907215,0.05764219417190722,0.048611971671907214,-0.08609529957809278,-0.03215733470309279,-0.035978160578092784,-0.04475713207809279,-0.0022177827801334064,-0.0008016599962479188,-0.0007595985039579638,0.0062194241172259055,0.135875892,0.081200728875,0.09362035475,0.09336910375,-0.028729424124083858,-0.00907269064114996,-0.010176220579277216,0.1000712739032928,0
23,7,22,91.67,High,8,100.0,100.0,406.88449999970544,,0.24576999123847773,9,90.0,100.0,518.1873666660977,,0.17368235080496075,8,100.0,96.875,520.1505625013851,914.4311000018206,0.19225202702675864,300.00339999999994,115.62799999999993,100.0,84.375,4,0,6,0.08660124292190723,-0.06111110457809278,0.00043849774238340777,0.1477123475,0.011821214590256798,8.333333333333334,96.66666666666667,481.7408097223961,,0.20390145635673237,14.396999999999935,29.81600000000003,46.18100000000004,40.41300000000001,32.701750000000004,3.057940324294571,4,2,6,1,0.07178428292190722,0.08660124292190723,0.04055632242190722,0.06121873292190722,-0.04695547670309278,-0.06111110457809278,-0.03891806932809278,-0.04399330670309278,-0.0014887005621748912,0.0010772401227171038,-0.0015623655048484827,0.0005418013245090778,0.118739759625,0.1477123475,0.07947439175000001,0.105212039625,-0.020337118547895328,0.029669095849842814,-0.06876435875379239,0.012191725513774739,1
23,8,22,91.67,High,8,100.0,100.0,406.88449999970544,,0.24576999123847773,9,90.0,100.0,518.1873666660977,,0.17368235080496075,8,100.0,96.875,520.1505625013851,914.4311000018206,0.19225202702675864,300.00339999999994,90.53999999999996,75.0,84.375,3,1,7,0.0833055777969072,-0.05975478457809278,-0.0008306360090843501,0.14306036237499997,-0.09642738614665053,8.333333333333334,96.66666666666667,481.7408097223961,,0.20390145635673237,21.394999999999982,10.560999999999922,20.503000000000156,38.080999999999904,22.63499999999999,3.3134526176275694,4,2,6,1,0.060162916671907214,0.053899259171907216,0.07226530042190722,0.04393503292190722,-0.052281668328092785,-0.05975478457809278,-0.04754109432809279,-0.04762475332809279,-0.0008792244516131318,-0.020162232277532926,0.0017379255709331902,-0.0020732191191304345,0.112444585,0.11365404374999999,0.11980639475000002,0.09155978625000001,-0.01717737831591304,-0.17261256615645132,0.03137207330696602,-0.07379236009382449,1
24,1,12,50.0,High,8,100.0,96.875,440.2261874993201,441.9396000012057,0.22715595491500482,9,90.0,100.0,516.1156777782404,,0.17437951194861848,7,87.5,96.875,669.2694142839173,1414.0589000016917,0.13073957681693904,300.01060000000007,86.75599999999986,75.0,90.625,3,1,4,0.14585910777229774,-0.1578278297277023,0.0005955695943796588,0.30368693750000003,-0.15540699961622734,8.0,92.5,541.8704265204925,,0.17742501456018744,38.090999999999894,12.911000000000058,14.187999999999874,27.710000000000036,23.224999999999966,3.229278794402588,3,1,6,3,0.10605663152229773,0.10414466402229774,0.06558770152229772,0.09506410652229771,-0.1578278297277023,-0.13207523472770227,-0.09776429972770226,-0.014387767852702273,-0.004641327324544013,-0.022052820457268692,-0.014471275577068463,0.007041289937859728,0.26388446125000004,0.23621989875000002,0.16335200125,0.10945187437499998,-0.16902472711044017,-0.24280981174268948,-0.17347052323705014,0.0683861359749554,0
24,2,12,50.0,High,8,100.0,96.875,440.2261874993201,441.9396000012057,0.22715595491500482,9,90.0,100.0,516.1156777782404,,0.17437951194861848,7,87.5,96.875,669.2694142839173,1414.0589000016917,0.13073957681693904,300.01060000000007,56.184999999999945,100.0,90.625,4,0,3,0.08421500402229774,-0.10602171472770228,-0.0024901402080928624,0.19023671875000003,-0.1638859278852403,8.0,92.5,541.8704265204925,,0.17742501456018744,15.942000000000007,11.67100000000005,15.698000000000093,17.116999999999962,15.107000000000028,6.619447938041956,3,1,6,3,0.08421500402229774,0.06010232652229773,0.04211718414729773,0.04313683902229773,-0.10602171472770228,-0.06692696597770227,-0.047340898477702266,-0.06725275222770227,-0.0017828936687892284,-0.0018318802064212793,-0.009351575088901103,-0.010199248238083753,0.19023671875000003,0.1270292925,0.08945808262499999,0.11038959125,-0.022306648265181486,-0.018597613024048228,-0.12888757097455908,-0.11016959653969916,0
24,3,12,50.0,High,8,100.0,96.875,440.2261874993201,441.9396000012057,0.22715595491500482,9,90.0,100.0,516.1156777782404,,0.17437951194861848,7,87.5,96.875,669.2694142839173,1414.0589000016917,0.13073957681693904,300.01060000000007,71.42499999999995,100.0,90.625,4,0,4,0.15388639902229773,-0.09739205722770225,0.00017707498595350796,0.25127845625,-0.04198036601043939,8.0,92.5,541.8704265204925,,0.17742501456018744,24.781999999999925,25.595000000000027,11.316000000000031,14.782999999999902,19.11899999999997,5.23039907944977,3,1,6,3,0.11889889027229773,0.06922448777229773,0.15388639902229773,0.023209723897297727,-0.09739205722770225,-0.07368061472770228,-0.08750222847770228,-0.05292459722770228,0.003862594466785447,-0.005481890358102142,0.018657653073145552,-0.01626337468466842,0.2162909475,0.1429051025,0.2413886275,0.076134321125,0.08847559157830243,-0.12806108837595173,0.17034348661204166,-0.1246957313891436,0
24,4,12,50.0,High,8,100.0,96.875,440.2261874993201,441.9396000012057,0.22715595491500482,9,90.0,100.0,516.1156777782404,,0.17437951194861848,7,87.5,96.875,669.2694142839173,1414.0589000016917,0.13073957681693904,300.01060000000007,76.05799999999999,75.0,90.625,3,1,5,0.16728962277229772,-0.08696047097770228,-0.00018141684527931095,0.25425009375,-0.09117237277530747,8.0,92.5,541.8704265204925,,0.17742501456018744,19.24700000000007,19.057999999999993,23.057000000000016,18.644999999999982,20.001750000000015,3.749671903708423,3,1,6,3,0.04872047402229772,0.16728962277229772,0.09687172164729774,0.02817506264729773,-0.04843568722770228,-0.08696047097770228,-0.08092839847770228,-0.06274473847770227,-0.0005508475721794914,-0.0022488938105434,-0.00670661738240916,-0.017558404212876324,0.09715616125,0.25425009375,0.17780012012500002,0.090919801125,-0.009960432221602533,-0.04109481239574625,-0.140484702027208,-0.2224683946291509,1
24,5,12,50.0,High,8,100.0,96.875,440.2261874993201,441.9396000012057,0.22715595491500482,9,90.0,100.0,516.1156777782404,,0.17437951194861848,7,87.5,96.875,669.2694142839173,1414.0589000016917,0.13073957681693904,300.01060000000007,84.27800000000002,100.0,90.625,4,0,5,0.11046509527229773,-0.10276665347770228,0.0004362048371093964,0.21323174875,-0.06479150806474455,8.0,92.5,541.8704265204925,,0.17742501456018744,18.451999999999998,23.117999999999938,21.35699999999997,24.550000000000182,21.869250000000022,4.572630520022401,3,1,6,3,0.09091263777229772,0.11046509527229773,0.09951847027229772,0.09576090027229772,-0.10276665347770228,-0.07168379935270228,-0.09578073097770227,-0.07528067347770227,-0.006827180454898962,0.002690891497862241,-0.0006072275296765974,-0.005273276940424554,0.19367929125,0.182148894625,0.19529920125,0.17104157375,-0.11178099410984114,0.05747969651154583,-0.014995077658058006,-0.10198751233681395,1
24,6,12,50.0,High,8,100.0,96.875,440.2261874993201,441.9396000012057,0.22715595491500482,9,90.0,100.0,516.1156777782404,,0.17437951194861848,7,87.5,96.875,669.2694142839173,1414.0589000016917,0.13073957681693904,300.01060000000007,68.54599999999982,75.0,90.625,3,1,5,0.18392852652229771,-0.10600064222770227,0.003502754998835938,0.28992916874999997,0.01907609595844506,8.0,92.5,541.8704265204925,,0.17742501456018744,17.357999999999947,21.04099999999994,12.6099999999999,21.031000000000176,18.00999999999999,4.164353137146032,3,1,6,3,0.18392852652229771,0.07906166152229772,0.09349884452229773,0.08214957152229774,-0.10600064222770227,-0.08419449222770228,-0.10015507347770226,-0.1025228372277023,0.0043305536718854605,-0.010058765983662574,-0.016511040727773565,-0.005562300564241354,0.28992916874999997,0.16325615375000002,0.19365391799999998,0.18467240875000002,0.06576638545488078,-0.1904655733338693,-0.1752100865590657,-0.08776419200284533,1
24,7,12,50.0,High,8,100.0,96.875,440.2261874993201,441.9396000012057,0.22715595491500482,9,90.0,100.0,516.1156777782404,,0.17437951194861848,7,87.5,96.875,669.2694142839173,1414.0589000016917,0.13073957681693904,300.01060000000007,102.39699999999993,100.0,90.625,4,0,5,0.23974255527229774,-0.17044973222770227,0.002182161433981484,0.41019228750000003,0.12682091215343283,8.0,92.5,541.8704265204925,,0.17742501456018744,29.625,21.521999999999935,32.358999999999924,23.888000000000147,26.8485,3.7246028642196025,3,1,6,3,0.11244165152229772,0.09782091652229773,0.23974255527229774,0.047859909022297725,-0.06753528197770227,-0.17044973222770227,-0.07131145472770227,-0.07336514597770227,0.00658915498540476,-0.011924221579674809,0.0037057698256629857,0.0017146966786748459,0.1799769335,0.26827064875,0.31105401,0.121225055,0.18104228570611713,-0.2327538314655724,0.11265134672268287,0.02829990429581508,1
24,8,12,50.0,High,8,100.0,96.875,440.2261874993201,441.9396000012057,0.22715595491500482,9,90.0,100.0,516.1156777782404,,0.17437951194861848,7,87.5,96.875,669.2694142839173,1414.0589000016917,0.13073957681693904,300.01060000000007,96.82600000000002,100.0,90.625,4,0,5,0.06956303014729773,-0.10765240972770226,0.0025100491863164934,0.177215439875,0.23769973676216521,8.0,92.5,541.8704265204925,,0.17742501456018744,18.31899999999996,22.406999999999925,28.093000000000075,28.007000000000062,24.206500000000005,4.131121806126452,3,1,6,3,0.06437753277229773,0.050598451522297735,0.06956303014729773,0.06498274402229773,-0.046432350977702264,-0.02345115947770227,-0.06849837722770227,-0.10765240972770226,0.008140931220936997,0.0048747843469641484,-0.0014348616775236194,-0.0019799254102659297,0.11080988374999999,0.074049611,0.138061407375,0.17263515375,0.1302896750031155,0.09813911099174,-0.03819134135400193,-0.05168520988498361,1
25,1,6,25.0,Low,8,100.0,100.0,447.39968750036496,,0.22351379045144823,10,100.0,100.0,539.3050499995297,,0.18542381533435892,8,100.0,93.75,691.9474874994194,813.4975000029955,0.14451963740974477,300.0051000000001,70.14399999999989,75.0,84.375,3,1,6,0.3472304814154003,-0.3108474702512663,-0.0010944600340431368,0.6580779516666666,0.5082885941397817,8.666666666666666,100.0,559.5507416664381,,0.18448574773185067,14.17599999999993,9.767000000000053,13.956000000000131,14.092999999999847,12.99799999999999,5.770118479766122,1,1,6,2,0.276080568082067,0.19821577141540034,0.184547586082067,0.275340298082067,-0.2659347235845997,-0.11514468858459966,-0.22379029691793298,-0.30915138358459965,0.00601711490625574,0.05558130277438659,-0.04985159744030744,0.0034753687071895373,0.5420152916666667,0.31336046,0.40833788299999996,0.5844916816666667,0.06837097201094566,0.42865987880596024,-0.58697511655274,0.02131962637715401,1
25,2,6,25.0,Low,8,100.0,100.0,447.39968750036496,,0.22351379045144823,10,100.0,100.0,539.3050499995297,,0.18542381533435892,8,100.0,93.75,691.9474874994194,813.4975000029955,0.14451963740974477,300.0051000000001,90.673,100.0,84.375,4,0,6,0.4729463414154003,-0.36500374858459966,-0.010804527092368251,0.83795009,-0.976126433298604,8.666666666666666,100.0,559.5507416664381,,0.18448574773185067,28.50999999999999,21.02300000000014,13.971000000000004,31.39099999999985,23.723749999999995,4.2151852046999325,1,1,6,2,0.18252680808206698,0.39090051474873366,0.3509496014154003,0.4729463414154003,-0.25568248691793305,-0.157583276917933,-0.28533224691793296,-0.36500374858459966,-0.03737536225080295,0.020177706902468676,-0.06336150518142347,0.016557328582128033,0.43820929500000005,0.5484837916666667,0.6362818483333332,0.83795009,-0.9876851090464821,0.37807866145142727,-0.7463123786119275,0.4143008153264318,1
25,3,6,25.0,Low,8,100.0,100.0,447.39968750036496,,0.22351379045144823,10,100.0,100.0,539.3050499995297,,0.18542381533435892,8,100.0,93.75,691.9474874994194,813.4975000029955,0.14451963740974477,300.0051000000001,110.54500000000007,100.0,84.375,4,0,7,0.5061048697487336,-0.3457849685845997,-0.0061232055716572194,0.8518898383333333,-0.37727077460893066,8.666666666666666,100.0,559.5507416664381,,0.18448574773185067,24.285000000000082,23.866999999999962,40.57899999999995,24.736000000000104,28.366750000000025,3.525254038619155,1,1,6,2,0.36754455141540027,0.11990510308206699,0.5061048697487336,0.2462033364154003,-0.3457849685845997,-0.21030172191793306,-0.292235723417933,-0.1901560635845997,-0.002671864135308376,-0.012014940774556863,0.004374525112489287,-0.005063971853155681,0.7133295199999999,0.33020682500000004,0.7983405931666666,0.43635939999999995,-0.05703967582713154,-0.26065145456196204,0.1689775498764674,-0.098680715441639,1
25,4,6,25.0,Low,8,100.0,100.0,447.39968750036496,,0.22351379045144823,10,100.0,100.0,539.3050499995297,,0.18542381533435892,8,100.0,93.75,691.9474874994194,813.4975000029955,0.14451963740974477,300.0051000000001,67.96299999999997,100.0,84.375,4,0,5,0.5973427747487337,-0.5278287845745997,-0.0132816529947352,1.1251715593233333,0.474891245118103,8.666666666666666,100.0,559.5507416664381,,0.18448574773185067,15.667999999999893,10.230999999999995,33.96199999999999,13.578000000000202,18.35975000000002,5.446697258949599,1,1,6,2,0.156150593082067,0.5973427747487337,0.5624908880820669,0.41164794308206704,-0.19331476525126634,-0.5278287845745997,-0.2775384952512664,-0.2683783085845997,-0.038914664477794944,-0.10981439417178103,0.01191867509509711,0.04776934439470685,0.34946535833333336,1.1251715593233333,0.8400293833333333,0.6800262516666667,-0.5303128911297484,-0.9054774803650552,0.3718343669750395,0.2843817730025391,1
25,5,6,25.0,Low,8,100.0,100.0,447.39968750036496,,0.22351379045144823,10,100.0,100.0,539.3050499995297,,0.18542381533435892,8,100.0,93.75,691.9474874994194,813.4975000029955,0.14451963740974477,300.0051000000001,61.66099999999983,75.0,84.375,3,1,7,0.47177151558206704,-0.3693895557512663,-0.012177392263909504,0.8411610713333333,-0.4444019962607971,8.666666666666666,100.0,559.5507416664381,,0.18448574773185067,7.5190000000000055,13.005999999999858,14.303000000000111,30.89799999999991,16.43149999999997,4.5644037367252,1,1,6,2,-0.0017964085845996894,0.4454426494154003,0.47177151558206704,0.20214900974873362,-0.33897065191793296,-0.22266904191793302,-0.3693895557512663,-0.19614716358459963,-0.09924414785492794,0.007184734024893607,-0.012055821300394877,-0.014817371548352233,0.3371742433333333,0.6681116913333334,0.8411610713333333,0.3982961733333332,-0.52118796172063,0.06681127651185831,-0.14433068573008367,-0.36908093405048104,1
25,6,6,25.0,Low,8,100.0,100.0,447.39968750036496,,0.22351379045144823,10,100.0,100.0,539.3050499995297,,0.18542381533435892,8,100.0,93.75,691.9474874994194,813.4975000029955,0.14451963740974477,300.0051000000001,84.54999999999995,100.0,84.375,4,0,5,0.373061803082067,-0.4460261652512664,-0.008508834119124389,0.8190879683333334,0.07465937711011145,8.666666666666666,100.0,559.5507416664381,,0.18448574773185067,12.259999999999991,23.057999999999993,15.65800000000013,39.9699999999998,22.736499999999978,4.39821432498406,1,1,6,2,0.21789701724873364,0.3188826014154003,0.20076864141540032,0.373061803082067,-0.4460261652512664,-0.16758282525126633,-0.29981831525126634,-0.2260017802512663,-0.05418319095915967,0.006933563574470164,-0.01477711091675307,0.011522660524248265,0.6639231825,0.48646542666666664,0.5005869566666666,0.5990635833333333,-0.5422521920045458,0.14355451104057013,-0.19893427665445051,0.3555799509466831,1
25,7,6,25.0,Low,8,100.0,100.0,447.39968750036496,,0.22351379045144823,10,100.0,100.0,539.3050499995297,,0.18542381533435892,8,100.0,93.75,691.9474874994194,813.4975000029955,0.14451963740974477,300.0051000000001,61.8280000000002,75.0,84.375,3,1,7,0.40715569641540034,-0.2328349002512663,-0.0040662006227880415,0.6399905966666666,0.1629018894384078,8.666666666666666,100.0,559.5507416664381,,0.18448574773185067,9.512000000000171,15.567999999999984,20.182000000000016,19.730000000000018,16.248000000000047,4.615952732644004,1,1,6,2,0.10550982474873366,0.3039403597487336,0.224217668082067,0.40715569641540034,-0.20164027858459968,-0.19740220525126637,-0.218658466917933,-0.22790154858459963,-0.014869350408693874,0.024628718612131093,-0.024588183207852065,0.015760079573254884,0.30715010333333337,0.501342565,0.442876135,0.6350572449999999,-0.1083558959312692,0.3336368319127324,-0.44800270738290016,0.22562208939450584,1
25,8,6,25.0,Low,8,100.0,100.0,447.39968750036496,,0.22351379045144823,10,100.0,100.0,539.3050499995297,,0.18542381533435892,8,100.0,93.75,691.9474874994194,813.4975000029955,0.14451963740974477,300.0051000000001,57.35299999999984,50.0,84.375,2,2,8,0.46365841641540034,-0.39430330958459964,0.00837684714392514,0.857961726,0.6428982776924125,8.666666666666666,100.0,559.5507416664381,,0.18448574773185067,12.799999999999955,10.722999999999956,14.461000000000013,19.368999999999915,14.33824999999996,3.4871759105888196,1,1,6,2,0.2598367667487337,0.12844459608206701,0.395778263082067,0.46365841641540034,-0.22774479025126637,-0.03900630375126634,-0.3306928585845997,-0.39430330958459964,-0.020452178370605964,0.06693284376865614,-0.060896814974621225,0.07056999774288637,0.48758155700000005,0.16745089983333336,0.7264711216666666,0.857961726,-0.2118548485183643,0.5735994924204924,-0.7468935571429223,1.2064485799720517,1
26,1,3,12.5,Low,5,62.5,96.875,850.3046999976505,681.4744000002975,0.07350306307865016,1,10.0,96.66666666666667,522.8372999990825,707.8523999953177,0.01912640892303887,1,12.5,93.75,601.3781000074232,529.6898000015062,0.020785592291847184,300.00520000000006,92.70800000000008,50.0,59.375,2,2,5,0.036108026166666675,-0.020712373666666662,0.009921279250568306,0.05682039983333334,0.5976041572313385,2.3333333333333335,28.333333333333332,658.173366668052,639.6721999990405,0.03780502143117873,15.444999999999936,9.338999999999942,26.188000000000102,15.071999999999889,16.510999999999967,3.0282841741869118,6,2,8,9,0.029685124166666663,0.026233818083333332,0.036108026166666675,0.032739043333333336,-0.005122128833333334,-0.014773960666666667,-0.011489051500000002,-0.002703655666666667,0.008350246657094511,0.01035361392430118,0.010338334116899007,0.014297283608313373,0.034807252999999996,0.04100777875,0.047597077666666675,0.035442699,0.10873596120774513,0.07531973225201352,0.24941924798094725,0.09520761506686741,1
26,2,3,12.5,Low,5,62.5,96.875,850.3046999976505,681.4744000002975,0.07350306307865016,1,10.0,96.66666666666667,522.8372999990825,707.8523999953177,0.01912640892303887,1,12.5,93.75,601.3781000074232,529.6898000015062,0.020785592291847184,300.00520000000006,36.30400000000009,75.0,59.375,3,1,4,0.05348627183333334,-0.03887324816666667,0.009987076768920695,0.09235952000000001,0.3131159030515942,2.3333333333333335,28.333333333333332,658.173366668052,639.6721999990405,0.03780502143117873,12.517000000000053,7.150000000000091,9.916999999999916,11.24499999999989,10.207249999999988,7.34771853339539,6,2,8,9,0.05348627183333334,0.025865076833333334,0.036230836333333336,0.018640008833333332,-0.01435645433333333,0.005773841333333334,-0.03656279983333333,0.005429556250000001,0.00632745848934295,0.017183825799724408,0.00936006901926692,0.014085236951962643,0.06784272616666667,0.0200912355,0.07279363616666668,0.01321045258333333,0.06461448063916533,0.0866827217826011,0.07399476532772148,0.06492572733377514,0
26,3,3,12.5,Low,5,62.5,96.875,850.3046999976505,681.4744000002975,0.07350306307865016,1,10.0,96.66666666666667,522.8372999990825,707.8523999953177,0.01912640892303887,1,12.5,93.75,601.3781000074232,529.6898000015062,0.020785592291847184,300.00520000000006,20.730000000000018,100.0,59.375,4,0,2,0.030466210499999997,-0.03350284285,0.010125957585943798,0.06396905335,0.164511496319008,2.3333333333333335,28.333333333333332,658.173366668052,639.6721999990405,0.03780502143117873,7.371000000000095,4.400000000000091,4.44399999999996,11.039999999999964,6.813750000000027,14.676206200697061,6,2,8,9,0.030466210499999997,0.020137932916666667,0.0296992755,0.015405268,-0.006470828166666667,0.007250403333333333,-0.03350284285,0.011098691218333333,0.012562736498051282,0.016123310760488504,0.001496135439435028,0.013344203216854937,0.036937038666666665,0.012887529583333335,0.06320211835,0.004306576781666667,0.06548034824453393,0.0368583142393333,0.0036014182000672825,0.028297749173074954,0
26,4,3,12.5,Low,5,62.5,96.875,850.3046999976505,681.4744000002975,0.07350306307865016,1,10.0,96.66666666666667,522.8372999990825,707.8523999953177,0.01912640892303887,1,12.5,93.75,601.3781000074232,529.6898000015062,0.020785592291847184,300.00520000000006,29.748000000000047,50.0,59.375,2,2,6,0.028103571333333337,-0.006359335816666668,0.00938518408876963,0.034462907150000006,0.25011752831501227,2.3333333333333335,28.333333333333332,658.173366668052,639.6721999990405,0.03780502143117873,11.088999999999942,3.3220000000001164,6.789999999999964,13.038000000000011,8.559750000000008,5.841292093811146,6,2,8,9,0.025418384,0.0164010785,0.028103571333333337,0.011910253666666667,-0.006359335816666668,0.00889807745,0.003598728850000001,-0.001562074366666667,0.007669377988610118,0.012823256740677084,0.01693721264885593,0.004748951665227743,0.03177771981666667,0.007503001049999999,0.024504842483333338,0.013472328033333335,0.06839446392794547,0.015907785509067365,0.07948720567226678,0.030401607922733755,1
26,5,3,12.5,Low,5,62.5,96.875,850.3046999976505,681.4744000002975,0.07350306307865016,1,10.0,96.66666666666667,522.8372999990825,707.8523999953177,0.01912640892303887,1,12.5,93.75,601.3781000074232,529.6898000015062,0.020785592291847184,300.00520000000006,19.57899999999995,50.0,59.375,2,2,7,0.02853472333333333,0.0001865581666666663,0.010539176421270705,0.028348165166666665,0.19573295748241915,2.3333333333333335,28.333333333333332,658.173366668052,639.6721999990405,0.03780502143117873,6.714999999999918,4.0090000000000146,2.910000000000082,14.692000000000007,7.0815000000000055,7.060650992021459,6,2,8,9,0.021614305666666667,0.0074811042783333335,0.006317207500000001,0.02853472333333333,0.00540689595,0.0027729664999999997,0.004895410666666667,0.009707932383333333,0.013707110870282164,0.005618622926319444,0.0054640935634920635,0.020161312003539517,0.016207409716666666,0.004708137778333334,0.0014217968333333332,0.01882679095,0.062234240302819675,0.01066268364520035,0.004365586229999839,0.07772032433706573,1
26,6,3,12.5,Low,5,62.5,96.875,850.3046999976505,681.4744000002975,0.07350306307865016,1,10.0,96.66666666666667,522.8372999990825,707.8523999953177,0.01912640892303887,1,12.5,93.75,601.3781000074232,529.6898000015062,0.020785592291847184,300.00520000000006,35.20699999999988,25.0,59.375,1,3,6,0.04343627383333334,-0.027536211,0.01114484148984015,0.07097248483333334,0.37339706042223453,2.3333333333333335,28.333333333333332,658.173366668052,639.6721999990405,0.03780502143117873,21.10699999999997,5.097999999999956,4.248000000000047,8.98700000000008,9.860000000000014,2.5354969574036477,6,2,8,9,0.022769789833333335,0.007446929416666667,0.04343627383333334,0.016744969166666665,-0.027536211,-0.014593582,0.024079237166666666,0.004607917999999999,0.011117928075416632,-0.005529225127555554,0.03662860421818183,0.010013540291035355,0.050306000833333336,0.02204051141666667,0.01935703666666667,0.012137051166666666,0.21074377493989838,-0.01655001694433337,0.07927833225333512,0.026008688624998277,1
26,7,3,12.5,Low,5,62.5,96.875,850.3046999976505,681.4744000002975,0.07350306307865016,1,10.0,96.66666666666667,522.8372999990825,707.8523999953177,0.01912640892303887,1,12.5,93.75,601.3781000074232,529.6898000015062,0.020785592291847184,300.00520000000006,24.67599999999993,75.0,59.375,3,1,4,0.0265413585,-0.04416975956666667,0.00928264914602412,0.07071111806666666,0.2054113462573405,2.3333333333333335,28.333333333333332,658.173366668052,639.6721999990405,0.03780502143117873,9.685999999999922,2.9449999999999363,7.858999999999924,7.319000000000187,6.952249999999992,10.787874429141658,6,2,8,9,0.0265413585,0.0018099111666666672,0.025901572833333334,-0.005968821166666667,0.003708204316666667,-0.044122441166666665,0.008728425350000001,-0.012421804833333333,0.019179847964511467,-0.021753524972727274,0.01706858747385492,-0.01024407683333333,0.022833154183333332,0.04593235233333333,0.01717314748333333,0.006452983666666666,0.14449863161404058,-0.018296851376000987,0.09421405961429957,-0.021407215493334426,0
26,8,3,12.5,Low,5,62.5,96.875,850.3046999976505,681.4744000002975,0.07350306307865016,1,10.0,96.66666666666667,522.8372999990825,707.8523999953177,0.01912640892303887,1,12.5,93.75,601.3781000074232,529.6898000015062,0.020785592291847184,300.00520000000006,17.028999999999996,50.0,59.375,2,2,5,0.05044706333333334,-0.09975050316666667,0.0015303642466666652,0.15019756650000002,0.23246276002253324,2.3333333333333335,28.333333333333332,658.173366668052,639.6721999990405,0.03780502143117873,7.155999999999949,3.0429999999998927,3.421000000000049,3.4090000000001055,4.257249999999999,11.744670855599274,6,2,8,9,0.05044706333333334,0.037918399,0.019791430166666665,-0.0573628015,0.008948205916666669,0.035550981363333324,-0.0037839470833333326,-0.08303428483333333,0.03937269401014905,0.03670257122358333,0.00938207918020202,-0.07074492859677418,0.041498857416666673,0.0023674176366666744,0.023575377249999998,0.025671483333333335,0.19274218870159612,0.027892669371599777,0.012064194856197495,-0.08491576973333644,1
