participant_number,subexperiment_number,MRTScore,MRTAcc,MRTGroup,nback_accuracy0,nback_accuracy1,nback_accuracy2,nback_performance0,nback_performance1,nback_performance2,nback_avg_rt0,nback_avg_rt1,nback_avg_rt2,correct_spacebar_presses0,correct_spacebar_presses1,correct_spacebar_presses2,incorrect_spacebar_presses0,incorrect_spacebar_presses1,incorrect_spacebar_presses2,rest_time,time_subexperiment,mean_trial_duration_subexperiment,accuracy_subexperiment,accuracy_total,performance_subexperiment,answer_correct_subexperiment,answer_incorrect_subexperiment,feedback_score_subexperiment,blink_count,rest_blink_rest_count,blink_rate,rest_blink_rate,normalized_blink_rate,trial_duration_1,trial_duration_2,trial_duration_3,trial_duration_4,feedback_score_tutorial_1,feedback_score_tutorial_2,feedback_score_tutorial_3,feedback_score_rest_1,eye_avg_fixation_PointX,eye_avg_fixation_PointY,eye_avg_fixation_PointZ,eye_avg_LeftGazeX,eye_avg_LeftGazeY,eye_avg_LeftGazeZ,eye_avg_RightGazeX,eye_avg_RightGazeY,eye_avg_RightGazeZ,eye_avg_LeftPupilDiameter,eye_avg_RightPupilDiameter,eye_avg_RightEyeOpenness,eye_avg_LeftEyeOpenness,eye_max_LeftPupilDiameter,eye_max_RightPupilDiameter
2,1,0,0,Low,100,97.5,92.5,2.327406853610513,2.07915779,1.6082298715313255,0.429662738,0.4689398778007469,0.5751665333260058,8,9,7,0,0,2,300.00599999999986,121.68100000000004,30.42025000000001,50,46.875,0.01643642,2,2,5,16,10,7.889481513136805,20,-60.55259243,45.052000000000135,11.149999999999864,33.85400000000004,28.17800000000011,1,3,8,1,-0.115842711,-0.26008496,0.8535465500060357,-0.057939053,-0.084451524,0.9339243083172382,-0.031061762,-0.082731415,0.9407381743239981,2.8708660280057945,3.596910188194109,0.9829124708353452,0.9836740843425881,3.681152,4.383163
2,2,0,0,Low,100,97.5,92.5,2.327406853610513,2.07915779,1.6082298715313255,0.429662738,0.4689398778007469,0.5751665333260058,8,9,7,0,0,2,300.00599999999986,109.62699999999995,27.406749999999988,75,46.875,0.027365521267570955,3,1,4,20,10,10.946208507028384,20,-45.26895746,42.835000000000036,31.192999999999984,12.032999999999902,25.688000000000102,1,3,8,1,-0.122694454,-0.287466986,0.8609209104603853,-0.071073542,-0.101355268,0.9340239945824411,-0.039981008,-0.09528689,0.9420351019807279,2.9991398584582436,3.7639721159528907,0.9775599593683083,0.9696573913811563,4.156494,4.521805
2,3,0,0,Low,100,97.5,92.5,2.327406853610513,2.07915779,1.6082298715313255,0.429662738,0.4689398778007469,0.5751665333260058,8,9,7,0,0,2,300.00599999999986,140.31499999999983,35.07874999999996,25,46.875,0.007126822,1,3,7,20,10,8.552186152585266,20,-57.23906924,39.246999999999844,31.576000000000022,40.256000000000085,31.654999999999973,1,3,8,1,-0.057236102,-0.305596264,0.8752385443277871,-0.023369671,-0.123233516,0.9422648539460806,0.008617769,-0.117858981,0.9512291600498264,3.0156358346828007,3.755249429308657,0.9696499659133374,0.9588633966634043,4.180618,4.463974
2,4,0,0,Low,100,97.5,92.5,2.327406853610513,2.07915779,1.6082298715313255,0.429662738,0.4689398778007469,0.5751665333260058,8,9,7,0,0,2,300.00599999999986,89.45800000000008,22.36450000000002,25,46.875,0.011178430101276567,1,3,7,19,10,12.743410315455286,20,-36.28294842,15.026000000000067,22.374000000000024,23.822999999999865,30.13000000000011,1,3,8,1,-0.079019528,-0.279855206,0.8582051182406908,-0.034940834,-0.116046151,0.9296228667970857,-0.007092779,-0.111844041,0.9382349944549379,3.018598432541824,3.7270294390178087,0.9599112107933083,0.9498225541419321,3.735794,4.435287
2,5,0,0,Low,100,97.5,92.5,2.327406853610513,2.07915779,1.6082298715313255,0.429662738,0.4689398778007469,0.5751665333260058,8,9,7,0,0,2,300.00599999999986,144.34500000000003,36.08625000000001,25,46.875,0.006927846,1,3,7,24,10,9.976098929647717,20,-50.11950535,28.631999999999834,35.16100000000006,42.17000000000007,40.552000000000135,1,3,8,1,-0.114905859,-0.239438609,0.8707197292460425,-0.061855241,-0.091710031,0.934717019,-0.033142735,-0.095127006,0.9416839394955728,3.076935163581075,3.7467008339236205,0.9598788649852428,0.953411774,4.046051,4.349579
2,6,0,0,Low,100,97.5,92.5,2.327406853610513,2.07915779,1.6082298715313255,0.429662738,0.4689398778007469,0.5751665333260058,8,9,7,0,0,2,300.00599999999986,126.91899999999987,31.729749999999967,75,46.875,0.023637122889401927,3,1,7,19,10,8.982106697972732,20,-55.08946651,25.311999999999898,34.152000000000044,22.338999999999942,47.71799999999985,1,3,8,1,-0.205663432,-0.273507151,0.8489260516636353,-0.169242223,-0.095268512,0.9308710348775008,-0.130316848,-0.110132595,0.9412174423986306,3.1510863944581153,3.7772592599764625,0.9738008318176957,0.9683005420348776,4.184326,4.821487
2,7,0,0,Low,100,97.5,92.5,2.327406853610513,2.07915779,1.6082298715313255,0.429662738,0.4689398778007469,0.5751665333260058,8,9,7,0,0,2,300.00599999999986,122.38200000000006,30.595500000000015,75,46.875,0.024513409,3,1,6,15,10,7.35402265,20,-63.22988675,37.70900000000029,18.524999999999636,34.03500000000031,33.766999999999825,1,3,8,1,-0.203516031,-0.340986539,0.8341435773510052,-0.155178345,-0.151153293,0.934065539,-0.122384472,-0.156332459,0.941512083,3.1318374184473896,3.803971584708322,0.9697091873140384,0.9618082445135695,3.76004,4.473038
2,8,0,0,Low,100,97.5,92.5,2.327406853610513,2.07915779,1.6082298715313255,0.429662738,0.4689398778007469,0.5751665333260058,8,9,7,0,0,2,300.00599999999986,126.63200000000006,31.658000000000015,25,46.875,0.007896898,1,3,7,16,10,7.581022174489857,20,-62.09488913,33.31800000000021,20.679999999999836,27.38700000000017,45.246999999999844,1,3,8,1,-0.203700091,-0.327590411,0.8236721295618791,-0.170719861,-0.144366275,0.930009911,-0.136024655,-0.149005538,0.9393236383581753,3.097323115176152,3.7764365005645892,0.973084216,0.9710201417457093,3.94223,4.413452
3,1,0,0,Low,100,100,97.5,2.314338420069827,2.249404627455627,1.3799209534255217,0.4320889249938773,0.44456208002520725,0.7065622111032199,8,10,8,0,0,1,300.0095,92.54500000000007,23.136250000000018,25,78.125,0.010805554054784151,1,3,6,22,10,14.26333135231508,20,-28.68334324,15.986999999999853,21.585000000000036,30.735000000000127,38.312,4,1,7,1,-0.0994517,-0.335088149,0.8285931273293861,-0.10140893,-0.150852452,0.9242455815674665,-0.083955021,-0.158482562,0.9360115127609847,3.7661153734808352,4.162338105796199,0.9601957865733873,0.9558775446684324,4.727249,5.114258
3,2,0,0,Low,100,100,97.5,2.314338420069827,2.249404627455627,1.3799209534255217,0.4320889249938773,0.44456208002520725,0.7065622111032199,8,10,8,0,0,1,300.0095,55.68599999999992,13.92149999999998,100,78.125,0.07183134,4,0,2,12,10,12.92964120245665,20,-35.35179399,25.40000000000009,9.707999999999856,9.071,15.042999999999893,4,1,7,1,-0.074764035,-0.429199043,0.8315629846153846,-0.087283845,-0.197618454,0.9342648624786324,-0.068733703,-0.211817208,0.942869478,3.972413021367521,4.284235175641026,0.954690119,0.9464321690811964,4.852417,5.217606
3,3,0,0,Low,100,100,97.5,2.314338420069827,2.249404627455627,1.3799209534255217,0.4320889249938773,0.44456208002520725,0.7065622111032199,8,10,8,0,0,1,300.0095,95.07400000000007,23.768500000000017,75,78.125,0.031554368,3,1,3,16,10,10.097397816437715,20,-49.51301092,19.124000000000024,31.988000000000056,19.909999999999854,29.64500000000021,4,1,7,1,-0.086608984,-0.453165775,0.8195547497628782,-0.087519173,-0.204700109,0.9316656297628781,-0.072353942,-0.221175474,0.94149957,4.055396048078496,4.349280706295993,0.9572894290973017,0.9554128640389206,5.071564,5.292847
3,4,0,0,Low,100,100,97.5,2.314338420069827,2.249404627455627,1.3799209534255217,0.4320889249938773,0.44456208002520725,0.7065622111032199,8,10,8,0,0,1,300.0095,93.19999999999982,23.299999999999955,100,78.125,0.042918455,4,0,2,20,10,12.875536480686721,20,-35.6223176,34.677999999999884,10.586999999999989,33.563,16.843999999999824,4,1,7,1,0.020171720070118925,-0.512684951,0.7660496462710605,-0.028295564,-0.239592995,0.9284358309340932,-0.012651324,-0.255210417,0.9326079773785927,4.105957604930625,4.397458141848365,0.9603214252353817,0.9638556716489098,4.910614,5.189423
3,5,0,0,Low,100,100,97.5,2.314338420069827,2.249404627455627,1.3799209534255217,0.4320889249938773,0.44456208002520725,0.7065622111032199,8,10,8,0,0,1,300.0095,78.32200000000012,19.58050000000003,75,78.125,0.038303414,3,1,3,17,10,13.02316079773242,20,-34.88419601,15.993000000000166,19.412000000000035,13.63299999999981,32.759000000000015,4,1,7,1,0.014882224013825801,-0.480193302,0.7724384385542168,-0.037750483,-0.225281309,0.9185068853249063,-0.023492409,-0.241877774,0.9295022822832314,3.992595381196919,4.319533935018764,0.9467486546908946,0.9541595065095793,4.75882,5.119263
3,6,0,0,Low,100,100,97.5,2.314338420069827,2.249404627455627,1.3799209534255217,0.4320889249938773,0.44456208002520725,0.7065622111032199,8,10,8,0,0,1,300.0095,93.39200000000005,23.348000000000013,75,78.125,0.032122666,3,1,4,18,10,11.564159671063896,20,-42.17920164,13.286000000000058,22.810999999999922,23.479000000000042,39.11000000000013,4,1,7,1,0.000756654,-0.554502792,0.7436432225482968,-0.053305595,-0.268135141,0.9134706984663028,-0.035658782,-0.285502482,0.9192551340952662,4.019164809,4.3251666055154105,0.9597487345966672,0.9590406560715233,4.764679,5.087097
3,7,0,0,Low,100,100,97.5,2.314338420069827,2.249404627455627,1.3799209534255217,0.4320889249938773,0.44456208002520725,0.7065622111032199,8,10,8,0,0,1,300.0095,69.53499999999985,17.383749999999964,75,78.125,0.043143741,3,1,6,29,10,25.023369526137966,20,25.116847630689833,12.649999999999864,17.182999999999993,21.610000000000127,22.479000000000042,4,1,7,1,-0.045427665,-0.546569957,0.7431642432760979,-0.060842939,-0.26212357,0.9087816727700958,-0.047490082,-0.279967811,0.9225550365294028,4.006585414222763,4.365125432,0.9401856930557666,0.9367082814745479,5.045334,5.237411
3,8,0,0,Low,100,100,97.5,2.314338420069827,2.249404627455627,1.3799209534255217,0.4320889249938773,0.44456208002520725,0.7065622111032199,8,10,8,0,0,1,300.0095,82.37299999999982,20.593249999999955,100,78.125,0.048559601,4,0,7,19,10,13.839486239423142,20,-30.8025688,15.670999999999822,21.593000000000075,31.396999999999935,13.711999999999989,4,1,7,1,-0.094360176,-0.447171785,0.7986820455173449,-0.092088984,-0.202412345,0.9311126977474096,-0.079292547,-0.221659066,0.9374854075236522,4.077051135155429,4.392157847424539,0.9408865846974022,0.9364157104880612,5.129669,5.157806
4,1,3,12.5,Low,100,85,97.5,2.470926843175888,1.308275446372041,1.1119714722303757,0.40470643748994917,0.6497102749708574,0.8768210555297427,8,4,8,0,0,1,300.0152999999999,128.1916,32.0479,75,84.375,0.023402469428574105,3,1,4,44,7,20.594173097145212,14,47.101236408180085,36.62760000000003,30.31549999999993,32.14350000000002,26.01679999999999,5,1,7,4,-0.062798246,-0.00956365,0.8765327821158418,-0.087609779,-0.085059327,0.9037190516101145,-0.076325087,-0.096426855,0.9012386526907282,3.506751444,3.5653280881780844,0.9217286287046251,0.8963710948456883,5.094879,4.992126
4,2,3,12.5,Low,100,85,97.5,2.470926843175888,1.308275446372041,1.1119714722303757,0.40470643748994917,0.6497102749708574,0.8768210555297427,8,4,8,0,0,1,300.0152999999999,80.10100000000011,20.025250000000028,100,84.375,0.049936955,4,0,3,24,7,17.977303654136627,14,28.409311815261617,26.881000000000085,21.955999999999904,16.11200000000008,18.595000000000027,5,1,7,4,-0.127424742,-0.086486633,0.88989217,-0.134959862,-0.120919635,0.9189582386863308,-0.125736348,-0.143408798,0.9091768902635532,3.951970994947426,3.9435445261504847,0.9291029008374984,0.9190122666693978,5.006119,5.198151
4,3,3,12.5,Low,100,85,97.5,2.470926843175888,1.308275446372041,1.1119714722303757,0.40470643748994917,0.6497102749708574,0.8768210555297427,8,4,8,0,0,1,300.0152999999999,132.47000000000003,33.11750000000001,50,84.375,0.015097758,2,2,5,46,7,20.834906016456554,14,48.82075726040395,26.55399999999986,35.00700000000006,44.77600000000007,29.345000000000027,5,1,7,4,-0.050754335,-0.073221532,0.8862925360552762,-0.068453446,-0.102167289,0.9145863709219172,-0.060070591,-0.123059852,0.9071454615481253,4.0105476145148815,4.005375959,0.8976068492857557,0.869381459,5.411957,5.532288
4,4,3,12.5,Low,100,85,97.5,2.470926843175888,1.308275446372041,1.1119714722303757,0.40470643748994917,0.6497102749708574,0.8768210555297427,8,4,8,0,0,1,300.0152999999999,135.61299999999983,33.90324999999996,100,84.375,0.029495697,4,0,5,36,7,15.92767655018326,14,13.76911821559472,37.557000000000016,45.200999999999794,27.93300000000022,28.88499999999999,5,1,7,4,-0.122012913,-0.139352125,0.8946337482103979,-0.131399896,-0.138504656,0.9290339966123836,-0.123440987,-0.168742651,0.923230072,4.1866452436645485,4.179918011495253,0.9329972626090743,0.9142893793094139,5.427124,5.698883
4,5,3,12.5,Low,100,85,97.5,2.470926843175888,1.308275446372041,1.1119714722303757,0.40470643748994917,0.6497102749708574,0.8768210555297427,8,4,8,0,0,1,300.0152999999999,99.10299999999984,24.77574999999996,100,84.375,0.040362048,4,0,6,29,7,17.557490691502807,14,25.41064779644862,26.011999999999944,28.71900000000005,19.759000000000015,30.49499999999989,5,1,7,4,-0.01781401,-0.095118606,0.8828527318625677,-0.062596533,-0.117682528,0.9177535603496082,-0.056870252,-0.137585577,0.9133278242435202,4.024257335864979,4.071278888728149,0.9377759490027727,0.9184901599252561,5.207779,5.356186
4,6,3,12.5,Low,100,85,97.5,2.470926843175888,1.308275446372041,1.1119714722303757,0.40470643748994917,0.6497102749708574,0.8768210555297427,8,4,8,0,0,1,300.0152999999999,100.94200000000001,25.235500000000002,75,84.375,0.029720037,3,1,7,27,7,16.04882011452121,14,14.634429389437212,42.55799999999999,13.076999999999998,20.829999999999927,27.48700000000008,5,1,7,4,-0.021862389,-0.168719318,0.891729539,-0.084700874,-0.152213562,0.929023654,-0.073946192,-0.177753074,0.923537481,4.169389478522337,4.187147307069219,0.9277321818564065,0.9040362939175258,5.259216,5.126144
4,7,3,12.5,Low,100,85,97.5,2.470926843175888,1.308275446372041,1.1119714722303757,0.40470643748994917,0.6497102749708574,0.8768210555297427,8,4,8,0,0,1,300.0152999999999,98.49499999999989,24.623749999999973,75,84.375,0.030458398903497674,3,1,7,36,7,21.930047210518325,14,56.64319436084517,12.75,32.61799999999994,33.35699999999997,22.700000000000045,5,1,7,4,-0.289217278,-0.123376069,0.8452965272961875,-0.194265558,-0.143873114,0.9032882821935484,-0.180938457,-0.164949655,0.8976176402580645,4.047944330087976,4.086555196246335,0.9312401632570088,0.9080897354719061,5.5681,5.116302
4,8,3,12.5,Low,100,85,97.5,2.470926843175888,1.308275446372041,1.1119714722303757,0.40470643748994917,0.6497102749708574,0.8768210555297427,8,4,8,0,0,1,300.0152999999999,113.47700000000009,28.369250000000022,100,84.375,0.035249434,4,0,8,30,7,15.862245212686258,14,13.301751519187555,30.037000000000035,35.75,34.967,12.722999999999956,5,1,7,4,-0.202590297,-0.08089667,0.8549442883572952,-0.168695914,-0.103063133,0.9185189428327645,-0.155072945,-0.123524685,0.9114813383745735,4.060230261732082,4.096308871,0.9519293112926621,0.9388166082913822,5.071381,5.118423
10,1,0,0,Low,100,100,100,2.4195727953054247,1.353364297829908,1.200565316172147,0.4132961000141222,0.7388993500149809,0.8329409375146497,8,10,8,0,0,0,300.0045,169.0250000000001,42.25625000000002,75,68.75,0.017748853719863917,3,1,3,80,3,28.398165951782268,6,373.3027658630378,42.87000000000012,38.500999999999976,15.807999999999993,23.40000000000009,1,1,7,1,0.11007953253781064,-0.215823105,0.7458206986917254,0.013937606130470083,-0.164038715,0.820487583,0.058853433231144656,-0.20662475,0.8382700079706383,3.4361450420404833,3.995899163787351,0.6546854883600283,0.6674156448786134,5.482773,5.750671
10,2,0,0,Low,100,100,100,2.4195727953054247,1.353364297829908,1.200565316172147,0.4132961000141222,0.7388993500149809,0.8329409375146497,8,10,8,0,0,0,300.0045,92.92099999999982,23.230249999999955,75,68.75,0.03228549,3,1,4,76,3,49.073944533528575,6,717.8990755588096,28.159999999999854,27.248000000000047,25.673000000000002,31.45600000000013,1,1,7,1,0.074939847,-0.292059368,0.7667764261881526,0.011295219518847256,-0.186858382,0.8346571266000907,0.047951413,-0.208165107,0.8359557123921925,3.304652195642306,3.8734786201770315,0.7581761895962823,0.7575750081909896,4.950104,5.354477
10,3,0,0,Low,100,100,100,2.4195727953054247,1.353364297829908,1.200565316172147,0.4132961000141222,0.7388993500149809,0.8329409375146497,8,10,8,0,0,0,300.0045,184.56799999999998,46.141999999999996,0,68.75,0,0,4,6,101,3,32.83342724632656,6,447.22378743877596,47.65599999999995,41.21499999999992,47.697000000000116,51.27999999999997,1,1,7,1,0.026525990836764546,-0.188879961,0.8332287964427179,-0.023325624,-0.132464659,0.867124116,0.011857862190053322,-0.161817472,0.8682276352528946,3.5053622020109687,4.194286043113955,0.7924436500562156,0.8147754541829981,5.028595,5.779739
10,4,0,0,Low,100,100,100,2.4195727953054247,1.353364297829908,1.200565316172147,0.4132961000141222,0.7388993500149809,0.8329409375146497,8,10,8,0,0,0,300.0045,122.03199999999993,30.50799999999998,100,68.75,0.032778288,4,0,5,80,3,39.33394519470305,6,555.5657532450508,23.336000000000013,32.40499999999997,36.049999999999955,35.84999999999991,1,1,7,1,0.097516927,-0.273372569,0.8139643983124748,0.013345934282851028,-0.191643191,0.8760365375696406,0.04506517,-0.213044973,0.8708344334194591,3.545443667985466,4.076538614291483,0.7775796528996367,0.8021102763234558,5.297043,5.436584
10,5,0,0,Low,100,100,100,2.4195727953054247,1.353364297829908,1.200565316172147,0.4132961000141222,0.7388993500149809,0.8329409375146497,8,10,8,0,0,0,300.0045,157.93900000000008,39.48475000000002,100,68.75,0.025326234,4,0,4,89,3,33.810521783726614,6,463.50869639544356,44.011000000000195,37.562999999999874,45.72900000000004,33.78899999999999,1,1,7,1,0.088386152,-0.280693207,0.7925169137006862,0.028802432526921672,-0.193920726,0.8682095276014867,0.065180761,-0.218092778,0.863642339,3.588751633790738,4.132707492066896,0.8027208153853631,0.8271153868897941,5.070648,5.440338
10,6,0,0,Low,100,100,100,2.4195727953054247,1.353364297829908,1.200565316172147,0.4132961000141222,0.7388993500149809,0.8329409375146497,8,10,8,0,0,0,300.0045,116.29199999999992,29.07299999999998,50,68.75,0.017198087572661933,2,2,6,79,3,40.75946754720878,6,579.3244591201463,35.67399999999998,26.462999999999965,26.263000000000147,31.958999999999833,1,1,7,1,0.077888274,-0.235372558,0.8172670512905674,0.001888214,-0.175702141,0.858406234,0.031187092,-0.202878774,0.8557878738849877,3.4100420991649267,4.068701765230594,0.8069277530661416,0.8308770821400645,4.792343,5.605515
10,7,0,0,Low,100,100,100,2.4195727953054247,1.353364297829908,1.200565316172147,0.4132961000141222,0.7388993500149809,0.8329409375146497,8,10,8,0,0,0,300.0045,104.90600000000018,26.226500000000044,75,68.75,0.028597029721846176,3,1,3,67,3,38.32001982727388,6,538.6669971212314,23.70900000000006,18.713999999999942,31.996000000000095,33.69399999999996,1,1,7,1,-0.087125728,-0.225644767,0.7945973057402482,-0.089886261,-0.149957037,0.8563683420766844,-0.058354053,-0.176147463,0.8571071471963652,3.4301609770611705,4.007182836657801,0.7448423628475177,0.7768471831578015,5.018784,5.484024
10,8,0,0,Low,100,100,100,2.4195727953054247,1.353364297829908,1.200565316172147,0.4132961000141222,0.7388993500149809,0.8329409375146497,8,10,8,0,0,0,300.0045,138.31500000000005,34.578750000000014,75,68.75,0.021689621516104537,3,1,4,79,3,34.26960199544517,6,471.16003325741957,26.845,26.144000000000233,47.68899999999985,37.63700000000017,1,1,7,1,-0.021993739,-0.161631804,0.8085201516960294,-0.054604693,-0.119317213,0.8701567836006662,-0.021749697,-0.140829937,0.8664106903146639,3.481440948461741,4.018170393373652,0.779830552,0.8213689988810587,4.983551,5.553864
15,1,0,0,Low,97.5,100,97.5,2.3456150538867413,2.073846608403809,1.403619720096725,0.4156692285822438,0.48219574000686405,0.6946325888986595,7,10,8,0,0,1,300.00249999999994,174.07399999999984,43.51849999999996,75,62.5,0.017234049886829753,3,1,7,63,23,21.71490285740549,46,-52.79368944,50.61900000000014,18.80099999999993,39.91599999999994,37.218000000000075,2,1,6,3,-0.094024193,-0.151915699,0.6503159915081159,-0.108075156,-0.161483578,0.8200264883010134,-0.082616715,-0.148293321,0.8274315234538346,2.688888280663953,3.2734063283058017,0.8599617744570585,0.8950711990384647,4.114914,4.456802
15,2,0,0,Low,97.5,100,97.5,2.3456150538867413,2.073846608403809,1.403619720096725,0.4156692285822438,0.48219574000686405,0.6946325888986595,7,10,8,0,0,1,300.00249999999994,105.14300000000003,26.285750000000007,50,62.5,0.019021713285715638,2,2,8,43,23,24.538010138573174,46,-46.6564997,50.085000000000036,13.327999999999975,17.103000000000065,32.16300000000001,2,1,6,3,-0.236912226,-0.04871327,0.8082525081283191,-0.17030506,-0.096053614,0.8769136295112171,-0.157710937,-0.082023701,0.8839754381055598,2.8299374664571366,3.290188259564322,0.8663634604432643,0.8915071841771973,3.925079,4.482498
15,3,0,0,Low,97.5,100,97.5,2.3456150538867413,2.073846608403809,1.403619720096725,0.4156692285822438,0.48219574000686405,0.6946325888986595,7,10,8,0,0,1,300.00249999999994,167.7829999999999,41.945749999999975,75,62.5,0.017880238164772366,3,1,9,59,23,21.09868103443139,46,-54.1333021,47.266999999999825,31.153999999999996,43.05000000000018,50.22000000000003,2,1,6,3,-0.190730553,-0.004110798,0.7969678482379207,-0.174273641,-0.059853017,0.8818092312230903,-0.15233288,-0.049743696,0.8861436471296444,2.8078925377132835,3.303011273560835,0.9010967767765109,0.9157386340346038,4.010498,4.486618
15,4,0,0,Low,97.5,100,97.5,2.3456150538867413,2.073846608403809,1.403619720096725,0.4156692285822438,0.48219574000686405,0.6946325888986595,7,10,8,0,0,1,300.00249999999994,127.3599999999999,31.839999999999975,100,62.5,0.031407035,4,0,7,68,23,32.03517587939701,46,-30.35831331,39.221000000000004,42.19899999999984,31.202999999999975,19.10900000000015,2,1,6,3,-0.084052215,-0.122187943,0.7832233397207935,-0.116647208,-0.123114379,0.8808802413666422,-0.093841935,-0.108649721,0.8855819271197649,2.898328147465099,3.465800880235121,0.8858676820933873,0.9188350280055463,4.012375,4.655914
15,5,0,0,Low,97.5,100,97.5,2.3456150538867413,2.073846608403809,1.403619720096725,0.4156692285822438,0.48219574000686405,0.6946325888986595,7,10,8,0,0,1,300.00249999999994,151.72399999999993,37.93099999999998,75,62.5,0.019772745247950235,3,1,9,43,23,17.00456091,46,-63.03356323,50.23699999999985,32.53300000000013,31.15300000000002,40.89300000000003,2,1,6,3,0.021593300133647273,-0.036504497,0.8027257230286241,-0.061902537,-0.079160537,0.89970184,-0.039916707,-0.063449501,0.9023735929455217,2.9512254988919664,3.5412540333333333,0.9245358770304708,0.9349264533672946,4.250336,4.645981
15,6,0,0,Low,97.5,100,97.5,2.3456150538867413,2.073846608403809,1.403619720096725,0.4156692285822438,0.48219574000686405,0.6946325888986595,7,10,8,0,0,1,300.00249999999994,121.98799999999983,30.496999999999957,50,62.5,0.016395055,2,2,9,34,23,16.722956356362946,46,-63.64574705,11.322999999999865,36.59899999999993,25.605999999999995,51.003000000000156,2,1,6,3,-0.089652932,-0.106210376,0.7918445781702128,-0.098311805,-0.115407573,0.8897764335851064,-0.086735289,-0.100326636,0.8935868521595745,2.899458988510638,3.429346978085106,0.9153057620787234,0.9259322183907553,3.997696,4.462708
15,7,0,0,Low,97.5,100,97.5,2.3456150538867413,2.073846608403809,1.403619720096725,0.4156692285822438,0.48219574000686405,0.6946325888986595,7,10,8,0,0,1,300.00249999999994,129.42499999999973,32.35624999999993,25,62.5,0.007726483,1,3,9,55,23,25.497392312149948,46,-44.57088628,21.057999999999993,43.12699999999995,31.53800000000001,35.58100000000013,2,1,6,3,-0.23885572,-0.032385438,0.7776022687433657,-0.179804296,-0.077333784,0.8785099483873602,-0.16691379,-0.062586948,0.8813810679105087,2.886702080672818,3.4072440961051687,0.9098441722826814,0.9169360226979669,4.004593,4.415848
15,8,0,0,Low,97.5,100,97.5,2.3456150538867413,2.073846608403809,1.403619720096725,0.4156692285822438,0.48219574000686405,0.6946325888986595,7,10,8,0,0,1,300.00249999999994,126.25599999999986,31.563999999999965,50,62.5,0.015840831,2,2,9,47,23,22.33557217082755,46,-51.44440832,17.460999999999785,33.152000000000044,37.11299999999983,38.53,2,1,6,3,-0.146573853,-0.047659704,0.7932928246074339,-0.148725868,-0.087631758,0.8806771276585171,-0.128337102,-0.074839504,0.8856233261379448,2.816782576,3.387333860166965,0.8985015053994038,0.9135526066360763,4.132767,4.462585
16,1,9,37.5,Low,100,97.5,100,2.0249606777950135,1.7887948787993109,1.9547337420517665,0.4938367499999572,0.5450597000000622,0.5115786250000269,8,9,8,0,0,0,300.0060000000001,132.40499999999997,33.10124999999999,75,68.75,0.022657755,3,1,3,71,12,32.17401155545486,24,34.05838148106192,22.014000000000124,17.745999999999867,39.093000000000075,19.003999999999905,1,1,5,2,0.025072053052147197,-0.21977244,0.768365598,0.015612515103824021,-0.156922404,0.8508089880895358,0.025684466408325352,-0.163115127,0.8542459665070009,3.3082305620854826,3.8219587694362556,0.9319228819187546,0.9498534137287215,4.6931,5.113861
16,2,9,37.5,Low,100,97.5,100,2.0249606777950135,1.7887948787993109,1.9547337420517665,0.4938367499999572,0.5450597000000622,0.5115786250000269,8,9,8,0,0,0,300.0060000000001,54.61400000000003,13.653500000000008,100,68.75,0.073241293,4,0,2,27,12,29.66272384370306,24,23.594682682096078,20.013000000000147,9.212999999999965,12.410000000000082,17.60199999999986,1,1,5,2,0.073053025,-0.221767461,0.8867007057727692,0.029266233608689057,-0.108576753,0.9068024619365225,0.023818922,-0.129478066,0.9131193997700092,3.7896577371205145,4.233364993790248,0.9587608306807729,0.9662863831646735,4.643799,5.164566
16,3,9,37.5,Low,100,97.5,100,2.0249606777950135,1.7887948787993109,1.9547337420517665,0.4938367499999572,0.5450597000000622,0.5115786250000269,8,9,8,0,0,0,300.0060000000001,72.32999999999993,18.082499999999982,75,68.75,0.041476566,3,1,3,37,12,30.692658647863986,24,27.886077699433276,11.91800000000012,23.139999999999873,26.42100000000005,13.89799999999991,1,1,5,2,0.0770444,-0.264050036,0.8729231725916718,0.041929455,-0.124546859,0.9133240153200746,0.035969817,-0.140645549,0.9125771368707271,3.7725916920447484,4.188674056246116,0.9551826564325668,0.9641997535114979,5.532227,5.137482
16,4,9,37.5,Low,100,97.5,100,2.0249606777950135,1.7887948787993109,1.9547337420517665,0.4938367499999572,0.5450597000000622,0.5115786250000269,8,9,8,0,0,0,300.0060000000001,77.66500000000019,19.416250000000048,75,68.75,0.038627438,3,1,4,39,12,30.12940191849603,24,25.53917466040012,19.75500000000011,21.177999999999884,26.937000000000126,13.16599999999994,1,1,5,2,0.007372318,-0.325706839,0.8388336802781065,0.025024804612490535,-0.170696633,0.8936261653994083,0.020705883,-0.186017081,0.894179733,3.8086314717455623,4.247393450591716,0.9428901459615384,0.9530611248964497,4.6465,5.183655
16,5,9,37.5,Low,100,97.5,100,2.0249606777950135,1.7887948787993109,1.9547337420517665,0.4938367499999572,0.5450597000000622,0.5115786250000269,8,9,8,0,0,0,300.0060000000001,81.91300000000001,20.478250000000003,75,68.75,0.036624223,3,1,5,40,12,29.299378609011995,24,22.08074420421665,24.391000000000076,27.452999999999975,16.791999999999916,15.947000000000116,1,1,5,2,0.10291564468858967,-0.27536737,0.8558230866937302,0.046291374,-0.145789125,0.9004754087204931,0.043976844444788464,-0.164844456,0.9034985308073974,3.778562705457826,4.252246504,0.9512992481130657,0.9564360998797173,6.038132,5.251297
16,6,9,37.5,Low,100,97.5,100,2.0249606777950135,1.7887948787993109,1.9547337420517665,0.4938367499999572,0.5450597000000622,0.5115786250000269,8,9,8,0,0,0,300.0060000000001,60.605999999999995,15.151499999999999,75,68.75,0.049500049500049506,3,1,6,29,12,28.710028710028713,24,19.625119625119638,13.787000000000035,18.876999999999953,15.130999999999858,17.17600000000016,1,1,5,2,0.10180763474685052,-0.234840218,0.86847685,0.047250254,-0.128268365,0.9037287398908133,0.039304368,-0.145474939,0.9028757436746988,3.678797140060241,4.111919107680723,0.944228381,0.9490009473079819,4.526306,5.158417
16,7,9,37.5,Low,100,97.5,100,2.0249606777950135,1.7887948787993109,1.9547337420517665,0.4938367499999572,0.5450597000000622,0.5115786250000269,8,9,8,0,0,0,300.0060000000001,59.15099999999984,14.78774999999996,75,68.75,0.050717654815641465,3,1,6,35,12,35.502358370949025,24,47.92649321228761,9.222,11.628999999999905,25.055000000000064,15.523999999999887,1,1,5,2,-0.021249878,-0.235499194,0.8538336533516807,-0.014382585,-0.117472977,0.889350231,-0.018307967,-0.137052371,0.888441513,3.6064083166896013,4.016807089,0.938934439,0.9380140773540397,4.513962,4.963318
16,8,9,37.5,Low,100,97.5,100,2.0249606777950135,1.7887948787993109,1.9547337420517665,0.4938367499999572,0.5450597000000622,0.5115786250000269,8,9,8,0,0,0,300.0060000000001,61.825000000000045,15.456250000000011,0,68.75,0,0,4,7,32,12,31.05539830165788,24,29.397492923574504,23.922000000000025,4.207000000000107,9.218000000000075,24.477999999999838,1,1,5,2,0.072513542,-0.186193889,0.8278590128307538,0.020982015955843734,-0.107746526,0.8848224212930604,0.026493917,-0.124119513,0.882208868,3.524920660509236,3.9495576243135297,0.9043098495756365,0.891782597,5.356537,5.146606
20,1,11,45.83,High,77.5,97.5,87.5,1.6838787404863989,2.070315316452746,0.8916278246421641,0.46024691764689446,0.4709427555559766,0.9813511599990307,8,9,4,9,0,1,300.00699999999995,184.24399999999991,46.06099999999998,75,75,0.016282755476433434,3,1,4,188,19,61.223160591389714,38,61.11358050365714,24.554999999999836,35.677000000000135,46.909999999999854,28.27300000000014,3,2,8,1,-0.033779194,-0.190298205,0.5627084157335174,-0.027692769,-0.153579037,0.7361426117707973,-0.02314543,-0.118069398,0.4722581599999999,2.333280672488781,1.182929238936831,0.19748630035411804,0.4710715955045633,4.860474,5.090881
20,2,11,45.83,High,77.5,97.5,87.5,1.6838787404863989,2.070315316452746,0.8916278246421641,0.46024691764689446,0.4709427555559766,0.9813511599990307,8,9,4,9,0,1,300.00699999999995,124.048,31.012,100,75,0.032245582355217337,4,0,4,142,19,68.68309041661293,38,80.74497478056033,29.365999999999985,30.412000000000035,22.423000000000002,44.83399999999983,3,2,8,1,-0.067956557,-0.114374562,0.5607705551687083,-0.057375689,-0.085975758,0.7131935817966902,-0.067198801,-0.038685847,0.4330970262088975,2.412298610896196,1.0447495609284334,0.18469780277002582,0.49514653399430464,5.089142,5.165222
20,3,11,45.83,High,77.5,97.5,87.5,1.6838787404863989,2.070315316452746,0.8916278246421641,0.46024691764689446,0.4709427555559766,0.9813511599990307,8,9,4,9,0,1,300.00699999999995,122.94100000000003,30.735250000000008,75,75,0.024401948902318994,3,1,4,175,19,85.40682115811647,38,124.75479252135912,31.187000000000126,30.44100000000003,30.208999999999833,33.39499999999998,3,2,8,1,-0.012956836,-0.110133882,0.578130334,-0.004157467,-0.093115907,0.7680616555090073,-0.038379586,-0.031806595,0.4017104406619187,2.8090513267700037,0.9178814379555928,0.18661023255742187,0.5232600304867198,5.377609,5.104996
20,4,11,45.83,High,77.5,97.5,87.5,1.6838787404863989,2.070315316452746,0.8916278246421641,0.46024691764689446,0.4709427555559766,0.9813511599990307,8,9,4,9,0,1,300.00699999999995,109.7170000000001,27.429250000000025,75,75,0.027343074,3,1,4,135,19,73.82629856813432,38,94.27973307403768,43.703,20.478999999999814,31.25200000000018,16.144000000000005,3,2,8,1,-0.027205754,-0.127953268,0.6153836822497787,-0.028792952,-0.098017183,0.8030957368644819,-0.040682693,-0.051831714,0.43794770565987595,2.9109578853852964,1.1511434074402127,0.2075813880433658,0.5909481296412755,5.23996,5.404602
20,5,11,45.83,High,77.5,97.5,87.5,1.6838787404863989,2.070315316452746,0.8916278246421641,0.46024691764689446,0.4709427555559766,0.9813511599990307,8,9,4,9,0,1,300.00699999999995,121.19999999999982,30.299999999999955,50,75,0.016501650165016528,2,2,5,103,19,50.990099009901066,38,34.18447107868701,35.299999999999955,21.322999999999865,22.478000000000065,43.90300000000002,3,2,8,1,-0.054777745,-0.114701422,0.7008899582842725,-0.069795768,-0.081988296,0.8094361014057432,-0.057520738,-0.039167128,0.607301305,2.958055613120269,2.0071599122912414,0.3264098404547158,0.6395251177335575,5.168182,5.412811
20,6,11,45.83,High,77.5,97.5,87.5,1.6838787404863989,2.070315316452746,0.8916278246421641,0.46024691764689446,0.4709427555559766,0.9813511599990307,8,9,4,9,0,1,300.00699999999995,95.93500000000017,23.983750000000043,50,75,0.020847448793453863,2,2,5,136,19,85.05759107729178,38,123.83576599287309,17.26800000000003,29.154999999999973,19.534999999999854,31.608000000000175,3,2,8,1,-0.075231039,-0.143082676,0.6236012418541667,-0.055388347,-0.109082982,0.7697597956458334,-0.05734688,-0.064728588,0.49633514664583334,2.8150474070833336,1.4436762094791666,0.2886283160338125,0.621657159,5.106186,5.451599
20,7,11,45.83,High,77.5,97.5,87.5,1.6838787404863989,2.070315316452746,0.8916278246421641,0.46024691764689446,0.4709427555559766,0.9813511599990307,8,9,4,9,0,1,300.00699999999995,121.57999999999993,30.394999999999982,100,75,0.032900148050666246,4,0,4,161,19,79.45385754235899,38,109.08909879568156,25.82900000000018,33.35699999999997,42.41300000000001,23.609999999999673,3,2,8,1,-0.075543516,-0.133348773,0.6555540597055803,-0.026296433,-0.103165569,0.7933746810424511,-0.05406108,-0.053828309,0.5358742246918864,2.8883936269257107,1.657954808370421,0.2741682854427251,0.6248352204630263,5.035019,5.332016
20,8,11,45.83,High,77.5,97.5,87.5,1.6838787404863989,2.070315316452746,0.8916278246421641,0.46024691764689446,0.4709427555559766,0.9813511599990307,8,9,4,9,0,1,300.00699999999995,131.64000000000033,32.91000000000008,75,75,0.022789426,3,1,5,140,19,63.81039197812199,38,67.92208415,15.882000000000062,31.363000000000284,42.259000000000015,42.13599999999997,3,2,8,1,-0.092865917,-0.118040112,0.6076663758588284,-0.0736047,-0.09535686,0.7577589184922209,-0.047960558,-0.048927815,0.49570193466638823,2.774571778949567,1.425636477289339,0.2826039620790122,0.5372461468057848,5.318848,5.440948
21,1,14,58.33,High,100,97.5,95,2.1405098062903627,2.579232706,1.9810634523777702,0.46717842500009965,0.3780193999999331,0.4795404200000576,8,9,8,0,0,2,300.00299999999993,123.9090000000001,30.977250000000026,100,78.125,0.032281755,4,0,1,54,14,26.148221678812654,28,-6.613494004,35.807000000000016,19.55600000000004,22.58199999999988,26.894999999999982,1,1,6,1,-0.159850443,-0.027241355,0.8278713016347239,-0.111090868,-0.044006224,0.8760069465614431,-0.103366955,-0.050563768,0.8811714581059753,2.968973912175874,2.997518832243517,0.9321383357768883,0.9275950813720406,4.235703,4.202225
21,2,14,58.33,High,100,97.5,95,2.1405098062903627,2.579232706,1.9810634523777702,0.46717842500009965,0.3780193999999331,0.4795404200000576,8,9,8,0,0,2,300.00299999999993,89.47000000000003,22.367500000000007,100,78.125,0.044707723,4,0,2,37,14,24.812786408852123,28,-11.38290568,26.937000000000126,26.644999999999982,17.867999999999938,21.16599999999994,1,1,6,1,-0.086978046,-0.110485194,0.8693130827906386,-0.069940415,-0.105982092,0.8951245381582293,-0.056061445,-0.106014718,0.8997229713813278,3.187519550114475,3.1414606545408295,0.9270930085716548,0.9175316079798779,4.515259,4.051071
21,3,14,58.33,High,100,97.5,95,2.1405098062903627,2.579232706,1.9810634523777702,0.46717842500009965,0.3780193999999331,0.4795404200000576,8,9,8,0,0,2,300.00299999999993,69.54300000000012,17.38575000000003,100,78.125,0.05751837,4,0,2,32,14,27.60881756611013,28,-1.397080121,18.298999999999978,24.427000000000135,14.68899999999985,15.142000000000053,1,1,6,1,-0.001194292,-0.085380955,0.8782809063871951,-0.012450539,-0.106585875,0.9121418919359756,0.003044944,-0.107215414,0.9178459123780488,3.235485477134146,3.205740523628049,0.9443148992762195,0.9301726844883537,4.060623,3.979996
21,4,14,58.33,High,100,97.5,95,2.1405098062903627,2.579232706,1.9810634523777702,0.46717842500009965,0.3780193999999331,0.4795404200000576,8,9,8,0,0,2,300.00299999999993,73.78600000000006,18.446500000000015,75,78.125,0.040658119,3,1,2,23,14,18.702734936166735,28,-33.20451809,17.798000000000002,22.692000000000007,17.623000000000047,18.015,1,1,6,1,0.037729932,-0.109125594,0.8953236458784345,0.016262378668263112,-0.121099832,0.9262781997835138,0.034803046,-0.121078695,0.928730175,3.3574916226477938,3.3217523197335552,0.9493430429425479,0.9448775240997502,4.16925,4.100555
21,5,14,58.33,High,100,97.5,95,2.1405098062903627,2.579232706,1.9810634523777702,0.46717842500009965,0.3780193999999331,0.4795404200000576,8,9,8,0,0,2,300.00299999999993,98.08699999999999,24.521749999999997,25,78.125,0.010195031,1,3,5,41,14,25.079776117120517,28,-10.42937101,29.832999999999856,7.904999999999973,32.67399999999998,29.94100000000003,1,1,6,1,0.1161950274697236,-0.119313511,0.8623407174267551,0.036751536,-0.125347991,0.907841897,0.054894938,-0.12318337,0.9119099844250967,3.3174418214483143,3.2471478360972914,0.940136439,0.9348657418282199,4.302139,4.31424
21,6,14,58.33,High,100,97.5,95,2.1405098062903627,2.579232706,1.9810634523777702,0.46717842500009965,0.3780193999999331,0.4795404200000576,8,9,8,0,0,2,300.00299999999993,73.02300000000014,18.255750000000035,75,78.125,0.041082946468920675,3,1,5,36,14,29.579721457622885,28,5.641862348653159,17.30899999999997,18.77500000000009,18.162000000000035,20.646999999999935,1,1,6,1,-0.056298994,-0.071229949,0.879313079,-0.032353557,-0.091687447,0.9136118357843138,-0.015135998,-0.089939103,0.9186497969579007,3.3062176663783163,3.2270632743656287,0.9342315453408304,0.9279987535132642,4.168091,4.070557
21,7,14,58.33,High,100,97.5,95,2.1405098062903627,2.579232706,1.9810634523777702,0.46717842500009965,0.3780193999999331,0.4795404200000576,8,9,8,0,0,2,300.00299999999993,74.52800000000002,18.632000000000005,100,78.125,0.053671103,4,0,4,31,14,24.957063117217686,28,-10.86763172,13.200000000000045,19.91899999999987,20.811999999999898,24.162000000000262,1,1,6,1,-0.074281063,-0.104716141,0.8674834672613307,-0.041017401,-0.106911018,0.9011168390549663,-0.024442183,-0.103663448,0.9051673543715847,3.2916860374477657,3.206905318225651,0.9348673232966893,0.9233619303545483,4.290649,4.22644
21,8,14,58.33,High,100,97.5,95,2.1405098062903627,2.579232706,1.9810634523777702,0.46717842500009965,0.3780193999999331,0.4795404200000576,8,9,8,0,0,2,300.00299999999993,90.41399999999976,22.60349999999994,50,78.125,0.022120468,2,2,7,42,14,27.871789767071544,28,-0.457893689,20.746000000000095,24.799999999999727,20.957000000000335,23.910999999999603,1,1,6,1,-0.020831933,-0.10187089,0.8501295931668305,-0.033958445,-0.11054242,0.896996328,-0.016046665,-0.110396149,0.9009890925073664,3.3466563953977837,3.2343223627052056,0.9304037644943959,0.9273036661612178,4.450119,4.312286
22,1,14,58.33,High,100,100,100,2.409098248626652,2.6028421318226327,2.4028274791809907,0.4150930750001862,0.38419540999966556,0.41617636249975476,8,10,8,0,0,0,300.00800000000004,71.298,17.8245,50,87.5,0.028051278,2,2,4,15,3,12.623074981065386,6,110.38458301775644,21.608999999999924,11.97199999999998,20.66300000000001,16.260999999999967,1,2,5,1,-0.039216948,-0.103633628,0.9047880141212007,-0.03304863,0.00304738,0.931486704,-0.031314799,0.006126735,0.929510256,3.266401162922409,3.341717263167831,0.9764921538512366,0.9771202454842364,4.415314,4.434738
22,2,14,58.33,High,100,100,100,2.409098248626652,2.6028421318226327,2.4028274791809907,0.4150930750001862,0.38419540999966556,0.41617636249975476,8,10,8,0,0,0,300.00800000000004,63.480999999999995,15.870249999999999,100,87.5,0.06301098,4,0,4,12,3,11.341976339377137,6,89.03293898961894,24.037000000000035,12.150000000000091,11.092999999999847,19.422000000000025,1,2,5,1,-0.038063796,-0.221462114,0.8799837398944804,-0.033283761,-0.063841335,0.920113421,-0.026042763,-0.059171992,0.9183543290584416,3.3410326410308437,3.434494562297078,0.9744473932528408,0.9737269011586852,4.166595,4.519516
22,3,14,58.33,High,100,100,100,2.409098248626652,2.6028421318226327,2.4028274791809907,0.4150930750001862,0.38419540999966556,0.41617636249975476,8,10,8,0,0,0,300.00800000000004,74.90000000000009,18.725000000000023,100,87.5,0.053404539,4,0,4,13,3,10.413885180240307,6,73.56475300400511,17.079999999999927,25.624000000000024,19.03300000000013,16.74000000000001,1,2,5,1,-0.081289739,-0.316155449,0.8729379181387078,-0.087187259,-0.117964602,0.9225993514819205,-0.083705143,-0.11506107,0.9185333637818615,3.6046497107291047,3.728987765708358,0.9658886212833433,0.9732102116567871,4.440704,4.607071
22,4,14,58.33,High,100,100,100,2.409098248626652,2.6028421318226327,2.4028274791809907,0.4150930750001862,0.38419540999966556,0.41617636249975476,8,10,8,0,0,0,300.00800000000004,56.41599999999994,14.103999999999985,100,87.5,0.070901872,4,0,3,16,3,17.016449234259802,6,183.60748723766338,17.560999999999922,14.224999999999909,17.13500000000022,10.526999999999816,1,2,5,1,-0.030827783,-0.313356217,0.8509920091480317,-0.042421047,-0.120507438,0.9056435596932175,-0.040061617,-0.116352369,0.9028667181851782,3.5301420218074293,3.650464405,0.9654515628719276,0.9659779577996673,4.481934,4.882141
22,5,14,58.33,High,100,100,100,2.409098248626652,2.6028421318226327,2.4028274791809907,0.4150930750001862,0.38419540999966556,0.41617636249975476,8,10,8,0,0,0,300.00800000000004,74.99099999999999,18.747749999999996,100,87.5,0.053339734101425514,4,0,5,16,3,12.801536184342122,6,113.35893640570205,15.048000000000002,26.479000000000042,18.317000000000007,19.386999999999944,1,2,5,1,0.040721125,-0.29219185,0.8669068319544985,0.014308194762573247,-0.101301104,0.9230216588417786,0.019883801,-0.090541801,0.9188991743709065,3.520263697518097,3.615007127,0.9310422923743535,0.9511319855808342,4.794968,5.355881
22,6,14,58.33,High,100,100,100,2.409098248626652,2.6028421318226327,2.4028274791809907,0.4150930750001862,0.38419540999966556,0.41617636249975476,8,10,8,0,0,0,300.00800000000004,65.97300000000018,16.493250000000046,75,87.5,0.045473148106043255,3,1,5,14,3,12.732481469692111,6,112.20802449486851,9.151000000000067,22.21199999999999,22.583000000000084,19.44699999999989,1,2,5,1,0.048910646,-0.392678486,0.848217712,0.035374192,-0.167567433,0.9238957025475599,0.043394236,-0.153583478,0.9188036726550869,3.727008432423491,3.8481102344086024,0.968264298,0.9740750137435897,5.047638,4.767853
22,7,14,58.33,High,100,100,100,2.409098248626652,2.6028421318226327,2.4028274791809907,0.4150930750001862,0.38419540999966556,0.41617636249975476,8,10,8,0,0,0,300.00800000000004,73.77700000000004,18.44425000000001,75,87.5,0.040663079,3,1,6,22,3,17.891754882958093,6,198.19591471596823,11.745000000000118,10.174999999999955,34.60400000000004,19.758000000000038,1,2,5,1,0.058784286,-0.385884216,0.8323452732978192,0.041219873,-0.171071065,0.9109509478441817,0.053988655,-0.149674717,0.9052066616114534,3.583141192941568,3.6750303780589317,0.8976951657940735,0.9307102351306809,5.051361,5.355118
22,8,14,58.33,High,100,100,100,2.409098248626652,2.6028421318226327,2.4028274791809907,0.4150930750001862,0.38419540999966556,0.41617636249975476,8,10,8,0,0,0,300.00800000000004,87.13099999999986,21.782749999999965,100,87.5,0.045907885827088026,4,0,5,23,3,15.838220610345369,6,163.97034350575615,17.56399999999985,18.064000000000078,20.67100000000005,30.83199999999988,1,2,5,1,-0.027245715,-0.306458159,0.8605125106372858,-0.021656499,-0.10759017,0.9258330924698795,-0.00796973,-0.095211805,0.9208593132213061,3.5451611903931513,3.6649166221147746,0.8960642808850665,0.92213015,5.410034,5.759201
23,1,22,91.67,High,100,97.5,97.5,2.4576999123847774,1.8815588003870747,1.7288475161569312,0.40688449999970544,0.5181873666660977,0.5639595111125446,8,9,8,0,0,1,300.00339999999994,112.83200000000011,28.208000000000027,75,84.375,0.026588201928530886,3,1,3,79,8,42.00935905,16,162.5584940442425,48.192999999999984,16.947999999999865,16.980999999999995,17.60200000000009,4,2,6,1,0.18588053360572998,-0.166831443,0.7284254818002195,0.092394352,-0.065449671,0.8371033142041712,0.10485041106496157,-0.068228838,0.8388294969484082,3.8635549785949506,3.8288170320526898,0.8861917581724478,0.8862476077709243,5.520233,5.54541
23,2,22,91.67,High,100,97.5,97.5,2.4576999123847774,1.8815588003870747,1.7288475161569312,0.40688449999970544,0.5181873666660977,0.5639595111125446,8,9,8,0,0,1,300.00339999999994,54.565000000000055,13.641250000000014,100,84.375,0.073307065,4,0,3,48,8,52.78108678,16,229.88179235773814,16.94699999999989,15.912000000000035,7.578999999999951,20.166000000000167,4,2,6,1,0.12214545827741376,-0.259979903,0.7504095119240565,0.064333296,-0.100441454,0.8335101219958323,0.071879846,-0.114325781,0.8351993257698541,3.9240132093077094,3.8825681539708268,0.8821753377960547,0.891710574,5.607803,5.574753
23,3,22,91.67,High,100,97.5,97.5,2.4576999123847774,1.8815588003870747,1.7288475161569312,0.40688449999970544,0.5181873666660977,0.5639595111125446,8,9,8,0,0,1,300.00339999999994,67.07199999999989,16.767999999999972,75,84.375,0.044728053,3,1,4,70,8,62.619274809160416,16,291.3704675572526,25.500999999999976,15.724999999999909,15.195000000000164,21.784999999999854,4,2,6,1,0.055599621,-0.182568923,0.7689049829469929,0.036513885,-0.067509233,0.8344362527151888,0.040625856,-0.082017473,0.8356115195169396,3.863023422272654,3.8108072335872913,0.8805510724684713,0.8858176309572217,5.500946,5.388062
23,4,22,91.67,High,100,97.5,97.5,2.4576999123847774,1.8815588003870747,1.7288475161569312,0.40688449999970544,0.5181873666660977,0.5639595111125446,8,9,8,0,0,1,300.00339999999994,62.587999999999965,15.646999999999991,100,84.375,0.063910015,4,0,4,61,8,58.477663449862625,16,265.4853965616414,18.174999999999955,13.855000000000018,18.291000000000167,17.395999999999958,4,2,6,1,0.06454812,-0.252042343,0.7423937625192013,0.046249165845159375,-0.110451117,0.8220143337941629,0.049156885,-0.125684925,0.8242462708333333,3.904694837941628,3.867146961,0.8911283475499232,0.8939139296802996,5.587097,5.546387
23,5,22,91.67,High,100,97.5,97.5,2.4576999123847774,1.8815588003870747,1.7288475161569312,0.40688449999970544,0.5181873666660977,0.5639595111125446,8,9,8,0,0,1,300.00339999999994,81.74800000000005,20.437000000000012,50,84.375,0.024465430346919788,2,2,6,70,8,51.377403728531554,16,221.1087733033222,18.66599999999994,22.912000000000035,15.720000000000027,38.909999999999854,4,2,6,1,0.13018959325617552,-0.219706512,0.7436773596026489,0.079890645,-0.099937621,0.8210934230794702,0.078978736,-0.113351736,0.8235324073675496,3.926259176986755,3.903106082450331,0.8888458514304636,0.8831753436812584,5.707932,5.652863
23,6,22,91.67,High,100,97.5,97.5,2.4576999123847774,1.8815588003870747,1.7288475161569312,0.40688449999970544,0.5181873666660977,0.5639595111125446,8,9,8,0,0,1,300.00339999999994,61.03899999999999,15.259749999999997,100,84.375,0.065531873,4,0,4,62,8,60.94464195022855,16,280.90401218892845,14.960000000000036,12.22199999999998,15.298999999999978,24.766000000000076,4,2,6,1,0.10953920995794902,-0.266692819,0.7444872254361956,0.070294709,-0.121203475,0.8323733806705439,0.075029461,-0.137565081,0.8340273998802601,4.053107315771467,3.988251652,0.8760618608097159,0.8907488953458774,5.650146,5.531281
23,7,22,91.67,High,100,97.5,97.5,2.4576999123847774,1.8815588003870747,1.7288475161569312,0.40688449999970544,0.5181873666660977,0.5639595111125446,8,9,8,0,0,1,300.00339999999994,115.62799999999993,28.906999999999982,100,84.375,0.034593697,4,0,6,97,8,50.33382917632411,16,214.58643235202567,14.396999999999935,29.81600000000003,46.18100000000004,40.41300000000001,4,2,6,1,0.076305791,-0.253000444,0.7499405689011456,0.048145755,-0.118848119,0.8398078023971148,0.050336221,-0.133448546,0.840726894,4.156081937950785,4.116474526,0.8713666262115823,0.8866732845709587,5.83757,5.687775
23,8,22,91.67,High,100,97.5,97.5,2.4576999123847774,1.8815588003870747,1.7288475161569312,0.40688449999970544,0.5181873666660977,0.5639595111125446,8,9,8,0,0,1,300.00339999999994,90.53999999999996,22.63499999999999,75,84.375,0.033134526,3,1,7,72,8,47.71371769,16,198.21073558648123,21.394999999999982,10.560999999999922,20.503000000000156,38.080999999999904,4,2,6,1,0.092982924,-0.222638129,0.768290898,0.058143161,-0.097849138,0.8473162083658757,0.058252261907072694,-0.113447774,0.8495756295133674,4.261147765395013,4.1800488134574945,0.8705921602988886,0.8967223721444878,5.780853,5.825226
24,1,12,50,High,97.5,97.5,95,2.213813180054553,1.889111379443367,1.246117197,0.4404165666661963,0.5161156777782404,0.7623680999986391,8,9,7,1,0,1,300.01060000000007,86.75599999999986,21.688999999999965,75,90.625,0.034579741,3,1,4,15,7,10.373922264742514,14,-25.90055525,38.090999999999894,12.911000000000058,14.187999999999874,27.710000000000036,3,1,6,3,-0.124148675,-0.313140435,0.8450813941140405,-0.115448054,-0.165230375,0.9186634397148988,-0.098331006,-0.171035241,0.923740624,3.9443780774064994,4.125703929950951,0.9524627496474556,0.9372305703525444,5.393799,5.386978
24,2,12,50,High,97.5,97.5,95,2.213813180054553,1.889111379443367,1.246117197,0.4404165666661963,0.5161156777782404,0.7623680999986391,8,9,7,1,0,1,300.01060000000007,56.184999999999945,14.046249999999986,100,90.625,0.071193379,4,0,3,10,7,10.67900685236274,14,-23.72137963,15.942000000000007,11.67100000000005,15.698000000000093,17.116999999999962,3,1,6,3,-0.131898813,-0.324772138,0.8679552445477074,-0.110750408,-0.16766305,0.9220760667699299,-0.098550124,-0.177212188,0.9281648711482858,4.149864319083024,4.346746062783973,0.9643647906092525,0.9556038137546469,5.020264,5.384644
24,3,12,50,High,97.5,97.5,95,2.213813180054553,1.889111379443367,1.246117197,0.4404165666661963,0.5161156777782404,0.7623680999986391,8,9,7,1,0,1,300.01060000000007,71.42499999999995,17.85624999999999,100,90.625,0.0560028,4,0,4,18,7,15.12075604,14,8.005400270013574,24.781999999999925,25.595000000000027,11.316000000000031,14.782999999999902,3,1,6,3,-0.153815456,-0.295836161,0.8796281215698297,-0.123804203,-0.141679604,0.9315573097347847,-0.112193397,-0.148015697,0.934842801,4.284566159282539,4.502546986509275,0.9574548170933619,0.9422786696611988,5.375534,5.866623
24,4,12,50,High,97.5,97.5,95,2.213813180054553,1.889111379443367,1.246117197,0.4404165666661963,0.5161156777782404,0.7623680999986391,8,9,7,1,0,1,300.01060000000007,76.05799999999999,19.014499999999998,75,90.625,0.039443582529122515,3,1,5,12,7,9.466459806989404,14,-32.38242995,19.24700000000007,19.057999999999993,23.057000000000016,18.644999999999982,3,1,6,3,-0.16092371,-0.33153207,0.8625748777993214,-0.13292743,-0.165808762,0.9293728087251574,-0.122247555,-0.175852959,0.9312316771853288,4.298165887,4.514864874616254,0.9699419722087574,0.9668049816125384,5.190338,6.179047
24,5,12,50,High,97.5,97.5,95,2.213813180054553,1.889111379443367,1.246117197,0.4404165666661963,0.5161156777782404,0.7623680999986391,8,9,7,1,0,1,300.01060000000007,84.27800000000002,21.069500000000005,100,90.625,0.047461971,4,0,5,15,7,10.67894349652341,14,-23.72183217,18.451999999999998,23.117999999999938,21.35699999999997,24.550000000000182,3,1,6,3,-0.085838536,-0.348889382,0.8550354004254695,-0.076347791,-0.175912926,0.9254084573796948,-0.071277133,-0.185343824,0.9324425790346245,4.367628169014084,4.646515937793428,0.9535633666666667,0.9429483945129108,5.517502,6.148422
24,6,12,50,High,97.5,97.5,95,2.213813180054553,1.889111379443367,1.246117197,0.4404165666661963,0.5161156777782404,0.7623680999986391,8,9,7,1,0,1,300.01060000000007,68.54599999999982,17.136499999999955,75,90.625,0.04376623,3,1,5,13,7,11.379219794006975,14,-18.71985861,17.357999999999947,21.04099999999994,12.61,21.031000000000176,3,1,6,3,-0.125618893,-0.345418944,0.8544148209832905,-0.120564264,-0.16923213,0.9293937112949872,-0.113745341,-0.176612541,0.9321090188946014,4.251438729595116,4.518089728952442,0.9654321753856041,0.9593835293541132,5.215195,5.493073
24,7,12,50,High,97.5,97.5,95,2.213813180054553,1.889111379443367,1.246117197,0.4404165666661963,0.5161156777782404,0.7623680999986391,8,9,7,1,0,1,300.01060000000007,102.39699999999993,25.599249999999984,100,90.625,0.039063644,4,0,5,14,7,8.203365332968744,14,-41.40453334,29.625,21.521999999999935,32.358999999999924,23.888000000000147,3,1,6,3,-0.17655099,-0.360994925,0.8500767421844492,-0.132974874,-0.166597767,0.9272549511772138,-0.131931247,-0.179717499,0.9274156310210175,4.475294453772827,4.712638381,0.9652118178327782,0.9586676885333639,6.017548,5.983307
24,8,12,50,High,97.5,97.5,95,2.213813180054553,1.889111379443367,1.246117197,0.4404165666661963,0.5161156777782404,0.7623680999986391,8,9,7,1,0,1,300.01060000000007,96.82600000000002,24.206500000000005,100,90.625,0.041311218061264525,4,0,5,14,7,8.675355793,14,-38.03317291,18.31899999999996,22.406999999999925,28.093000000000075,28.007000000000062,3,1,6,3,-0.194027657,-0.354060247,0.8286308999336518,-0.141012326,-0.164705706,0.9268647448779193,-0.138774126,-0.177444311,0.9248626365976647,4.410157658837581,4.660416670116773,0.9730289645912951,0.9693399747478768,5.29068,5.717972
25,1,6,25,Low,100,100,95,2.2351379045144824,1.854238153343589,1.3263386606956409,0.44739968750036496,0.5393050499995298,0.7162574900001346,8,10,8,0,0,2,300.0051000000001,70.14399999999989,17.535999999999973,75,84.375,0.042769161,3,1,6,21,12,17.96304745,24,-25.15396898,14.17599999999993,9.767000000000053,13.956000000000131,14.092999999999847,1,1,6,2,0.049329277,-0.089547241,0.8209323791750319,-0.009969345,-0.036332992,0.9069938055302063,0.007756953,-0.027330306,0.9100363757802519,3.587321380543895,3.609881602,0.9183553411370687,0.8907627938037963,5.068481,5.45665
25,2,6,25,Low,100,100,95,2.2351379045144824,1.854238153343589,1.3263386606956409,0.44739968750036496,0.5393050499995298,0.7162574900001346,8,10,8,0,0,2,300.0051000000001,90.673,22.66825,100,84.375,0.044114566,4,0,6,22,12,14.557806623802014,24,-39.3424724,28.50999999999999,21.02300000000014,13.971000000000004,31.39099999999985,1,1,6,2,0.18459766431883445,-0.296338638,0.8135356716425199,0.048506455,-0.15089099,0.9248997979163276,0.060443585,-0.139901957,0.923965241,4.1301775668240275,4.141795628194694,0.9414530897297737,0.9391231002682728,5.539932,6.416397
25,3,6,25,Low,100,100,95,2.2351379045144824,1.854238153343589,1.3263386606956409,0.44739968750036496,0.5393050499995298,0.7162574900001346,8,10,8,0,0,2,300.0051000000001,110.54500000000007,27.636250000000018,100,84.375,0.036184359,4,0,7,40,12,21.710615586412757,24,-9.539101723,24.285000000000082,23.866999999999962,40.57899999999995,24.736000000000104,1,1,6,2,-0.048880224,-0.262931135,0.8323336994330615,-0.066795565,-0.119033172,0.919857098,-0.053931066,-0.111411498,0.9258537407598966,3.9073165303361845,3.923963200517207,0.9312000178094291,0.9233647533811419,5.445892,5.904007
25,4,6,25,Low,100,100,95,2.2351379045144824,1.854238153343589,1.3263386606956409,0.44739968750036496,0.5393050499995298,0.7162574900001346,8,10,8,0,0,2,300.0051000000001,67.96299999999997,16.99074999999999,100,84.375,0.058855554,4,0,5,26,12,22.953665965304662,24,-4.359725145,15.667999999999893,10.230999999999995,33.96199999999999,13.578000000000202,1,1,6,2,0.097722255,-0.350587554,0.80969132,-0.000628127,-0.18139092,0.9210703951352125,0.009171399,-0.171600902,0.9221193557161254,4.049489628416083,4.076054364,0.9358755821405065,0.9264963090599514,5.435287,5.49173
25,5,6,25,Low,100,100,95,2.2351379045144824,1.854238153343589,1.3263386606956409,0.44739968750036496,0.5393050499995298,0.7162574900001346,8,10,8,0,0,2,300.0051000000001,61.66099999999983,15.415249999999958,75,84.375,0.048653119,3,1,7,14,12,13.62287345323628,24,-43.23802728,7.5190000000000055,13.005999999999858,14.303000000000111,30.89799999999991,1,1,6,2,0.1369166892825666,-0.254841136,0.809994607,0.038901638,-0.125821377,0.9198767811968159,0.05188782,-0.118256594,0.9242515570134504,3.8503224781773264,3.8965502640680763,0.9398236532956354,0.9309550324935493,5.307556,5.190018
25,6,6,25,Low,100,100,95,2.2351379045144824,1.854238153343589,1.3263386606956409,0.44739968750036496,0.5393050499995298,0.7162574900001346,8,10,8,0,0,2,300.0051000000001,84.54999999999995,21.13749999999999,100,84.375,0.047309284,4,0,5,33,12,23.418095801301018,24,-2.424600828,12.259999999999991,23.057999999999993,15.65800000000013,39.97,1,1,6,2,0.039659632,-0.314138049,0.8086606928293065,-0.013930681,-0.16131935,0.9058078455806704,-0.001963768,-0.15247748,0.9105750930787218,3.8714979784879193,3.9145121546375683,0.9309231940706156,0.9249855657706937,5.537827,5.586655
25,7,6,25,Low,100,100,95,2.2351379045144824,1.854238153343589,1.3263386606956409,0.44739968750036496,0.5393050499995298,0.7162574900001346,8,10,8,0,0,2,300.0051000000001,61.828,15.45700000000005,75,84.375,0.048521705376204795,3,1,7,29,12,28.14258911819878,24,17.260787992494922,9.512000000000171,15.567999999999984,20.182000000000016,19.730000000000018,1,1,6,2,0.077739552,-0.291176568,0.8366316436092469,-0.014542125,-0.154190488,0.9178784721551082,-0.006283281,-0.147481182,0.9225467553318418,4.037063286055183,4.143103510365399,0.9215556771558538,0.9122185039236389,5.458313,5.408463
25,8,6,25,Low,100,100,95,2.2351379045144824,1.854238153343589,1.3263386606956409,0.44739968750036496,0.5393050499995298,0.7162574900001346,8,10,8,0,0,2,300.0051000000001,57.35299999999984,14.33824999999996,50,84.375,0.034871759105888196,2,2,8,16,12,16.738444370826333,24,-30.25648179,12.799999999999955,10.722999999999956,14.461000000000013,19.368999999999915,1,1,6,2,0.076705894,-0.24244724,0.8650380423622047,-0.004335696,-0.125378855,0.9297661047244096,0.007140003,-0.11865922,0.9357830381102363,3.892233406974128,3.9767894089988753,0.9347240951226098,0.9217389644724411,5.597031,5.350937
26,1,3,12.5,Low,90,75,77.5,1.0946690246944022,1.2188287591964289,1.3999634022382619,0.8221663166647583,0.6153448499972001,0.5535859000034785,5,1,1,1,1,2,300.00520000000006,92.70800000000008,23.17700000000002,50,59.375,0.021573111274107933,2,2,5,59,23,38.18440695517104,46,-16.99041966,15.444999999999936,9.338999999999942,26.188000000000102,15.071999999999889,6,2,8,9,-0.088667526,-0.178118765,0.6899846488115587,-0.096789255,-0.021154316,0.7665244643331977,-0.0953368,-0.013825549,0.7324431372405372,2.3854819013702344,2.3194311149097815,0.6620546864335505,0.7911560549896893,4.932724,4.966492
26,2,3,12.5,Low,90,75,77.5,1.0946690246944022,1.2188287591964289,1.3999634022382619,0.8221663166647583,0.6153448499972001,0.5535859000034785,5,1,1,1,1,2,300.00520000000006,36.30400000000009,9.076000000000022,75,59.375,0.082635522,3,1,4,18,23,29.748788012340164,46,-35.32872171,12.517000000000053,7.150000000000091,9.916999999999916,11.24499999999989,6,2,8,9,-0.174491,-0.348120081,0.82227206,-0.156989855,-0.102209556,0.9164789577851539,-0.159757244,-0.095314998,0.8906449238080869,2.9582394,2.992730742305371,0.8775042784188293,0.9147494571931202,4.712753,4.506714
26,3,3,12.5,Low,90,75,77.5,1.0946690246944022,1.2188287591964289,1.3999634022382619,0.8221663166647583,0.6153448499972001,0.5535859000034785,5,1,1,1,1,2,300.00520000000006,20.730000000000018,5.1825000000000045,100,59.375,0.19295706705258064,4,0,2,14,23,40.52098408104194,46,-11.91090417,7.371000000000095,4.400000000000091,4.444,11.039999999999964,6,2,8,9,-0.185284499,-0.300994436,0.8349916385162601,-0.165598886,-0.084663013,0.9132898859247968,-0.172507132,-0.06824773,0.884967794,2.836027399390244,2.8662666575203253,0.850277103,0.8741041137322154,3.648117,4.251663
26,4,3,12.5,Low,90,75,77.5,1.0946690246944022,1.2188287591964289,1.3999634022382619,0.8221663166647583,0.6153448499972001,0.5535859000034785,5,1,1,1,1,2,300.00520000000006,29.748000000000047,7.437000000000012,50,59.375,0.067231411,2,2,6,17,23,34.288019362646175,46,-25.46082747,11.088999999999942,3.3220000000001164,6.789999999999964,13.038000000000011,6,2,8,9,-0.206060051,-0.348683838,0.8304664408457249,-0.163622459,-0.117787328,0.9165861856412639,-0.16126016,-0.108468147,0.8938091635687733,2.921130285780669,2.950671480947955,0.8148393304335502,0.8620384047444237,4.371887,4.456512
26,5,3,12.5,Low,90,75,77.5,1.0946690246944022,1.2188287591964289,1.3999634022382619,0.8221663166647583,0.6153448499972001,0.5535859000034785,5,1,1,1,1,2,300.00520000000006,19.57899999999995,4.894749999999988,50,59.375,0.10215026303692758,2,2,7,14,23,42.903110475509585,46,-6.732368532,6.714999999999918,4.0090000000000146,2.910000000000082,14.692000000000007,6,2,8,9,-0.178780381,-0.274919327,0.7548679983818771,-0.150434825,-0.085364827,0.8255283362459548,-0.150566391,-0.076379239,0.7927490971413161,2.5017671348435813,2.472483535598706,0.7266251255458468,0.7573814988175835,4.320694,4.125229
26,6,3,12.5,Low,90,75,77.5,1.0946690246944022,1.2188287591964289,1.3999634022382619,0.8221663166647583,0.6153448499972001,0.5535859000034785,5,1,1,1,1,2,300.00520000000006,35.20699999999988,8.80175,25,59.375,0.028403442,1,3,6,29,23,49.42198994518152,46,7.439108576481571,21.10699999999997,5.097999999999956,4.248000000000047,8.987,6,2,8,9,-0.141385132,-0.370671652,0.7255695214496556,-0.149414654,-0.149899994,0.8467441029845852,-0.156737638,-0.139079689,0.8103796324368645,2.7488837999344047,2.750941188586422,0.78267337,0.8237519157044934,4.677414,4.47139
26,7,3,12.5,Low,90,75,77.5,1.0946690246944022,1.2188287591964289,1.3999634022382619,0.8221663166647583,0.6153448499972001,0.5535859000034785,5,1,1,1,1,2,300.00520000000006,24.67599999999993,6.168999999999983,75,59.375,0.12157562003566252,3,1,4,14,23,34.041173609985506,46,-25.99744867,9.685999999999922,2.9449999999999363,7.858999999999924,7.319000000000187,6,2,8,9,-0.218212764,-0.256697752,0.7441637520606348,-0.171381566,-0.065803453,0.8411502077214591,-0.175096563,-0.051807578,0.7935256885362388,2.648499453,2.5673003477025103,0.7776009244334439,0.8305917394031265,4.056,4.414505
26,8,3,12.5,Low,90,75,77.5,1.0946690246944022,1.2188287591964289,1.3999634022382619,0.8221663166647583,0.6153448499972001,0.5535859000034785,5,1,1,1,1,2,300.00520000000006,17.028999999999996,4.257249999999999,50,59.375,0.11744670855599275,2,2,5,6,23,21.140407540078694,46,-54.0425923,7.155999999999949,3.0429999999998927,3.421000000000049,3.4090000000001055,6,2,8,9,-0.037213898,-0.386372142,0.8094797028295377,-0.083511507,-0.131454074,0.9318080457556938,-0.086639561,-0.127748419,0.9193567348516218,3.0251711297446513,3.0852441338854377,0.9017950902201519,0.9443571899930987,3.687088,4.246872
27,1,7,29.17,Low,100,97.5,87.5,2.6453997688465996,1.9007462055000683,1.1221514360665785,0.3780146999997669,0.5129564363609957,0.779752155,8,10,7,0,1,4,300.00290000000007,95.71799999999985,23.929499999999962,75,90.625,0.031342067,3,1,4,14,3,8.775778850372985,6,46.262980839549755,27.794999999999845,19.93600000000015,27.14300000000003,15.983999999999924,3,2,5,2,0.063722894,-0.117209795,0.8519819857605178,-0.003379194,-0.097218848,0.9228457944039914,0.028468651,-0.099268775,0.9122210208333333,3.3302314046655876,3.0651478639428262,0.9086215715142935,0.9299521260539375,4.413849,4.102158
27,2,7,29.17,Low,100,97.5,87.5,2.6453997688465996,1.9007462055000683,1.1221514360665785,0.3780146999997669,0.5129564363609957,0.779752155,8,10,7,0,1,4,300.00290000000007,124.80700000000002,31.201750000000004,100,90.625,0.032049484,4,0,5,22,3,10.576329853293483,6,76.27216422155806,21.276000000000067,27.736999999999853,43.875,38.932000000000016,3,2,5,2,0.091095596,-0.188327846,0.8281154737351517,0.009235428,-0.132463718,0.9140928641113066,0.034980481,-0.134803151,0.904824747,3.4196680361856577,3.1388409675538935,0.9073116518984821,0.9263141362184337,4.234924,4.647552
27,3,7,29.17,Low,100,97.5,87.5,2.6453997688465996,1.9007462055000683,1.1221514360665785,0.3780146999997669,0.5129564363609957,0.779752155,8,10,7,0,1,4,300.00290000000007,142.36300000000006,35.590750000000014,100,90.625,0.028097188173893485,4,0,6,35,3,14.751023791294081,6,145.85039652156803,50.31600000000003,31.962999999999965,23.256000000000085,40.281999999999925,3,2,5,2,0.064412774,-0.116322937,0.8835385670099667,0.009218837,-0.080137208,0.9397568156063123,0.033282264,-0.074631275,0.9354616324169436,3.4519078553156146,3.232340166,0.9471844442785714,0.9573526068388704,4.33989,4.284012
27,4,7,29.17,Low,100,97.5,87.5,2.6453997688465996,1.9007462055000683,1.1221514360665785,0.3780146999997669,0.5129564363609957,0.779752155,8,10,7,0,1,4,300.00290000000007,98.53300000000013,24.633250000000032,75,90.625,0.030446652390569616,3,1,6,29,3,17.659058386530376,6,194.31763977550628,19.207000000000107,39.65599999999995,22.88799999999992,20.024000000000115,3,2,5,2,0.082715196,-0.171021129,0.8468310097777778,0.027929099041565215,-0.124659631,0.9265585106376811,0.054682118,-0.115470782,0.9190112458067634,3.460827820869565,3.2332890579710143,0.9289829197294687,0.9466520160231884,4.309311,4.236328
27,5,7,29.17,Low,100,97.5,87.5,2.6453997688465996,1.9007462055000683,1.1221514360665785,0.3780146999997669,0.5129564363609957,0.779752155,8,10,7,0,1,4,300.00290000000007,126.40899999999988,31.60224999999997,100,90.625,0.031643317,4,0,6,25,3,11.866243701002313,6,97.77072835003855,20.34699999999998,36.975999999999885,27.616000000000213,44.41299999999978,3,2,5,2,0.078848845,-0.142523258,0.8719333336596471,0.016864327115075694,-0.112814923,0.9342921913033579,0.057342777,-0.10419735,0.9289816796471257,3.4157072244735347,3.245043562,0.9454603630643141,0.9631476406033012,4.356094,4.330246
27,6,7,29.17,Low,100,97.5,87.5,2.6453997688465996,1.9007462055000683,1.1221514360665785,0.3780146999997669,0.5129564363609957,0.779752155,8,10,7,0,1,4,300.00290000000007,115.32500000000005,28.83125000000001,75,90.625,0.026013440277476686,3,1,6,23,3,11.966182527639276,6,99.43637546,28.220000000000027,37.30000000000018,19.187999999999874,34.49800000000005,3,2,5,2,-0.024303915,-0.134531451,0.9053446969250718,-0.019060917,-0.107294899,0.945871419,0.030969693,-0.090473338,0.9397152494396591,3.3747087884597566,3.3047113911271646,0.9474688734398445,0.9564992476968603,4.357468,4.267334
27,7,7,29.17,Low,100,97.5,87.5,2.6453997688465996,1.9007462055000683,1.1221514360665785,0.3780146999997669,0.5129564363609957,0.779752155,8,10,7,0,1,4,300.00290000000007,114.34300000000007,28.58575000000002,100,90.625,0.034982465,4,0,7,23,3,12.068950438592648,6,101.14917397654412,22.473999999999933,25.15800000000013,46.09899999999993,22.376999999999953,3,2,5,2,0.028845803,-0.172857826,0.8781541369804288,0.001557464,-0.134845736,0.9412667800465985,0.040348104,-0.124447623,0.9342588414445481,3.4306694451071764,3.260245092823858,0.9477156577194781,0.9518655573522832,4.235611,4.247192
27,8,7,29.17,Low,100,97.5,87.5,2.6453997688465996,1.9007462055000683,1.1221514360665785,0.3780146999997669,0.5129564363609957,0.779752155,8,10,7,0,1,4,300.00290000000007,113.72600000000011,28.431500000000028,100,90.625,0.035172256,4,0,7,12,3,6.331006102386432,6,5.516768373107203,33.04600000000005,26.454999999999927,22.98700000000008,31.238000000000056,3,2,5,2,0.012817717659407134,-0.074365301,0.893742336,-0.026464437,-0.078265876,0.9533423839624826,0.012215485,-0.075476191,0.9424706494673459,3.5384380992357567,3.3292034920101896,0.9531490160490967,0.9583674029805465,4.672531,4.340668
28,1,13,54.17,High,100,97.5,92.5,2.374313771393278,1.8024412634042086,1.1658912754419282,0.4211743249979918,0.5409330222270606,0.7933844428584312,8,9,6,0,0,1,300.0033000000001,122.1110000000001,30.527750000000026,100,84.375,0.032757082,4,0,7,50,6,24.567811253695385,12,104.73176044746155,28.336000000000013,17.57400000000007,29.03800000000001,21.138999999999896,4,2,6,3,-0.020519149,-0.076437299,0.7873551421810215,-0.031618247,-0.088042253,0.8661055326031203,-0.008787326,-0.099856091,0.8632690256892498,4.029443212331695,4.022924323,0.9062161548721949,0.9010081290752084,5.478394,5.672531
28,2,13,54.17,High,100,97.5,92.5,2.374313771393278,1.8024412634042086,1.1658912754419282,0.4211743249979918,0.5409330222270606,0.7933844428584312,8,9,6,0,0,1,300.0033000000001,73.65000000000009,18.412500000000023,75,84.375,0.040733198,3,1,5,25,6,20.366598778004047,12,69.72165648336706,16.391000000000076,10.858999999999924,26.28800000000001,23.411000000000058,4,2,6,3,-0.043795029,-0.027848909,0.8773366742358804,-0.02007438,-0.061618813,0.9186198434219269,-0.011701209,-0.071736993,0.918773465,4.3404268986710965,4.424769668272425,0.9272879377740864,0.9190717418006645,5.691193,5.888336
28,3,13,54.17,High,100,97.5,92.5,2.374313771393278,1.8024412634042086,1.1658912754419282,0.4211743249979918,0.5409330222270606,0.7933844428584312,8,9,6,0,0,1,300.0033000000001,82.77800000000002,20.694500000000005,75,84.375,0.036241513,3,1,6,28,6,20.295247529536827,12,69.12706274614023,27.833000000000084,16.50799999999981,16.578000000000202,25.163999999999987,4,2,6,3,-0.040992618,-0.036290816,0.8763770730417091,-0.040578852,-0.07425568,0.9155870786077605,-0.024681985,-0.087025996,0.9158061304461561,4.555454999273362,4.582470306496149,0.9470905844891729,0.928921173,5.861557,6.311981
28,4,13,54.17,High,100,97.5,92.5,2.374313771393278,1.8024412634042086,1.1658912754419282,0.4211743249979918,0.5409330222270606,0.7933844428584312,8,9,6,0,0,1,300.0033000000001,76.33799999999997,19.08449999999999,75,84.375,0.039298907490371786,3,1,7,33,6,25.93727894364538,12,116.14399119704484,31.09699999999998,17.227999999999838,11.097000000000207,19.04599999999982,4,2,6,3,0.002204031,-0.006273453,0.8456690294756394,-0.021508421,-0.052621775,0.911494965,-0.002191692,-0.068197565,0.9096565684669239,4.508377192313188,4.493507792827547,0.9398472024303473,0.9194307121608801,5.792374,5.980469
28,5,13,54.17,High,100,97.5,92.5,2.374313771393278,1.8024412634042086,1.1658912754419282,0.4211743249979918,0.5409330222270606,0.7933844428584312,8,9,6,0,0,1,300.0033000000001,104.17000000000007,26.042500000000018,75,84.375,0.028799078429490237,3,1,7,31,6,17.85542862628395,12,48.79523855236624,23.48700000000008,44.603000000000065,11.513999999999896,26.304000000000087,4,2,6,3,0.065326719,-0.043282059,0.816035126,0.010781074441451634,-0.078706977,0.9095996942205792,0.03161502,-0.091417287,0.909212398,4.597129806777572,4.605173713616759,0.9414869182513863,0.9229129802791127,5.705109,5.997284
28,6,13,54.17,High,100,97.5,92.5,2.374313771393278,1.8024412634042086,1.1658912754419282,0.4211743249979918,0.5409330222270606,0.7933844428584312,8,9,6,0,0,1,300.0033000000001,63.488000000000056,15.872000000000014,75,84.375,0.047253024,3,1,6,17,6,16.066028225806438,12,33.88356854838698,20.575000000000045,16.519000000000005,11.911999999999807,16.83699999999999,4,2,6,3,-0.083460317,-0.066389784,0.8823865671738427,-0.050756955,-0.09793551,0.9328425722078343,-0.031350604,-0.11031916,0.9340306672062155,4.811452928941406,4.810387625606992,0.970815679,0.9623851578845906,5.935059,6.388428
28,7,13,54.17,High,100,97.5,92.5,2.374313771393278,1.8024412634042086,1.1658912754419282,0.4211743249979918,0.5409330222270606,0.7933844428584312,8,9,6,0,0,1,300.0033000000001,72.56000000000017,18.140000000000043,100,84.375,0.055126792,4,0,6,24,6,19.845644983461916,12,65.38037486218263,17.53,15.755999999999858,19.125999999999976,23.042000000000144,4,2,6,3,-0.053398966,-0.058344909,0.8355980685007837,-0.029866148,-0.106348762,0.904835485,-0.012834971,-0.112132579,0.9060366150792268,4.609469160717395,4.652880664112834,0.9429135326310291,0.9259807479647049,5.909973,5.989044
28,8,13,54.17,High,100,97.5,92.5,2.374313771393278,1.8024412634042086,1.1658912754419282,0.4211743249979918,0.5409330222270606,0.7933844428584312,8,9,6,0,0,1,300.0033000000001,75.49900000000002,18.874750000000006,100,84.375,0.052980834183234196,4,0,7,27,6,21.45723784420985,12,78.81031536841542,18.529999999999973,20.462999999999965,21.24000000000001,15.266000000000076,4,2,6,3,-0.041202666,-0.105049901,0.8080522424679387,-0.036133304,-0.110735182,0.8976987802158274,-0.015436985,-0.124365999,0.8989178121989366,4.623079633406318,4.632230272599312,0.9404809356255864,0.9325142730175164,5.616776,6.098495
29,1,20,83.33,High,100,97.5,100,2.6438628210653636,2.4636754567573007,1.3827098322970555,0.37823444999958156,0.3957501777784071,0.7232175375065708,8,9,8,0,0,0,300.0009,124.09399999999994,31.023499999999984,100,90.625,0.032233629,4,0,5,56,10,27.076248650216787,20,35.38124325108393,34.20399999999995,28.842,27.139999999999873,24.067999999999984,2,2,6,3,-0.045716417,0.14877995908098007,0.8287881777986923,-0.049013231,0.023195889,0.88039755,-0.042637848,0.007964061,0.8929617339607689,3.7427243380225876,3.537283715870814,0.9024906279066772,0.8898222337695958,5.146759,5.219299
29,2,20,83.33,High,100,97.5,100,2.6438628210653636,2.4636754567573007,1.3827098322970555,0.37823444999958156,0.3957501777784071,0.7232175375065708,8,9,8,0,0,0,300.0009,78.50099999999998,19.625249999999994,100,90.625,0.050954764907453425,4,0,6,26,10,19.872358313906837,20,-0.63820843,20.567000000000007,11.694999999999936,12.288000000000011,38.134000000000015,2,2,6,3,-0.030130788,0.014204354382851725,0.8708724833157563,-0.02372704,-0.055456878,0.9083384785066442,-0.009734707,-0.07137739,0.9164517313225057,3.960528038,3.665980953,0.9512414707234761,0.9345014258932716,5.100433,4.745621
29,3,20,83.33,High,100,97.5,100,2.6438628210653636,2.4636754567573007,1.3827098322970555,0.37823444999958156,0.3957501777784071,0.7232175375065708,8,9,8,0,0,0,300.0009,110.10900000000015,27.527250000000038,100,90.625,0.036327639,4,0,6,50,10,27.245729231942853,20,36.228646159714266,32.10100000000011,31.394000000000005,32.08999999999992,17.662000000000035,2,2,6,3,0.046043183,-0.031031917,0.8618504669723153,0.020729473,-0.089560996,0.9159948186386881,0.038793986,-0.101429787,0.9221896305237173,4.159992801093282,3.806547122112502,0.9461010504849232,0.9365774115036151,5.527069,4.963669
29,4,20,83.33,High,100,97.5,100,2.6438628210653636,2.4636754567573007,1.3827098322970555,0.37823444999958156,0.3957501777784071,0.7232175375065708,8,9,8,0,0,0,300.0009,104.36300000000006,26.090750000000014,100,90.625,0.038327759838256835,4,0,6,42,10,24.146488698101805,20,20.732443490509027,33.184999999999945,18.28300000000013,27.35199999999986,38.11500000000001,2,2,6,3,0.046848171,-0.027168062,0.8587778709535452,0.002597982,-0.081650322,0.9055816239364304,0.022227927330418087,-0.095042642,0.9135025144987775,4.0715178223716375,3.7121325694376526,0.9422116352212715,0.929934985,5.386734,4.924866
29,5,20,83.33,High,100,97.5,100,2.6438628210653636,2.4636754567573007,1.3827098322970555,0.37823444999958156,0.3957501777784071,0.7232175375065708,8,9,8,0,0,0,300.0009,127.79099999999994,31.947749999999985,75,90.625,0.023475831631335552,3,1,7,65,10,30.518581120736215,20,52.592905603681075,30.192999999999984,47.96600000000012,19.346000000000004,32.77299999999991,2,2,6,3,0.025638324519863264,-0.003965222,0.863965504,-0.018544467,-0.067809889,0.9001258315114335,0.00660811,-0.077892558,0.9072900215002788,4.253464395798476,3.827176263989589,0.930636739,0.9228636345454546,5.700241,5.123901
29,6,20,83.33,High,100,97.5,100,2.6438628210653636,2.4636754567573007,1.3827098322970555,0.37823444999958156,0.3957501777784071,0.7232175375065708,8,9,8,0,0,0,300.0009,101.1880000000001,25.297000000000025,75,90.625,0.029647784,3,1,6,43,10,25.497094517136393,20,27.485472585681965,21.27500000000009,27.669999999999845,22.688000000000102,34.91399999999999,2,2,6,3,-0.033200592,-0.072172531,0.8750577858325771,-0.057370732,-0.108339302,0.914136502,-0.031421669,-0.118215781,0.9219878027676951,4.205521543330309,3.783074324523594,0.9503299333495917,0.9444543180214382,5.459427,4.973694
29,7,20,83.33,High,100,97.5,100,2.6438628210653636,2.4636754567573007,1.3827098322970555,0.37823444999958156,0.3957501777784071,0.7232175375065708,8,9,8,0,0,0,300.0009,103.68599999999992,25.92149999999998,75,90.625,0.028933510792199548,3,1,7,57,10,32.98420230310748,20,64.92101152,22.222999999999956,23.82400000000007,38.95100000000002,21.357999999999947,2,2,6,3,-0.047174004,-0.081173687,0.8631257757566705,-0.050187712,-0.114592147,0.8998731853942652,-0.023383216,-0.126527689,0.9074975734169654,4.19985673,3.733563155913979,0.9314118544643568,0.9319344707297889,5.592484,4.968658
29,8,20,83.33,High,100,97.5,100,2.6438628210653636,2.4636754567573007,1.3827098322970555,0.37823444999958156,0.3957501777784071,0.7232175375065708,8,9,8,0,0,0,300.0009,103.03700000000003,25.75925000000001,100,90.625,0.038821006046371676,4,0,7,26,10,15.140192358084954,20,-24.29903821,18.15599999999995,19.990999999999985,31.332000000000107,33.55799999999999,2,2,6,3,-0.051894736,-0.02490437,0.8548570493745971,-0.043681382,-0.087886116,0.926779973,-0.017428451,-0.096103253,0.93192921,4.307531405,3.853830284719536,0.9501340331502257,0.9480207052782721,5.618301,5.082047
30,1,13,54.17,High,97.5,100,100,2.6512892895437914,1.8800045014802864,1.7621044461082507,0.3677456111052177,0.5319136200007051,0.5675032499966619,8,10,8,1,0,0,300.0096000000001,146.03500000000008,36.50875000000002,75,84.375,0.020543021,3,1,4,41,1,16.84527681720135,2,742.2638408600674,44.875999999999976,28.49500000000012,29.676999999999907,25.876999999999953,4,2,6,1,-0.011082889,0.026455360850461938,0.7723118426852789,0.007949847,0.006126265,0.8939013135090458,-0.094890005,-0.024164064,0.905704457,3.287437780328772,3.2227754903113235,0.9297143800117551,0.8943993821447331,4.556732,4.446045
30,2,13,54.17,High,97.5,100,100,2.6512892895437914,1.8800045014802864,1.7621044461082507,0.3677456111052177,0.5319136200007051,0.5675032499966619,8,10,8,1,0,0,300.0096000000001,89.07300000000009,22.268250000000023,75,84.375,0.033680239803307366,3,1,5,31,1,20.881748678050567,2,944.0874339025283,18.34900000000016,23.15300000000002,22.05699999999979,28.265,4,2,6,1,0.076233061,-0.114959427,0.8065766729118722,0.05065137,-0.059525098,0.8982550980370921,-0.049643621,-0.101118056,0.9194004502910519,3.545505290510356,3.4654080162447536,0.9525588162840124,0.9057297416528767,4.926147,4.294098
30,3,13,54.17,High,97.5,100,100,2.6512892895437914,1.8800045014802864,1.7621044461082507,0.3677456111052177,0.5319136200007051,0.5675032499966619,8,10,8,1,0,0,300.0096000000001,130.21800000000007,32.55450000000002,100,84.375,0.030717719516503077,4,0,5,37,1,17.04833433165921,2,752.4167165829605,49.30099999999993,19.860000000000127,36.60299999999984,28.363000000000056,4,2,6,1,0.010830862462703011,-0.045345555,0.8006908519517524,0.015780714,-0.039509896,0.9148124733213031,-0.087416856,-0.076881452,0.9132928350460633,3.6248670167157377,3.482880122613733,0.9404160547225756,0.920372481,4.69986,4.52507
30,4,13,54.17,High,97.5,100,100,2.6512892895437914,1.8800045014802864,1.7621044461082507,0.3677456111052177,0.5319136200007051,0.5675032499966619,8,10,8,1,0,0,300.0096000000001,90.36200000000008,22.59050000000002,100,84.375,0.044266395166109605,4,0,5,30,1,19.919877824749324,2,895.9938912374662,18.413999999999987,18.083000000000084,32.63799999999992,23.69600000000014,4,2,6,1,-0.008340926,-0.070619075,0.7902174582038216,0.011945647810315924,-0.063215701,0.9093305111082803,-0.08987958,-0.098841992,0.9022061676305732,3.631774572866242,3.4769007812738852,0.9314769309852484,0.9237953462076434,4.72998,4.842896
30,5,13,54.17,High,97.5,100,100,2.6512892895437914,1.8800045014802864,1.7621044461082507,0.3677456111052177,0.5319136200007051,0.5675032499966619,8,10,8,1,0,0,300.0096000000001,91.13400000000001,22.783500000000004,100,84.375,0.043891413,4,0,6,31,1,20.40950687997893,2,920.4753439989465,30.139999999999873,22.38499999999999,18.292000000000144,21.755999999999858,4,2,6,1,0.10460093816319722,-0.003129396,0.7741103016927939,0.074751086,-0.029793096,0.9006147175853351,-0.026493435,-0.066835226,0.9026802999620733,3.6318899067003794,3.489550764475348,0.9264824805424778,0.9270140559475348,4.605942,4.360184
30,6,13,54.17,High,97.5,100,100,2.6512892895437914,1.8800045014802864,1.7621044461082507,0.3677456111052177,0.5319136200007051,0.5675032499966619,8,10,8,1,0,0,300.0096000000001,94.62800000000016,23.65700000000004,75,84.375,0.031703089994504746,3,1,6,22,1,13.949359597582088,2,597.4679798791044,19.968000000000075,31.677999999999884,20.95400000000018,26.520999999999958,4,2,6,1,0.006709558,-0.019190582,0.7811086106156926,0.021391803,-0.042453634,0.9112391415592541,-0.081352885,-0.07969253,0.9083250527343262,3.7255340421724443,3.539334850707046,0.9476962575424853,0.9254142575407334,4.586639,4.338104
30,7,13,54.17,High,97.5,100,100,2.6512892895437914,1.8800045014802864,1.7621044461082507,0.3677456111052177,0.5319136200007051,0.5675032499966619,8,10,8,1,0,0,300.0096000000001,142.89200000000005,35.72300000000001,50,84.375,0.013996585,2,2,7,41,1,17.215799344959823,2,760.7899672479912,35.277000000000044,28.176999999999907,46.28500000000008,34.68899999999985,4,2,6,1,0.017479462834554985,-0.022898211,0.7630347133315881,0.020581742637076784,-0.052872224,0.90392443,-0.08133444,-0.087469971,0.8999995571465967,3.769056390314136,3.5824343126527047,0.9294708952594765,0.9099875128378883,4.653534,4.472809
30,8,13,54.17,High,97.5,100,100,2.6512892895437914,1.8800045014802864,1.7621044461082507,0.3677456111052177,0.5319136200007051,0.5675032499966619,8,10,8,1,0,0,300.0096000000001,95.544,23.886000000000024,100,84.375,0.041865528,4,0,6,30,1,18.839487565938185,2,841.9743782969092,37.65000000000009,17.368999999999915,14.490999999999985,26.034000000000106,4,2,6,1,0.027614939590117016,0.055102155,0.7329305865169737,0.039695326,-0.013393186,0.8986866267987487,-0.062732622,-0.046264874,0.8941660283976365,3.7181573909164642,3.5070819609546984,0.9348505379888773,0.9293151885922837,5.825348,4.473694
31,1,8,33.33,Low,100,100,95,2.3877394593014216,2.2205061164065625,1.4098736837771204,0.4188061625000614,0.4503477799999473,0.6738192300000264,8,10,8,0,0,2,300.00569999999993,165.7059999999999,41.426499999999976,50,71.875,0.012069568995691171,2,2,6,65,7,23.53565954159778,14,68.11185386855557,50.057000000000016,33.16899999999987,39.531999999999925,18.680000000000064,3,4,8,1,-0.083653157,-0.13236228,0.8566369094384354,-0.080707509,-0.060479552,0.9109451963031561,-0.070203504,-0.070037606,0.911104568,3.718317790709735,3.856479907764113,0.9622637193369387,0.9630118200822345,4.831177,4.962585
31,2,8,33.33,Low,100,100,95,2.3877394593014216,2.2205061164065625,1.4098736837771204,0.4188061625000614,0.4503477799999473,0.6738192300000264,8,10,8,0,0,2,300.00569999999993,93.20100000000002,23.300250000000005,100,71.875,0.042917994,4,0,4,47,7,30.25718608,14,116.12275772638856,30.260999999999967,23.723000000000184,18.965999999999894,45.82400000000007,3,4,8,1,-0.05882365,-0.240492307,0.8245359180232559,-0.063104536,-0.124999269,0.8864384189784054,-0.064698175,-0.139330359,0.8686406582225914,3.7732027371262458,3.9707009335548173,0.9291839686052602,0.9285632485174419,4.854874,5.592865
31,3,8,33.33,Low,100,100,95,2.3877394593014216,2.2205061164065625,1.4098736837771204,0.4188061625000614,0.4503477799999473,0.6738192300000264,8,10,8,0,0,2,300.00569999999993,93.96100000000001,23.490250000000003,75,71.875,0.031928140398676044,3,1,5,60,7,38.31376847841125,14,173.66977484579462,27.102999999999838,38.889000000000124,12.910000000000082,19.798999999999978,3,4,8,1,-0.028035589,-0.228044436,0.8313469597563833,-0.041258959,-0.11269262,0.8922966414265635,-0.050857602,-0.142263249,0.8796502652377607,3.715735577652846,4.155462651674864,0.8795377277125792,0.9100778046245023,4.809921,6.150787
31,4,8,33.33,Low,100,100,95,2.3877394593014216,2.2205061164065625,1.4098736837771204,0.4188061625000614,0.4503477799999473,0.6738192300000264,8,10,8,0,0,2,300.00569999999993,110.29599999999982,27.573999999999955,100,71.875,0.036266048,4,0,4,54,7,29.375498658156282,14,109.82499041540201,44.91099999999983,22.85900000000015,32.27599999999984,14.855000000000018,3,4,8,1,-0.001579528,-0.238390247,0.8381133595162771,-0.029234984,-0.11201067,0.9051986258291662,-0.027846685,-0.140939805,0.8967778870701093,3.846428362996224,4.183153674252475,0.9482826085018878,0.9547444659435657,5.222488,5.516052
31,5,8,33.33,Low,100,100,95,2.3877394593014216,2.2205061164065625,1.4098736837771204,0.4188061625000614,0.4503477799999473,0.6738192300000264,8,10,8,0,0,2,300.00569999999993,100.25400000000013,25.063500000000033,75,71.875,0.029923993,3,1,5,45,7,26.931593751870217,14,92.36852679907298,26.399000000000115,33.88499999999999,16.791999999999916,26.60200000000009,3,4,8,1,0.017923299,-0.218712033,0.803931744,-0.009423328,-0.116911268,0.8904424398274235,-0.004750543,-0.14474266,0.8843453144802481,3.761325921396791,3.995619237697182,0.9505487246730484,0.9435399183814211,5.099869,5.352951
31,6,8,33.33,Low,100,100,95,2.3877394593014216,2.2205061164065625,1.4098736837771204,0.4188061625000614,0.4503477799999473,0.6738192300000264,8,10,8,0,0,2,300.00569999999993,84.39200000000005,21.098000000000013,50,71.875,0.023698928808417844,2,2,5,49,7,34.83742534837423,14,148.83875248838737,20.176999999999907,29.08699999999999,19.34699999999998,18.951000000000022,3,4,8,1,0.055015041163406865,-0.277612824,0.8112389905151915,0.001300669,-0.144446901,0.88842126,0.003095211,-0.159372653,0.8822681089828269,3.633327294715984,3.930276694319683,0.9257790787297226,0.947831791,4.703369,5.040009
31,7,8,33.33,Low,100,100,95,2.3877394593014216,2.2205061164065625,1.4098736837771204,0.4188061625000614,0.4503477799999473,0.6738192300000264,8,10,8,0,0,2,300.00569999999993,96.22900000000004,24.05725000000001,75,71.875,0.031175633,3,1,5,51,7,31.799145787652357,14,127.13675562608826,24.730000000000018,25.822000000000116,26.442999999999984,23.330999999999904,3,4,8,1,0.052579472,-0.287100238,0.7981566178490567,-0.004453474,-0.161741403,0.8786772697106919,-0.004601441,-0.179334712,0.875948858,3.544258814842767,3.848451163,0.8904394399735849,0.9212836760880503,4.566162,4.994583
31,8,8,33.33,Low,100,100,95,2.3877394593014216,2.2205061164065625,1.4098736837771204,0.4188061625000614,0.4503477799999473,0.6738192300000264,8,10,8,0,0,2,300.00569999999993,106.95100000000025,26.737750000000062,50,71.875,0.018700152,2,2,6,56,7,31.41625604248667,14,124.40182887490478,28.076999999999998,15.825000000000045,30.852999999999838,32.19600000000037,3,4,8,1,0.053977178,-0.216254193,0.7781526358635282,-0.001599642,-0.112327637,0.8756496752843163,0.005629135,-0.129697903,0.8568236028431633,3.4918660852948955,3.668236036895001,0.9133449978790003,0.9464675180653266,4.780975,4.973969
32,1,9,37.5,Low,100,97.5,87.5,2.475174311065001,1.4972179131809973,0.9344573734257118,0.40401194999867585,0.6512078111118171,0.9363723,8,9,4,0,0,1,300.0008,167.163,41.79075,50,75,0.011964370105824853,2,2,6,42,5,15.075106333339315,10,50.751063333393155,42.49000000000001,26.687999999999874,38.403999999999996,19.294000000000096,4,1,5,2,-0.117228598,0.021628105547014314,0.872707981,-0.096144672,-0.047231199,0.929706463,-0.096366406,-0.050720706,0.9311281330054323,3.256680395683453,2.7882653042137724,0.8409915629508883,0.699093875,4.467346,3.52861
32,2,9,37.5,Low,100,97.5,87.5,2.475174311065001,1.4972179131809973,0.9344573734257118,0.40401194999867585,0.6512078111118171,0.9363723,8,9,4,0,0,1,300.0008,136.21800000000007,34.05450000000002,75,75,0.022023521120556742,3,1,4,30,5,13.214112672334046,10,32.14112672334046,36.559999999999945,30.74500000000012,46.17699999999991,29.75299999999993,4,1,5,2,-0.018899123,-0.104706487,0.9000924016936466,-0.054108044,-0.107589454,0.9422035727145128,-0.066295612,-0.116551387,0.943630978,3.786170010105736,3.135522702442219,0.85233518,0.760397143,4.820114,3.796356
32,3,9,37.5,Low,100,97.5,87.5,2.475174311065001,1.4972179131809973,0.9344573734257118,0.40401194999867585,0.6512078111118171,0.9363723,8,9,4,0,0,1,300.0008,130.4480000000001,32.61200000000002,100,75,0.030663559425978145,4,0,4,33,5,15.178461915859183,10,51.78461915859182,31.910000000000082,38.96900000000005,26.607999999999947,38.47000000000003,4,1,5,2,-0.133540405,-0.028682249,0.810564655,-0.097196082,-0.071124872,0.9229296693982697,-0.111519721,-0.079518991,0.9220264504617478,3.8324532577038983,3.1603132476912608,0.8254430496947603,0.8015808224698163,4.740814,3.785919
32,4,9,37.5,Low,100,97.5,87.5,2.475174311065001,1.4972179131809973,0.9344573734257118,0.40401194999867585,0.6512078111118171,0.9363723,8,9,4,0,0,1,300.0008,144.55600000000004,36.13900000000001,100,75,0.027670937214643452,4,0,6,30,5,12.451921746589555,10,24.51921746589555,44.10200000000009,34.521999999999935,44.330999999999904,25.73199999999997,4,1,5,2,-0.155346338,-0.056519453,0.789344551,-0.102781531,-0.086592662,0.9208089416241724,-0.114176971,-0.093104551,0.9201973799528121,3.9773135708958063,3.237596392267296,0.796939942,0.8604406604405814,4.926529,3.973724
32,5,9,37.5,Low,100,97.5,87.5,2.475174311065001,1.4972179131809973,0.9344573734257118,0.40401194999867585,0.6512078111118171,0.9363723,8,9,4,0,0,1,300.0008,144.73700000000008,36.18425000000002,50,75,0.013818167,2,2,8,42,5,17.410890097210796,10,74.10890097210796,45.003000000000156,38.947999999999865,13.765,52.375999999999976,4,1,5,2,-0.153265627,-0.044358011,0.7939296368060382,-0.101498183,-0.088940108,0.9029689725692719,-0.113132672,-0.094154022,0.9019805798391103,3.8332784831661533,3.1047623200913694,0.8361816318532129,0.6531356168130102,4.829483,3.810837
32,6,9,37.5,Low,100,97.5,87.5,2.475174311065001,1.4972179131809973,0.9344573734257118,0.40401194999867585,0.6512078111118171,0.9363723,8,9,4,0,0,1,300.0008,174.115,43.52875,75,75,0.017229992,3,1,8,48,5,16.540792005283862,10,65.40792005283862,44.75200000000018,38.67099999999982,45.340000000000146,50.24399999999969,4,1,5,2,-0.137384044,-0.104586247,0.797159918,-0.098790907,-0.105361232,0.9136329237103245,-0.110508515,-0.11090948,0.9138922138433387,3.8255995730874797,3.1584549378562885,0.6853186118460131,0.8296736708051234,4.831406,3.969849
32,7,9,37.5,Low,100,97.5,87.5,2.475174311065001,1.4972179131809973,0.9344573734257118,0.40401194999867585,0.6512078111118171,0.9363723,8,9,4,0,0,1,300.0008,153.59100000000035,38.39775000000009,75,75,0.019532394476238796,3,1,8,40,5,15.625915580991038,10,56.259155809910375,29.153000000000247,43.391000000000076,41.74299999999994,45.534999999999854,4,1,5,2,-0.175363474,-0.109816014,0.8326094966847142,-0.101768644,-0.096898843,0.9255214715493585,-0.114636157,-0.099433019,0.9272339026181117,3.8304711063561525,3.1833001260105314,0.6997252493390046,0.6359914516437587,4.767807,4.134857
32,8,9,37.5,Low,100,97.5,87.5,2.475174311065001,1.4972179131809973,0.9344573734257118,0.40401194999867585,0.6512078111118171,0.9363723,8,9,4,0,0,1,300.0008,164.71799999999985,41.17949999999996,75,75,0.018212945761847538,3,1,9,55,5,20.03424033803229,10,100.34240338032289,42.92599999999993,31.452999999999975,45.89900000000034,44.44,4,1,5,2,-0.173269693,-0.088206572,0.788347832,-0.112999993,-0.082697791,0.9031481660343481,-0.12728766,-0.08217534,0.9069187888056205,3.7543753354410616,3.1655033006245117,0.7493640819776737,0.8412027589344262,4.758362,4.130814
33,1,9,37.5,Low,97.5,42.5,95,2.5834038201689125,0.6026765782401101,1.435224015622096,0.37740905714703593,0.7051875173929147,0.6619175749983697,7,5,7,0,18,1,300.00159999999994,172.08300000000008,43.02075000000002,75,78.125,0.017433447812973964,3,1,2,150,16,52.30034343892189,32,63.43857324663092,39.90100000000007,43.85699999999997,13.879999999999882,29.881000000000085,4,1,2,1,-0.001515183,0.17798976086068272,0.7976010727535777,-0.030204046,0.021585153001244233,0.832916357,-0.014261747,0.017854959,0.836335159,3.051473641510909,2.863640754907328,0.8752656631322749,0.882082693,5.349701,4.607788
33,2,9,37.5,Low,97.5,42.5,95,2.5834038201689125,0.6026765782401101,1.435224015622096,0.37740905714703593,0.7051875173929147,0.6619175749983697,7,5,7,0,18,1,300.00159999999994,68.96800000000007,17.24200000000002,100,78.125,0.057997912075165234,4,0,2,75,16,65.24765108456089,32,103.89890963925276,16.235,18.664999999999964,10.973000000000184,25.05899999999997,4,1,2,1,0.008473757,0.004127479,0.8177080238170598,-0.024565968,-0.086235423,0.8221220952365881,-0.001106181,-0.088443806,0.8243623087355594,3.1303986556417156,2.930489029276784,0.861039891,0.871169822,4.561905,5.112045
33,3,9,37.5,Low,97.5,42.5,95,2.5834038201689125,0.6026765782401101,1.435224015622096,0.37740905714703593,0.7051875173929147,0.6619175749983697,7,5,7,0,18,1,300.00159999999994,78.24099999999999,19.560249999999996,50,78.125,0.025562045474878906,2,2,3,68,16,52.14657276875297,32,62.95803990235302,9.524999999999864,25,20.402000000000044,25.399000000000115,4,1,2,1,0.028107957251890667,0.00146191,0.8555163501963153,-0.024104597,-0.092168021,0.855823584,0.003251015,-0.097342365,0.8608645447749925,3.3377874491090305,3.086261666263969,0.8871466633900635,0.8913565056804591,4.765411,4.425323
33,4,9,37.5,Low,97.5,42.5,95,2.5834038201689125,0.6026765782401101,1.435224015622096,0.37740905714703593,0.7051875173929147,0.6619175749983697,7,5,7,0,18,1,300.00159999999994,140.93999999999983,35.23499999999996,75,78.125,0.021285653,3,1,3,108,16,45.97701149425293,32,43.678160919540396,39.10799999999995,33.896999999999935,39.81400000000008,29.94900000000007,4,1,2,1,0.045852284,-0.004602363,0.8604571000420522,0.001667872,-0.073522081,0.864470605,0.030419332577328848,-0.083509462,0.8660321157190918,3.480220498990749,3.2219240595458367,0.8972568297857864,0.9033594761418839,4.867706,4.482407
33,5,9,37.5,Low,97.5,42.5,95,2.5834038201689125,0.6026765782401101,1.435224015622096,0.37740905714703593,0.7051875173929147,0.6619175749983697,7,5,7,0,18,1,300.00159999999994,144.41499999999996,36.10374999999999,50,78.125,0.013848976906831012,2,2,4,90,16,37.39223764844373,32,16.850742651386664,30.774999999999864,38.371000000000095,31.21199999999999,45.875,4,1,2,1,0.10629427612130204,-0.053279192,0.8666454895602913,0.012355237962895421,-0.096565973,0.8778197878518119,0.043393569,-0.108669127,0.8772911817012858,3.663448976351048,3.3891800865929325,0.908385959,0.9138307389227587,4.881287,4.595078
33,6,9,37.5,Low,97.5,42.5,95,2.5834038201689125,0.6026765782401101,1.435224015622096,0.37740905714703593,0.7051875173929147,0.6619175749983697,7,5,7,0,18,1,300.00159999999994,121.346,30.3365,75,78.125,0.024722693784714783,3,1,4,84,16,41.53412555832084,32,29.79414236975262,26.115999999999985,29.692999999999984,17.795000000000073,49.89799999999991,4,1,2,1,0.12097748416541886,-0.014224579,0.8565265341489886,0.041004083,-0.094553442,0.8741932521657622,0.069937563,-0.097323093,0.8751578312284164,3.511227575826344,3.239045520473606,0.8800242373538432,0.8861059711150469,4.784088,4.780411
33,7,9,37.5,Low,97.5,42.5,95,2.5834038201689125,0.6026765782401101,1.435224015622096,0.37740905714703593,0.7051875173929147,0.6619175749983697,7,5,7,0,18,1,300.00159999999994,147.44600000000014,36.861500000000035,100,78.125,0.027128576,4,0,5,114,16,46.38986476404917,32,44.96832738765366,23.713999999999942,43.69200000000001,43.60799999999995,38.36000000000013,4,1,2,1,0.005920526,-0.007933861,0.8480297133502355,0.002314282,-0.091363019,0.8717737264252083,0.027638037,-0.100649645,0.8725160466642522,3.679579655052517,3.4141442612097066,0.8904211935290764,0.8989958118729445,5.091217,4.785492
33,8,9,37.5,Low,97.5,42.5,95,2.5834038201689125,0.6026765782401101,1.435224015622096,0.37740905714703593,0.7051875173929147,0.6619175749983697,7,5,7,0,18,1,300.00159999999994,110.59900000000016,27.64975000000004,100,78.125,0.036166692284740315,4,0,4,82,16,44.48503151023059,32,39.01572347,23.036000000000058,27.278999999999996,30.403999999999996,29.88000000000011,4,1,2,1,0.03269052,-0.040629563,0.8190432897155361,0.00910131,-0.112700504,0.8675935944300774,0.03467921,-0.121755426,0.8657669620350109,3.7480424730455537,3.4642207515416747,0.896565976,0.9104388568371792,5.194427,5.088821
34,1,5,20.83,Low,97.5,95,97.5,2.040414070361621,1.0439558001776408,1.0793241239213835,0.4778441857280476,0.9100002124978346,0.9033430999926557,7,8,7,0,0,0,300.0039999999999,229.14599999999996,57.28649999999999,75,75,0.013092089759367393,3,1,5,108,24,28.278913880233567,48,-41.08559608,50.093000000000075,34.006999999999834,45.18500000000017,83.36699999999973,3,4,6,2,-0.04904091,-0.286632947,0.7820781790768755,-0.070800758,-0.150189997,0.8646207730626622,-0.041386285,-0.160153626,0.8713083803485354,3.101335497,3.0678146839451244,0.8504667898874059,0.8498916933738723,4.731979,4.656006
34,2,5,20.83,Low,97.5,95,97.5,2.040414070361621,1.0439558001776408,1.0793241239213835,0.4778441857280476,0.9100002124978346,0.9033430999926557,7,8,7,0,0,0,300.0039999999999,145.89400000000023,36.47350000000006,75,75,0.020562874,3,1,6,64,24,26.320479252059673,48,-45.16566822,46.74800000000005,24.922000000000025,28.876000000000204,49.14499999999998,3,4,6,2,0.00764959,-0.264581634,0.8521781961919748,-0.059848497,-0.13920312,0.9018440594177811,-0.035036277,-0.152933237,0.9095405600393391,3.2933944833988984,3.2479183851298195,0.8670716674045633,0.867943866,4.487595,4.326187
34,3,5,20.83,Low,97.5,95,97.5,2.040414070361621,1.0439558001776408,1.0793241239213835,0.4778441857280476,0.9100002124978346,0.9033430999926557,7,8,7,0,0,0,300.0039999999999,179.7159999999999,44.928999999999974,50,75,0.01112867,2,2,7,83,24,27.710387500278234,48,-42.27002604,45.210999999999785,44.521999999999935,41.96300000000019,51.783,3,4,6,2,-0.000663839,-0.236478154,0.8271475582368082,-0.036658755,-0.121363526,0.8989211084942085,-0.014686241,-0.132759416,0.908189802,3.292321453153153,3.248685344530244,0.8533835276164092,0.8582842614397683,4.518188,4.371948
34,4,5,20.83,Low,97.5,95,97.5,2.040414070361621,1.0439558001776408,1.0793241239213835,0.4778441857280476,0.9100002124978346,0.9033430999926557,7,8,7,0,0,0,300.0039999999999,140.83500000000004,35.20875000000001,100,75,0.028402030745198273,4,0,6,72,24,30.674193204814134,48,-36.09543082,39.29600000000028,31.416999999999916,31.096000000000004,42.36900000000014,3,4,6,2,0.1560850959018995,-0.277225474,0.8298141592496568,0.024720651082370596,-0.160248213,0.9064187564663719,0.04999456,-0.172452135,0.910589493,3.2519547257892327,3.2298186963550406,0.8101439958598444,0.8053474787269178,4.375183,4.360199
34,5,5,20.83,Low,97.5,95,97.5,2.040414070361621,1.0439558001776408,1.0793241239213835,0.4778441857280476,0.9100002124978346,0.9033430999926557,7,8,7,0,0,0,300.0039999999999,179.46399999999994,44.865999999999985,75,75,0.016716445,3,1,6,99,24,33.09856016,48,-31.04466634,47.01499999999987,47.71299999999974,41.277000000000044,46.14499999999998,3,4,6,2,0.17440988253969478,-0.237039339,0.8238686164381925,0.044891061,-0.13313023,0.90047,0.070831338,-0.146507348,0.9027425063101321,3.2513583470904384,3.1793312481587157,0.8429052337902595,0.8549005300095548,4.469833,4.491074
34,6,5,20.83,Low,97.5,95,97.5,2.040414070361621,1.0439558001776408,1.0793241239213835,0.4778441857280476,0.9100002124978346,0.9033430999926557,7,8,7,0,0,0,300.0039999999999,131.92800000000034,32.982000000000085,75,75,0.022739676,3,1,7,73,24,33.19992723303612,48,-30.83348493,30.842,33.77300000000014,27.05899999999974,42.55799999999999,3,4,6,2,0.07726944,-0.276640745,0.8267242443205042,-0.010450845,-0.151409936,0.8976699328167574,0.018139819,-0.164958504,0.9039078364100818,3.131858003831744,3.0653434737738423,0.8570576224584299,0.863510786,4.559021,4.437012
34,7,5,20.83,Low,97.5,95,97.5,2.040414070361621,1.0439558001776408,1.0793241239213835,0.4778441857280476,0.9100002124978346,0.9033430999926557,7,8,7,0,0,0,300.0039999999999,172.55000000000018,43.137500000000045,75,75,0.017386264850767875,3,1,6,99,24,34.424804404520394,48,-28.28165749,45.97400000000016,43.99499999999989,44.247,40.822999999999865,3,4,6,2,-0.040244028,-0.257115049,0.7911898483587586,-0.047658845,-0.129959584,0.8859516064965808,-0.022940033,-0.139570931,0.8905746091465018,3.155449744542346,3.0678099082719625,0.8578316035636507,0.8695902824054444,4.378372,4.352722
34,8,5,20.83,Low,97.5,95,97.5,2.040414070361621,1.0439558001776408,1.0793241239213835,0.4778441857280476,0.9100002124978346,0.9033430999926557,7,8,7,0,0,0,300.0039999999999,177.20600000000013,44.30150000000003,75,75,0.016929449341444407,3,1,7,106,24,35.890432603862145,48,-25.22826541,46.059999999999945,40.67599999999993,45.90599999999995,44.564000000000306,3,4,6,2,-0.027399345,-0.171601969,0.8255875166273028,-0.047159541,-0.092225745,0.8871776908698291,-0.025219954,-0.104824717,0.8911508112625683,3.0404825978810983,2.968044714488157,0.8209744462079763,0.7933432198933262,4.528259,4.765472
35,1,3,12.5,Low,100,100,85,2.2323102180732413,2.5510679803309966,1.0816039881733484,0.4479664125101408,0.39199269000673664,0.7858698833345746,8,10,4,0,0,2,300.009,240.279,60.06975,50,68.75,0.008323657,2,2,8,72,6,17.97909929706716,12,49.82582747555968,49.162000000000035,29.89800000000014,43.50499999999988,58.042000000000144,6,1,6,2,-0.062190804,0.045723088024247925,0.7368895328837743,-0.074121432,-0.04333873,0.8763735742865363,-0.056044509,-0.040215297,0.878256188,2.478432098964327,2.7917901930955122,0.9057075219033373,0.8841183101765248,3.410751,3.992477
