participant_number,subexperiment_number,MRTScore,MRTAcc,MRTGroup,nback_accuracy0,nback_accuracy1,nback_accuracy2,nback_performance0,nback_performance1,nback_performance2,nback_avg_rt0,nback_avg_rt1,nback_avg_rt2,correct_spacebar_presses0,correct_spacebar_presses1,correct_spacebar_presses2,incorrect_spacebar_presses0,incorrect_spacebar_presses1,incorrect_spacebar_presses2,rest_time,time_subexperiment,mean_trial_duration_subexperiment,accuracy_subexperiment,performance_subexperiment,answer_correct_subexperiment,answer_incorrect_subexperiment,feedback_score_subexperiment,blink_count,blink_rest_count,blink_rate,rest_blink_rate,normalized_blink_rate,trial_duration_1,trial_duration_2,trial_duration_3,trial_duration_4,feedback_score_tutorial_1,feedback_score_tutorial_2,feedback_score_tutorial_3,feedback_score_rest_1,eye_avg_fixation_PointX,eye_avg_fixation_PointY,eye_avg_fixation_PointZ,eye_avg_LeftGazeX,eye_avg_LeftGazeY,eye_avg_LeftGazeZ,eye_avg_RightGazeX,eye_avg_RightGazeY,eye_avg_RightGazeZ,eye_avg_LeftPupilDiameter,eye_avg_RightPupilDiameter,eye_avg_RightEyeOpenness,eye_avg_LeftEyeOpenness,eye_max_LeftPupilDiameter,eye_max_RightPupilDiameter
2,1,0,0.0,Low,100.0,97.5,92.5,2.327406853610513,2.07915779006169,1.6082298715313255,0.429662737500621,0.4689398778007469,0.5751665333260058,8,9,7,0,0,2,300.00599999999986,121.68100000000004,30.42025000000001,50.0,0.01643641981903501,2,2,5,16,10,7.889481513136805,20.0,-60.552592434315976,45.052000000000135,11.149999999999864,33.85400000000004,28.17800000000011,1,3,8,1,-0.11584271093760261,-0.26008496031263884,0.8535465500060357,-0.057939052535230635,-0.084451524440711,0.9339243083172382,-0.03106176173359367,-0.0827314148708969,0.9407381743239981,2.8708660280057945,3.596910188194109,0.9829124708353452,0.9836740843425881,3.681152,4.383163
2,2,0,0.0,Low,100.0,97.5,92.5,2.327406853610513,2.07915779006169,1.6082298715313255,0.429662737500621,0.4689398778007469,0.5751665333260058,8,9,7,0,0,2,300.00599999999986,109.62699999999995,27.406749999999988,75.0,0.027365521267570955,3,1,4,20,10,10.946208507028384,20.0,-45.268957464858076,42.835000000000036,31.192999999999984,12.032999999999902,25.688000000000102,1,3,8,1,-0.1226944537083287,-0.2874669863579444,0.8609209104603853,-0.07107354195407174,-0.10135526780399251,0.9340239945824411,-0.039981007669637046,-0.09528689008401704,0.9420351019807279,2.9991398584582436,3.7639721159528907,0.9775599593683083,0.9696573913811563,4.156494,4.521805
2,3,0,0.0,Low,100.0,97.5,92.5,2.327406853610513,2.07915779006169,1.6082298715313255,0.429662737500621,0.4689398778007469,0.5751665333260058,8,9,7,0,0,2,300.00599999999986,140.31499999999983,35.07874999999996,25.0,0.007126821793821054,1,3,7,20,10,8.552186152585266,20.0,-57.23906923707367,39.246999999999844,31.576000000000022,40.256000000000085,31.654999999999973,1,3,8,1,-0.05723610184082213,-0.3055962638962185,0.8752385443277871,-0.023369670894248597,-0.12323351551202241,0.9422648539460806,0.008617768645035145,-0.11785898143768753,0.9512291600498264,3.0156358346828007,3.755249429308657,0.9696499659133374,0.9588633966634043,4.180618,4.463974
2,4,0,0.0,Low,100.0,97.5,92.5,2.327406853610513,2.07915779006169,1.6082298715313255,0.429662737500621,0.4689398778007469,0.5751665333260058,8,9,7,0,0,2,300.00599999999986,89.45800000000008,22.36450000000002,25.0,0.011178430101276567,1,3,7,19,10,12.743410315455286,20.0,-36.28294842272357,15.026000000000067,22.374000000000024,23.822999999999865,30.13000000000011,1,3,8,1,-0.07901952786426336,-0.27985520578913115,0.8582051182406908,-0.03494083359261468,-0.11604615116377227,0.9296228667970857,-0.0070927789202968146,-0.11184404082832029,0.9382349944549379,3.018598432541824,3.7270294390178087,0.9599112107933083,0.9498225541419321,3.735794,4.435287
2,5,0,0.0,Low,100.0,97.5,92.5,2.327406853610513,2.07915779006169,1.6082298715313255,0.429662737500621,0.4689398778007469,0.5751665333260058,8,9,7,0,0,2,300.00599999999986,144.34500000000003,36.08625000000001,25.0,0.006927846478922026,1,3,7,24,10,9.976098929647717,20.0,-50.11950535176142,28.631999999999834,35.16100000000006,42.17000000000007,40.552000000000135,1,3,8,1,-0.11490585903679422,-0.23943860858144175,0.8707197292460425,-0.0618552405336875,-0.09171003139338968,0.934717018781862,-0.03314273477539665,-0.09512700597026974,0.9416839394955728,3.076935163581075,3.7467008339236205,0.9598788649852428,0.953411774197299,4.046051,4.349579
2,6,0,0.0,Low,100.0,97.5,92.5,2.327406853610513,2.07915779006169,1.6082298715313255,0.429662737500621,0.4689398778007469,0.5751665333260058,8,9,7,0,0,2,300.00599999999986,126.91899999999987,31.729749999999967,75.0,0.023637122889401927,3,1,7,19,10,8.982106697972732,20.0,-55.08946651013634,25.311999999999898,34.152000000000044,22.338999999999942,47.71799999999985,1,3,8,1,-0.20566343174913898,-0.2735071514589619,0.8489260516636353,-0.16924222296767732,-0.0952685116554916,0.9308710348775008,-0.13031684839938495,-0.11013259508193325,0.9412174423986306,3.1510863944581153,3.7772592599764625,0.9738008318176957,0.9683005420348776,4.184326,4.821487
2,7,0,0.0,Low,100.0,97.5,92.5,2.327406853610513,2.07915779006169,1.6082298715313255,0.429662737500621,0.4689398778007469,0.5751665333260058,8,9,7,0,0,2,300.00599999999986,122.38200000000006,30.595500000000015,75.0,0.02451340883463253,3,1,6,15,10,7.35402265038976,20.0,-63.2298867480512,37.70900000000029,18.524999999999636,34.03500000000031,33.766999999999825,1,3,8,1,-0.20351603146815525,-0.34098653865653955,0.8341435773510052,-0.15517834519251103,-0.15115329338760977,0.934065539022631,-0.1223844715027644,-0.15633245916439006,0.941512082562438,3.1318374184473896,3.803971584708322,0.9697091873140384,0.9618082445135695,3.76004,4.473038
2,8,0,0.0,Low,100.0,97.5,92.5,2.327406853610513,2.07915779006169,1.6082298715313255,0.429662737500621,0.4689398778007469,0.5751665333260058,8,9,7,0,0,2,300.00599999999986,126.63200000000006,31.658000000000015,25.0,0.007896898098426934,1,3,7,16,10,7.581022174489857,20.0,-62.09488912755072,33.31800000000021,20.679999999999836,27.38700000000017,45.246999999999844,1,3,8,1,-0.20370009133773712,-0.3275904106456527,0.8236721295618791,-0.1707198611970077,-0.1443662753078918,0.930009911065944,-0.13602465516859644,-0.1490055381603433,0.9393236383581753,3.097323115176152,3.7764365005645892,0.973084215876242,0.9710201417457093,3.94223,4.413452
3,1,0,0.0,Low,100.0,100.0,97.5,2.314338420069827,2.249404627455627,1.3799209534255217,0.4320889249938773,0.44456208002520725,0.7065622111032199,8,10,8,0,0,1,300.0095,92.54500000000007,23.136250000000018,25.0,0.010805554054784151,1,3,6,22,10,14.26333135231508,20.0,-28.6833432384246,15.986999999999853,21.585000000000036,30.735000000000127,38.3119999999999,4,1,7,1,-0.09945170029822374,-0.33508814934668124,0.8285931273293861,-0.10140892987877843,-0.15085245163041447,0.9242455815674665,-0.08395502143222187,-0.15848256163851665,0.9360115127609847,3.7661153734808352,4.162338105796199,0.9601957865733873,0.9558775446684324,4.727249,5.114258
3,2,0,0.0,Low,100.0,100.0,97.5,2.314338420069827,2.249404627455627,1.3799209534255217,0.4320889249938773,0.44456208002520725,0.7065622111032199,8,10,8,0,0,1,300.0095,55.68599999999992,13.92149999999998,100.0,0.07183134001364806,4,0,2,12,10,12.92964120245665,20.0,-35.351793987716746,25.40000000000009,9.707999999999856,9.07100000000014,15.042999999999893,4,1,7,1,-0.07476403466880342,-0.4291990433717949,0.8315629846153846,-0.08728384482970086,-0.1976184539854701,0.9342648624786324,-0.06873370333974359,-0.21181720821581196,0.942869477542735,3.972413021367521,4.284235175641026,0.954690118888889,0.9464321690811964,4.852417,5.217606
3,3,0,0.0,Low,100.0,100.0,97.5,2.314338420069827,2.249404627455627,1.3799209534255217,0.4320889249938773,0.44456208002520725,0.7065622111032199,8,10,8,0,0,1,300.0095,95.07400000000007,23.768500000000017,75.0,0.03155436817636786,3,1,3,16,10,10.097397816437715,20.0,-49.51301091781143,19.124000000000024,31.988000000000056,19.909999999999854,29.64500000000021,4,1,7,1,-0.08660898414194604,-0.45316577507833194,0.8195547497628782,-0.08751917344382665,-0.20470010945085854,0.9316656297628781,-0.07235394153278824,-0.22117547403548649,0.941499570466067,4.055396048078496,4.349280706295993,0.9572894290973017,0.9554128640389206,5.071564,5.292847
3,4,0,0.0,Low,100.0,100.0,97.5,2.314338420069827,2.249404627455627,1.3799209534255217,0.4320889249938773,0.44456208002520725,0.7065622111032199,8,10,8,0,0,1,300.0095,93.19999999999982,23.299999999999955,100.0,0.0429184549356224,4,0,2,20,10,12.875536480686721,20.0,-35.6223175965664,34.677999999999884,10.586999999999989,33.5630000000001,16.843999999999824,4,1,7,1,0.020171720070118925,-0.512684951476338,0.7660496462710605,-0.02829556427948464,-0.2395929950498018,0.9284358309340932,-0.012651324092789896,-0.25521041699554015,0.9326079773785927,4.105957604930625,4.397458141848365,0.9603214252353817,0.9638556716489098,4.910614,5.189423
3,5,0,0.0,Low,100.0,100.0,97.5,2.314338420069827,2.249404627455627,1.3799209534255217,0.4320889249938773,0.44456208002520725,0.7065622111032199,8,10,8,0,0,1,300.0095,78.32200000000012,19.58050000000003,75.0,0.0383034141109777,3,1,3,17,10,13.02316079773242,20.0,-34.884196011337906,15.993000000000166,19.412000000000035,13.63299999999981,32.759000000000015,4,1,7,1,0.014882224013825801,-0.48019330195931265,0.7724384385542168,-0.0377504830661663,-0.2252813086138653,0.9185068853249063,-0.023492408910527358,-0.2418777735911515,0.9295022822832314,3.992595381196919,4.319533935018764,0.9467486546908946,0.9541595065095793,4.75882,5.119263
3,6,0,0.0,Low,100.0,100.0,97.5,2.314338420069827,2.249404627455627,1.3799209534255217,0.4320889249938773,0.44456208002520725,0.7065622111032199,8,10,8,0,0,1,300.0095,93.39200000000005,23.348000000000013,75.0,0.03212266575295527,3,1,4,18,10,11.564159671063896,20.0,-42.17920164468052,13.286000000000058,22.810999999999922,23.479000000000042,39.11000000000013,4,1,7,1,0.0007566539508922028,-0.554502792025365,0.7436432225482968,-0.053305595197758446,-0.26813514112240083,0.9134706984663028,-0.03565878189986728,-0.28550248166450376,0.9192551340952662,4.01916480946763,4.3251666055154105,0.9597487345966672,0.9590406560715233,4.764679,5.087097
3,7,0,0.0,Low,100.0,100.0,97.5,2.314338420069827,2.249404627455627,1.3799209534255217,0.4320889249938773,0.44456208002520725,0.7065622111032199,8,10,8,0,0,1,300.0095,69.53499999999985,17.383749999999964,75.0,0.04314374056230684,3,1,6,29,10,25.023369526137966,20.0,25.116847630689833,12.649999999999864,17.182999999999993,21.610000000000127,22.479000000000042,4,1,7,1,-0.04542766504452211,-0.5465699569729524,0.7431642432760979,-0.06084293858456162,-0.2621235704186294,0.9087816727700958,-0.04749008206989819,-0.27996781079942257,0.9225550365294028,4.006585414222763,4.36512543169731,0.9401856930557666,0.9367082814745479,5.045334,5.237411
3,8,0,0.0,Low,100.0,100.0,97.5,2.314338420069827,2.249404627455627,1.3799209534255217,0.4320889249938773,0.44456208002520725,0.7065622111032199,8,10,8,0,0,1,300.0095,82.37299999999982,20.593249999999955,100.0,0.0485596008400812,4,0,7,19,10,13.839486239423142,20.0,-30.802568802884288,15.670999999999822,21.593000000000075,31.396999999999935,13.711999999999989,4,1,7,1,-0.09436017606922961,-0.44717178545232017,0.7986820455173449,-0.09208898375536868,-0.20241234510256795,0.9311126977474096,-0.0792925472887821,-0.22165906628652954,0.9374854075236522,4.077051135155429,4.392157847424539,0.9408865846974022,0.9364157104880612,5.129669,5.157806
4,1,3,12.5,Low,100.0,85.0,97.5,2.470926843175888,1.308275446372041,1.1119714722303757,0.40470643748994917,0.6497102749708574,0.8768210555297427,8,4,8,0,0,1,300.0152999999999,128.1916,32.0479,75.0,0.023402469428574105,3,1,4,44,7,20.594173097145212,14.0,47.101236408180085,36.62760000000003,30.31549999999993,32.14350000000002,26.01679999999999,5,1,7,4,-0.06279824592964879,-0.009563649957910095,0.8765327821158418,-0.08760977916762902,-0.08505932663753187,0.9037190516101145,-0.07632508702047008,-0.09642685472156796,0.9012386526907282,3.50675144359196,3.5653280881780844,0.9217286287046251,0.8963710948456883,5.094879,4.992126
4,2,3,12.5,Low,100.0,85.0,97.5,2.470926843175888,1.308275446372041,1.1119714722303757,0.40470643748994917,0.6497102749708574,0.8768210555297427,8,4,8,0,0,1,300.0152999999999,80.10100000000011,20.025250000000028,100.0,0.04993695459482397,4,0,3,24,7,17.977303654136627,14.0,28.409311815261617,26.881000000000085,21.955999999999904,16.11200000000008,18.595000000000027,5,1,7,4,-0.12742474192355183,-0.08648663330716509,0.889892169875734,-0.13495986185396422,-0.12091963470226579,0.9189582386863308,-0.1257363479390482,-0.14340879771986892,0.9091768902635532,3.951970994947426,3.9435445261504847,0.9291029008374984,0.9190122666693978,5.006119,5.198151
4,3,3,12.5,Low,100.0,85.0,97.5,2.470926843175888,1.308275446372041,1.1119714722303757,0.40470643748994917,0.6497102749708574,0.8768210555297427,8,4,8,0,0,1,300.0152999999999,132.47000000000003,33.11750000000001,50.0,0.01509775798293953,2,2,5,46,7,20.834906016456554,14.0,48.82075726040395,26.55399999999986,35.00700000000006,44.77600000000007,29.345000000000027,5,1,7,4,-0.050754335486711426,-0.0732215318269482,0.8862925360552762,-0.06845344632884036,-0.10216728897076825,0.9145863709219172,-0.06007059119493391,-0.12305985215034113,0.9071454615481253,4.0105476145148815,4.00537595931581,0.8976068492857557,0.869381458661094,5.411957,5.532288
4,4,3,12.5,Low,100.0,85.0,97.5,2.470926843175888,1.308275446372041,1.1119714722303757,0.40470643748994917,0.6497102749708574,0.8768210555297427,8,4,8,0,0,1,300.0152999999999,135.61299999999983,33.90324999999996,100.0,0.02949569731515419,4,0,5,36,7,15.92767655018326,14.0,13.76911821559472,37.557000000000016,45.200999999999794,27.93300000000022,28.88499999999999,5,1,7,4,-0.12201291311101628,-0.13935212507203085,0.8946337482103979,-0.13139989591196552,-0.13850465603680048,0.9290339966123836,-0.12344098694481755,-0.16874265073392233,0.923230072463642,4.1866452436645485,4.179918011495253,0.9329972626090743,0.9142893793094139,5.427124,5.698883
4,5,3,12.5,Low,100.0,85.0,97.5,2.470926843175888,1.308275446372041,1.1119714722303757,0.40470643748994917,0.6497102749708574,0.8768210555297427,8,4,8,0,0,1,300.0152999999999,99.10299999999984,24.77574999999996,100.0,0.04036204756667312,4,0,6,29,7,17.557490691502807,14.0,25.41064779644862,26.011999999999944,28.71900000000005,19.759000000000015,30.49499999999989,5,1,7,4,-0.01781400957969259,-0.09511860558274743,0.8828527318625677,-0.06259653321075227,-0.11768252840206148,0.9177535603496082,-0.056870252166968054,-0.13758557694929957,0.9133278242435202,4.024257335864979,4.071278888728149,0.9377759490027727,0.9184901599252561,5.207779,5.356186
4,6,3,12.5,Low,100.0,85.0,97.5,2.470926843175888,1.308275446372041,1.1119714722303757,0.40470643748994917,0.6497102749708574,0.8768210555297427,8,4,8,0,0,1,300.0152999999999,100.94200000000001,25.235500000000002,75.0,0.02972003724911335,3,1,7,27,7,16.04882011452121,14.0,14.634429389437212,42.55799999999999,13.076999999999998,20.829999999999927,27.48700000000008,5,1,7,4,-0.02186238894359106,-0.16871931777080265,0.891729539089347,-0.08470087442098732,-0.15221356189132795,0.929023654197349,-0.07394619166006283,-0.17775307413511168,0.923537481443299,4.169389478522337,4.187147307069219,0.9277321818564065,0.9040362939175258,5.259216,5.126144
4,7,3,12.5,Low,100.0,85.0,97.5,2.470926843175888,1.308275446372041,1.1119714722303757,0.40470643748994917,0.6497102749708574,0.8768210555297427,8,4,8,0,0,1,300.0152999999999,98.49499999999989,24.623749999999973,75.0,0.030458398903497674,3,1,7,36,7,21.930047210518325,14.0,56.64319436084517,12.75,32.61799999999994,33.35699999999997,22.700000000000045,5,1,7,4,-0.28921727808455133,-0.12337606890253944,0.8452965272961875,-0.19426555833144682,-0.14387311402721406,0.9032882821935484,-0.1809384572671613,-0.16494965491912847,0.8976176402580645,4.047944330087976,4.086555196246335,0.9312401632570088,0.9080897354719061,5.5681,5.116302
4,8,3,12.5,Low,100.0,85.0,97.5,2.470926843175888,1.308275446372041,1.1119714722303757,0.40470643748994917,0.6497102749708574,0.8768210555297427,8,4,8,0,0,1,300.0152999999999,113.47700000000009,28.369250000000022,100.0,0.03524943380596946,4,0,8,30,7,15.862245212686258,14.0,13.301751519187555,30.037000000000035,35.75,34.9670000000001,12.722999999999956,5,1,7,4,-0.20259029722557595,-0.08089666999400383,0.8549442883572952,-0.1686959140631378,-0.10306313310489601,0.9185189428327645,-0.15507294549881825,-0.12352468459639186,0.9114813383745735,4.060230261732082,4.09630887137372,0.9519293112926621,0.9388166082913822,5.071381,5.118423
10,1,0,0.0,Low,100.0,100.0,100.0,2.4195727953054247,1.353364297829908,1.200565316172147,0.4132961000141222,0.7388993500149809,0.8329409375146497,8,10,8,0,0,0,300.0045,169.0250000000001,42.25625000000002,75.0,0.017748853719863917,3,1,3,80,3,28.398165951782268,6.0,373.3027658630378,42.87000000000012,38.500999999999976,15.807999999999993,23.40000000000009,1,1,7,1,0.11007953253781064,-0.21582310466945961,0.7458206986917254,0.013937606130470083,-0.16403871493648847,0.820487582538741,0.058853433231144656,-0.20662475012124268,0.8382700079706383,3.4361450420404833,3.995899163787351,0.6546854883600283,0.6674156448786134,5.482773,5.750671
10,2,0,0.0,Low,100.0,100.0,100.0,2.4195727953054247,1.353364297829908,1.200565316172147,0.4132961000141222,0.7388993500149809,0.8329409375146497,8,10,8,0,0,0,300.0045,92.92099999999982,23.230249999999955,75.0,0.03228548982468985,3,1,4,76,3,49.073944533528575,6.0,717.8990755588096,28.159999999999854,27.248000000000047,25.673000000000002,31.45600000000013,1,1,7,1,0.07493984724856978,-0.29205936810794714,0.7667764261881526,0.011295219518847256,-0.18685838166556967,0.8346571266000907,0.0479514126073207,-0.20816510746436792,0.8359557123921925,3.304652195642306,3.8734786201770315,0.7581761895962823,0.7575750081909896,4.950104,5.354477
10,3,0,0.0,Low,100.0,100.0,100.0,2.4195727953054247,1.353364297829908,1.200565316172147,0.4132961000141222,0.7388993500149809,0.8329409375146497,8,10,8,0,0,0,300.0045,184.56799999999998,46.141999999999996,0.0,0.0,0,4,6,101,3,32.83342724632656,6.0,447.22378743877596,47.65599999999995,41.21499999999992,47.697000000000116,51.27999999999997,1,1,7,1,0.026525990836764546,-0.18887996143170319,0.8332287964427179,-0.023325623999217702,-0.13246465917267977,0.867124116377209,0.011857862190053322,-0.1618174718613102,0.8682276352528946,3.5053622020109687,4.194286043113955,0.7924436500562156,0.8147754541829981,5.028595,5.779739
10,4,0,0.0,Low,100.0,100.0,100.0,2.4195727953054247,1.353364297829908,1.200565316172147,0.4132961000141222,0.7388993500149809,0.8329409375146497,8,10,8,0,0,0,300.0045,122.03199999999993,30.50799999999998,100.0,0.03277828766225254,4,0,5,80,3,39.33394519470305,6.0,555.5657532450508,23.336000000000013,32.40499999999997,36.049999999999955,35.84999999999991,1,1,7,1,0.09751692674883972,-0.27337256906186763,0.8139643983124748,0.013345934282851028,-0.1916431906467961,0.8760365375696406,0.04506517006527655,-0.21304497329501818,0.8708344334194591,3.545443667985466,4.076538614291483,0.7775796528996367,0.8021102763234558,5.297043,5.436584
10,5,0,0.0,Low,100.0,100.0,100.0,2.4195727953054247,1.353364297829908,1.200565316172147,0.4132961000141222,0.7388993500149809,0.8329409375146497,8,10,8,0,0,0,300.0045,157.93900000000008,39.48475000000002,100.0,0.02532623354586263,4,0,4,89,3,33.810521783726614,6.0,463.50869639544356,44.011000000000195,37.562999999999874,45.72900000000004,33.78899999999999,1,1,7,1,0.08838615211440465,-0.28069320699575473,0.7925169137006862,0.028802432526921672,-0.19392072641896235,0.8682095276014867,0.06518076127477702,-0.2180927776424457,0.863642338850772,3.588751633790738,4.132707492066896,0.8027208153853631,0.8271153868897941,5.070648,5.440338
10,6,0,0.0,Low,100.0,100.0,100.0,2.4195727953054247,1.353364297829908,1.200565316172147,0.4132961000141222,0.7388993500149809,0.8329409375146497,8,10,8,0,0,0,300.0045,116.29199999999992,29.07299999999998,50.0,0.017198087572661933,2,2,6,79,3,40.75946754720878,6.0,579.3244591201463,35.67399999999998,26.462999999999965,26.263000000000147,31.958999999999833,1,1,7,1,0.07788827365450939,-0.23537255751185235,0.8172670512905674,0.0018882139677500493,-0.1757021412998387,0.85840623434238,0.03118709180208958,-0.2028787735328715,0.8557878738849877,3.4100420991649267,4.068701765230594,0.8069277530661416,0.8308770821400645,4.792343,5.605515
10,7,0,0.0,Low,100.0,100.0,100.0,2.4195727953054247,1.353364297829908,1.200565316172147,0.4132961000141222,0.7388993500149809,0.8329409375146497,8,10,8,0,0,0,300.0045,104.90600000000018,26.226500000000044,75.0,0.028597029721846176,3,1,3,67,3,38.32001982727388,6.0,538.6669971212314,23.70900000000006,18.713999999999942,31.996000000000095,33.69399999999996,1,1,7,1,-0.08712572802107713,-0.2256447666545357,0.7945973057402482,-0.08988626139314383,-0.14995703670428523,0.8563683420766844,-0.05835405255209995,-0.17614746289617686,0.8571071471963652,3.4301609770611705,4.007182836657801,0.7448423628475177,0.7768471831578015,5.018784,5.484024
10,8,0,0.0,Low,100.0,100.0,100.0,2.4195727953054247,1.353364297829908,1.200565316172147,0.4132961000141222,0.7388993500149809,0.8329409375146497,8,10,8,0,0,0,300.0045,138.31500000000005,34.578750000000014,75.0,0.021689621516104537,3,1,4,79,3,34.26960199544517,6.0,471.16003325741957,26.8449999999998,26.144000000000233,47.68899999999985,37.63700000000017,1,1,7,1,-0.021993739303920234,-0.16163180435124025,0.8085201516960294,-0.05460469306950548,-0.11931721277209993,0.8701567836006662,-0.02174969674813875,-0.14082993708146202,0.8664106903146639,3.481440948461741,4.018170393373652,0.779830551598212,0.8213689988810587,4.983551,5.553864
15,1,0,0.0,Low,97.5,100.0,97.5,2.3456150538867413,2.073846608403809,1.403619720096725,0.4156692285822438,0.48219574000686405,0.6946325888986595,7,10,8,0,0,1,300.00249999999994,174.07399999999984,43.51849999999996,75.0,0.017234049886829753,3,1,7,63,23,21.71490285740549,46.0,-52.79368944042284,50.61900000000014,18.80099999999993,39.91599999999994,37.218000000000075,2,1,6,3,-0.0940241933360049,-0.1519156985397299,0.6503159915081159,-0.10807515597182403,-0.1614835781571976,0.8200264883010134,-0.08261671485618145,-0.14829332144274757,0.8274315234538346,2.688888280663953,3.2734063283058017,0.8599617744570585,0.8950711990384647,4.114914,4.456802
15,2,0,0.0,Low,97.5,100.0,97.5,2.3456150538867413,2.073846608403809,1.403619720096725,0.4156692285822438,0.48219574000686405,0.6946325888986595,7,10,8,0,0,1,300.00249999999994,105.14300000000003,26.285750000000007,50.0,0.019021713285715638,2,2,8,43,23,24.538010138573174,46.0,-46.65649969875397,50.085000000000036,13.327999999999975,17.103000000000065,32.16300000000001,2,1,6,3,-0.236912225578758,-0.048713270312834074,0.8082525081283191,-0.17030505951378347,-0.09605361352932504,0.8769136295112171,-0.15771093662381783,-0.08202370053263681,0.8839754381055598,2.8299374664571366,3.290188259564322,0.8663634604432643,0.8915071841771973,3.925079,4.482498
15,3,0,0.0,Low,97.5,100.0,97.5,2.3456150538867413,2.073846608403809,1.403619720096725,0.4156692285822438,0.48219574000686405,0.6946325888986595,7,10,8,0,0,1,300.00249999999994,167.7829999999999,41.945749999999975,75.0,0.017880238164772366,3,1,9,59,23,21.09868103443139,46.0,-54.1333020990622,47.266999999999825,31.153999999999996,43.05000000000018,50.22000000000003,2,1,6,3,-0.1907305529733097,-0.004110797577177484,0.7969678482379207,-0.17427364130533887,-0.0598530172736187,0.8818092312230903,-0.15233287959719902,-0.04974369639340385,0.8861436471296444,2.8078925377132835,3.303011273560835,0.9010967767765109,0.9157386340346038,4.010498,4.486618
15,4,0,0.0,Low,97.5,100.0,97.5,2.3456150538867413,2.073846608403809,1.403619720096725,0.4156692285822438,0.48219574000686405,0.6946325888986595,7,10,8,0,0,1,300.00249999999994,127.3599999999999,31.839999999999975,100.0,0.03140703517587942,4,0,7,68,23,32.03517587939701,46.0,-30.358313305658672,39.221000000000004,42.19899999999984,31.202999999999975,19.10900000000015,2,1,6,3,-0.08405221543365907,-0.12218794301997722,0.7832233397207935,-0.11664720773241367,-0.12311437863724907,0.8808802413666422,-0.09384193533714622,-0.10864972115478985,0.8855819271197649,2.898328147465099,3.465800880235121,0.8858676820933873,0.9188350280055463,4.012375,4.655914
15,5,0,0.0,Low,97.5,100.0,97.5,2.3456150538867413,2.073846608403809,1.403619720096725,0.4156692285822438,0.48219574000686405,0.6946325888986595,7,10,8,0,0,1,300.00249999999994,151.72399999999993,37.93099999999998,75.0,0.019772745247950235,3,1,9,43,23,17.0045609132372,46.0,-63.03356323209305,50.23699999999985,32.53300000000013,31.15300000000002,40.89300000000003,2,1,6,3,0.021593300133647273,-0.03650449707810527,0.8027257230286241,-0.06190253684012334,-0.07916053681820129,0.899701839833795,-0.03991670664050785,-0.06344950135401724,0.9023735929455217,2.9512254988919664,3.5412540333333333,0.9245358770304708,0.9349264533672946,4.250336,4.645981
15,6,0,0.0,Low,97.5,100.0,97.5,2.3456150538867413,2.073846608403809,1.403619720096725,0.4156692285822438,0.48219574000686405,0.6946325888986595,7,10,8,0,0,1,300.00249999999994,121.98799999999983,30.496999999999957,50.0,0.01639505525133622,2,2,9,34,23,16.722956356362946,46.0,-63.6457470513849,11.322999999999865,36.59899999999993,25.605999999999995,51.003000000000156,2,1,6,3,-0.08965293211920958,-0.10621037635880926,0.7918445781702128,-0.09831180491536916,-0.1154075731067883,0.8897764335851064,-0.0867352893834468,-0.10032663624349929,0.8935868521595745,2.899458988510638,3.429346978085106,0.9153057620787234,0.9259322183907553,3.997696,4.462708
15,7,0,0.0,Low,97.5,100.0,97.5,2.3456150538867413,2.073846608403809,1.403619720096725,0.4156692285822438,0.48219574000686405,0.6946325888986595,7,10,8,0,0,1,300.00249999999994,129.42499999999973,32.35624999999993,25.0,0.007726482518833317,1,3,9,55,23,25.497392312149948,46.0,-44.570886277934896,21.057999999999993,43.12699999999995,31.53800000000001,35.58100000000013,2,1,6,3,-0.23885572039584388,-0.03238543842379114,0.7776022687433657,-0.17980429620300892,-0.07733378426402694,0.8785099483873602,-0.16691379024049807,-0.06258694820843438,0.8813810679105087,2.886702080672818,3.4072440961051687,0.9098441722826814,0.9169360226979669,4.004593,4.415848
15,8,0,0.0,Low,97.5,100.0,97.5,2.3456150538867413,2.073846608403809,1.403619720096725,0.4156692285822438,0.48219574000686405,0.6946325888986595,7,10,8,0,0,1,300.00249999999994,126.25599999999986,31.563999999999965,50.0,0.01584083132682805,2,2,9,47,23,22.33557217082755,46.0,-51.444408324287934,17.460999999999785,33.152000000000044,37.11299999999983,38.5300000000002,2,1,6,3,-0.14657385333755812,-0.047659704365246476,0.7932928246074339,-0.14872586792466705,-0.08763175836234743,0.8806771276585171,-0.12833710214436495,-0.07483950387312562,0.8856233261379448,2.81678257622739,3.387333860166965,0.8985015053994038,0.9135526066360763,4.132767,4.462585
16,1,9,37.5,Low,100.0,97.5,100.0,2.0249606777950135,1.7887948787993109,1.9547337420517665,0.4938367499999572,0.5450597000000622,0.5115786250000269,8,9,8,0,0,0,300.0060000000001,132.40499999999997,33.10124999999999,75.0,0.02265775461651751,3,1,3,71,12,32.17401155545486,24.0,34.05838148106192,22.014000000000124,17.745999999999867,39.093000000000075,19.003999999999905,1,1,5,2,0.025072053052147197,-0.21977244014991892,0.768365598232314,0.015612515103824021,-0.15692240366368643,0.8508089880895358,0.025684466408325352,-0.16311512672451178,0.8542459665070009,3.3082305620854826,3.8219587694362556,0.9319228819187546,0.9498534137287215,4.6931,5.113861
16,2,9,37.5,Low,100.0,97.5,100.0,2.0249606777950135,1.7887948787993109,1.9547337420517665,0.4938367499999572,0.5450597000000622,0.5115786250000269,8,9,8,0,0,0,300.0060000000001,54.61400000000003,13.653500000000008,100.0,0.07324129344124213,4,0,2,27,12,29.66272384370306,24.0,23.594682682096078,20.013000000000147,9.212999999999965,12.410000000000082,17.60199999999986,1,1,5,2,0.07305302456226082,-0.22176746107293008,0.8867007057727692,0.029266233608689057,-0.10857675270998159,0.9068024619365225,0.02381892155035648,-0.1294780657874885,0.9131193997700092,3.7896577371205145,4.233364993790248,0.9587608306807729,0.9662863831646735,4.643799,5.164566
16,3,9,37.5,Low,100.0,97.5,100.0,2.0249606777950135,1.7887948787993109,1.9547337420517665,0.4938367499999572,0.5450597000000622,0.5115786250000269,8,9,8,0,0,0,300.0060000000001,72.32999999999993,18.082499999999982,75.0,0.04147656574035674,3,1,3,37,12,30.692658647863986,24.0,27.886077699433276,11.91800000000012,23.139999999999873,26.42100000000005,13.89799999999991,1,1,5,2,0.07704440016828154,-0.26405003583495956,0.8729231725916718,0.04192945508495221,-0.12454685910320075,0.9133240153200746,0.03596981738930392,-0.14064554942484306,0.9125771368707271,3.7725916920447484,4.188674056246116,0.9551826564325668,0.9641997535114979,5.532227,5.137482
16,4,9,37.5,Low,100.0,97.5,100.0,2.0249606777950135,1.7887948787993109,1.9547337420517665,0.4938367499999572,0.5450597000000622,0.5115786250000269,8,9,8,0,0,0,300.0060000000001,77.66500000000019,19.416250000000048,75.0,0.03862743835704619,3,1,4,39,12,30.12940191849603,24.0,25.53917466040012,19.75500000000011,21.177999999999884,26.937000000000126,13.16599999999994,1,1,5,2,0.007372318321961543,-0.32570683943822487,0.8388336802781065,0.025024804612490535,-0.17069663303278257,0.8936261653994083,0.02070588279259467,-0.1860170812954142,0.894179732943787,3.8086314717455623,4.247393450591716,0.9428901459615384,0.9530611248964497,4.6465,5.183655
16,5,9,37.5,Low,100.0,97.5,100.0,2.0249606777950135,1.7887948787993109,1.9547337420517665,0.4938367499999572,0.5450597000000622,0.5115786250000269,8,9,8,0,0,0,300.0060000000001,81.91300000000001,20.478250000000003,75.0,0.03662422326126499,3,1,5,40,12,29.299378609011995,24.0,22.08074420421665,24.391000000000076,27.452999999999975,16.791999999999916,15.947000000000116,1,1,5,2,0.10291564468858967,-0.2753673696066907,0.8558230866937302,0.04629137410667869,-0.1457891250829543,0.9004754087204931,0.043976844444788464,-0.16484445593856564,0.9034985308073974,3.778562705457826,4.25224650428507,0.9512992481130657,0.9564360998797173,6.038132,5.251297
16,6,9,37.5,Low,100.0,97.5,100.0,2.0249606777950135,1.7887948787993109,1.9547337420517665,0.4938367499999572,0.5450597000000622,0.5115786250000269,8,9,8,0,0,0,300.0060000000001,60.605999999999995,15.151499999999999,75.0,0.049500049500049506,3,1,6,29,12,28.710028710028713,24.0,19.625119625119638,13.787000000000035,18.876999999999953,15.130999999999858,17.17600000000016,1,1,5,2,0.10180763474685052,-0.23484021845865966,0.868476849943524,0.04725025406940324,-0.12826836535131778,0.9037287398908133,0.03930436834680159,-0.14547493879785392,0.9028757436746988,3.678797140060241,4.111919107680723,0.944228381061747,0.9490009473079819,4.526306,5.158417
16,7,9,37.5,Low,100.0,97.5,100.0,2.0249606777950135,1.7887948787993109,1.9547337420517665,0.4938367499999572,0.5450597000000622,0.5115786250000269,8,9,8,0,0,0,300.0060000000001,59.15099999999984,14.78774999999996,75.0,0.050717654815641465,3,1,6,35,12,35.502358370949025,24.0,47.92649321228761,9.22199999999998,11.628999999999905,25.055000000000064,15.523999999999887,1,1,5,2,-0.021249878174515437,-0.2354991935810497,0.8538336533516807,-0.014382585192559444,-0.11747297684734617,0.889350231236485,-0.01830796663595046,-0.13705237050530764,0.888441512974248,3.6064083166896013,4.01680708944368,0.938934439453509,0.9380140773540397,4.513962,4.963318
16,8,9,37.5,Low,100.0,97.5,100.0,2.0249606777950135,1.7887948787993109,1.9547337420517665,0.4938367499999572,0.5450597000000622,0.5115786250000269,8,9,8,0,0,0,300.0060000000001,61.825000000000045,15.456250000000011,0.0,0.0,0,4,7,32,12,31.05539830165788,24.0,29.397492923574504,23.922000000000025,4.207000000000107,9.218000000000075,24.477999999999838,1,1,5,2,0.07251354219628059,-0.18619388878741888,0.8278590128307538,0.020982015955843734,-0.10774652600838991,0.8848224212930604,0.02649391694725662,-0.12411951308178633,0.882208868222666,3.524920660509236,3.9495576243135297,0.9043098495756365,0.891782596884673,5.356537,5.146606
20,1,11,45.83,High,77.5,97.5,87.5,1.6838787404863989,2.070315316452746,0.8916278246421641,0.46024691764689446,0.4709427555559766,0.9813511599990307,8,9,4,9,0,1,300.00699999999995,184.24399999999991,46.06099999999998,75.0,0.016282755476433434,3,1,4,188,19,61.223160591389714,38.0,61.11358050365714,24.554999999999836,35.677000000000135,46.909999999999854,28.27300000000014,3,2,8,1,-0.033779194428407044,-0.19029820469181707,0.5627084157335174,-0.02769276907620207,-0.15357903676432863,0.7361426117707973,-0.02314543045887677,-0.11806939844359682,0.4722581599999999,2.333280672488781,1.182929238936831,0.19748630035411804,0.4710715955045633,4.860474,5.090881
20,2,11,45.83,High,77.5,97.5,87.5,1.6838787404863989,2.070315316452746,0.8916278246421641,0.46024691764689446,0.4709427555559766,0.9813511599990307,8,9,4,9,0,1,300.00699999999995,124.048,31.012,100.0,0.032245582355217337,4,0,4,142,19,68.68309041661293,38.0,80.74497478056033,29.365999999999985,30.412000000000035,22.423000000000002,44.83399999999983,3,2,8,1,-0.06795655680680207,-0.11437456241018698,0.5607705551687083,-0.05737568853866323,-0.08597575832815818,0.7131935817966902,-0.06719880096445303,-0.03868584729180744,0.4330970262088975,2.412298610896196,1.0447495609284334,0.18469780277002582,0.49514653399430464,5.089142,5.165222
20,3,11,45.83,High,77.5,97.5,87.5,1.6838787404863989,2.070315316452746,0.8916278246421641,0.46024691764689446,0.4709427555559766,0.9813511599990307,8,9,4,9,0,1,300.00699999999995,122.94100000000003,30.735250000000008,75.0,0.024401948902318994,3,1,4,175,19,85.40682115811647,38.0,124.75479252135912,31.187000000000126,30.44100000000003,30.208999999999833,33.39499999999998,3,2,8,1,-0.01295683644108253,-0.1101338824241307,0.578130334025974,-0.004157466958267279,-0.09311590719070466,0.7680616555090073,-0.038379585544725606,-0.031806594830238795,0.4017104406619187,2.8090513267700037,0.9178814379555928,0.18661023255742187,0.5232600304867198,5.377609,5.104996
20,4,11,45.83,High,77.5,97.5,87.5,1.6838787404863989,2.070315316452746,0.8916278246421641,0.46024691764689446,0.4709427555559766,0.9813511599990307,8,9,4,9,0,1,300.00699999999995,109.7170000000001,27.429250000000025,75.0,0.02734307354375345,3,1,4,135,19,73.82629856813432,38.0,94.27973307403768,43.7030000000002,20.478999999999814,31.25200000000018,16.144000000000005,3,2,8,1,-0.027205754133960144,-0.12795326842449692,0.6153836822497787,-0.02879295219386094,-0.09801718334684856,0.8030957368644819,-0.040682692785398586,-0.051831714151390616,0.43794770565987595,2.9109578853852964,1.1511434074402127,0.2075813880433658,0.5909481296412755,5.23996,5.404602
20,5,11,45.83,High,77.5,97.5,87.5,1.6838787404863989,2.070315316452746,0.8916278246421641,0.46024691764689446,0.4709427555559766,0.9813511599990307,8,9,4,9,0,1,300.00699999999995,121.19999999999982,30.299999999999955,50.0,0.016501650165016528,2,2,5,103,19,50.990099009901066,38.0,34.18447107868701,35.299999999999955,21.322999999999865,22.478000000000065,43.90300000000002,3,2,8,1,-0.05477774540444552,-0.11470142183997357,0.7008899582842725,-0.06979576753803676,-0.08198829559716207,0.8094361014057432,-0.05752073791148744,-0.039167128089078455,0.607301304962153,2.958055613120269,2.0071599122912414,0.3264098404547158,0.6395251177335575,5.168182,5.412811
20,6,11,45.83,High,77.5,97.5,87.5,1.6838787404863989,2.070315316452746,0.8916278246421641,0.46024691764689446,0.4709427555559766,0.9813511599990307,8,9,4,9,0,1,300.00699999999995,95.93500000000017,23.983750000000043,50.0,0.020847448793453863,2,2,5,136,19,85.05759107729178,38.0,123.83576599287309,17.26800000000003,29.154999999999973,19.534999999999854,31.608000000000175,3,2,8,1,-0.07523103900661333,-0.14308267574902084,0.6236012418541667,-0.05538834717167709,-0.1090829819114271,0.7697597956458334,-0.05734687992306563,-0.06472858839189582,0.49633514664583334,2.8150474070833336,1.4436762094791666,0.2886283160338125,0.621657159091875,5.106186,5.451599
20,7,11,45.83,High,77.5,97.5,87.5,1.6838787404863989,2.070315316452746,0.8916278246421641,0.46024691764689446,0.4709427555559766,0.9813511599990307,8,9,4,9,0,1,300.00699999999995,121.57999999999993,30.394999999999982,100.0,0.032900148050666246,4,0,4,161,19,79.45385754235899,38.0,109.08909879568156,25.82900000000018,33.35699999999997,42.41300000000001,23.609999999999673,3,2,8,1,-0.07554351619672374,-0.13334877252954466,0.6555540597055803,-0.02629643344561109,-0.10316556867244953,0.7933746810424511,-0.05406107986678107,-0.053828308609230574,0.5358742246918864,2.8883936269257107,1.657954808370421,0.2741682854427251,0.6248352204630263,5.035019,5.332016
20,8,11,45.83,High,77.5,97.5,87.5,1.6838787404863989,2.070315316452746,0.8916278246421641,0.46024691764689446,0.4709427555559766,0.9813511599990307,8,9,4,9,0,1,300.00699999999995,131.64000000000033,32.91000000000008,75.0,0.02278942570647214,3,1,5,140,19,63.81039197812199,38.0,67.9220841529526,15.882000000000062,31.363000000000284,42.259000000000015,42.13599999999997,3,2,8,1,-0.09286591724655319,-0.11804011155121727,0.6076663758588284,-0.07360470009509658,-0.09535685968127387,0.7577589184922209,-0.04796055819975984,-0.048927814887937765,0.49570193466638823,2.774571778949567,1.425636477289339,0.2826039620790122,0.5372461468057848,5.318848,5.440948
21,1,14,58.33,High,100.0,97.5,95.0,2.1405098062903627,2.57923270604676,1.9810634523777702,0.46717842500009965,0.3780193999999331,0.4795404200000576,8,9,8,0,0,2,300.00299999999993,123.9090000000001,30.977250000000026,100.0,0.03228175515902797,4,0,1,54,14,26.148221678812654,28.0,-6.613494004240524,35.807000000000016,19.55600000000004,22.58199999999988,26.894999999999982,1,1,6,1,-0.15985044315876323,-0.027241354518245768,0.8278713016347239,-0.11109086831376326,-0.044006223963544526,0.8760069465614431,-0.10336695520021533,-0.05056376824655806,0.8811714581059753,2.968973912175874,2.997518832243517,0.9321383357768883,0.9275950813720406,4.235703,4.202225
21,2,14,58.33,High,100.0,97.5,95.0,2.1405098062903627,2.57923270604676,1.9810634523777702,0.46717842500009965,0.3780193999999331,0.4795404200000576,8,9,8,0,0,2,300.00299999999993,89.47000000000003,22.367500000000007,100.0,0.04470772325919301,4,0,2,37,14,24.812786408852123,28.0,-11.38290568267099,26.937000000000126,26.644999999999982,17.867999999999938,21.16599999999994,1,1,6,1,-0.08697804630640932,-0.11048519433581785,0.8693130827906386,-0.06994041485105063,-0.10598209216528365,0.8951245381582293,-0.05606144491198295,-0.10601471836484355,0.8997229713813278,3.187519550114475,3.1414606545408295,0.9270930085716548,0.9175316079798779,4.515259,4.051071
21,3,14,58.33,High,100.0,97.5,95.0,2.1405098062903627,2.57923270604676,1.9810634523777702,0.46717842500009965,0.3780193999999331,0.4795404200000576,8,9,8,0,0,2,300.00299999999993,69.54300000000012,17.38575000000003,100.0,0.0575183699293961,4,0,2,32,14,27.60881756611013,28.0,-1.3970801210352515,18.298999999999978,24.427000000000135,14.68899999999985,15.142000000000053,1,1,6,1,-0.0011942915237759158,-0.08538095519609908,0.8782809063871951,-0.012450539123286128,-0.10658587526342683,0.9121418919359756,0.003044944340168139,-0.1072154137451038,0.9178459123780488,3.235485477134146,3.205740523628049,0.9443148992762195,0.9301726844883537,4.060623,3.979996
21,4,14,58.33,High,100.0,97.5,95.0,2.1405098062903627,2.57923270604676,1.9810634523777702,0.46717842500009965,0.3780193999999331,0.4795404200000576,8,9,8,0,0,2,300.00299999999993,73.78600000000006,18.446500000000015,75.0,0.04065811942644943,3,1,2,23,14,18.702734936166735,28.0,-33.204518085118806,17.798000000000002,22.692000000000007,17.623000000000047,18.0150000000001,1,1,6,1,0.03772993161213989,-0.10912559378880932,0.8953236458784345,0.016262378668263112,-0.12109983239216819,0.9262781997835138,0.03480304558139883,-0.12107869521350542,0.928730174621149,3.3574916226477938,3.3217523197335552,0.9493430429425479,0.9448775240997502,4.16925,4.100555
21,5,14,58.33,High,100.0,97.5,95.0,2.1405098062903627,2.57923270604676,1.9810634523777702,0.46717842500009965,0.3780193999999331,0.4795404200000576,8,9,8,0,0,2,300.00299999999993,98.08699999999999,24.521749999999997,25.0,0.01019503094191891,1,3,5,41,14,25.079776117120517,28.0,-10.42937101028387,29.832999999999856,7.904999999999973,32.67399999999998,29.94100000000003,1,1,6,1,0.1161950274697236,-0.11931351089437674,0.8623407174267551,0.03675153637305888,-0.12534799105663763,0.907841897236042,0.05489493788689745,-0.12318336957780264,0.9119099844250967,3.3174418214483143,3.2471478360972914,0.940136439268408,0.9348657418282199,4.302139,4.31424
21,6,14,58.33,High,100.0,97.5,95.0,2.1405098062903627,2.57923270604676,1.9810634523777702,0.46717842500009965,0.3780193999999331,0.4795404200000576,8,9,8,0,0,2,300.00299999999993,73.02300000000014,18.255750000000035,75.0,0.041082946468920675,3,1,5,36,14,29.579721457622885,28.0,5.641862348653159,17.30899999999997,18.77500000000009,18.162000000000035,20.646999999999935,1,1,6,1,-0.05629899361663553,-0.0712299489103518,0.879313078849481,-0.03235355691196078,-0.09168744711350202,0.9136118357843138,-0.015135997985857842,-0.08993910267302925,0.9186497969579007,3.3062176663783163,3.2270632743656287,0.9342315453408304,0.9279987535132642,4.168091,4.070557
21,7,14,58.33,High,100.0,97.5,95.0,2.1405098062903627,2.57923270604676,1.9810634523777702,0.46717842500009965,0.3780193999999331,0.4795404200000576,8,9,8,0,0,2,300.00299999999993,74.52800000000002,18.632000000000005,100.0,0.05367110347788749,4,0,4,31,14,24.957063117217686,28.0,-10.86763172422255,13.200000000000045,19.91899999999987,20.811999999999898,24.162000000000262,1,1,6,1,-0.07428106286532143,-0.10471614095125684,0.8674834672613307,-0.041017401251558984,-0.10691101820499357,0.9011168390549663,-0.024442183185475728,-0.10366344811591129,0.9051673543715847,3.2916860374477657,3.206905318225651,0.9348673232966893,0.9233619303545483,4.290649,4.22644
21,8,14,58.33,High,100.0,97.5,95.0,2.1405098062903627,2.57923270604676,1.9810634523777702,0.46717842500009965,0.3780193999999331,0.4795404200000576,8,9,8,0,0,2,300.00299999999993,90.41399999999976,22.60349999999994,50.0,0.0221204680691044,2,2,7,42,14,27.871789767071544,28.0,-0.4578936890302009,20.746000000000095,24.799999999999727,20.957000000000335,23.910999999999603,1,1,6,1,-0.020831932541392456,-0.10187088988158972,0.8501295931668305,-0.03395844534128525,-0.11054241987093727,0.896996327950049,-0.016046665480782943,-0.11039614886798513,0.9009890925073664,3.3466563953977837,3.2343223627052056,0.9304037644943959,0.9273036661612178,4.450119,4.312286
22,1,14,58.33,High,100.0,100.0,100.0,2.409098248626652,2.6028421318226327,2.4028274791809907,0.4150930750001862,0.38419540999966556,0.41617636249975476,8,10,8,0,0,0,300.00800000000004,71.298,17.8245,50.0,0.02805127773570086,2,2,4,15,3,12.623074981065386,6.0,110.38458301775644,21.608999999999924,11.97199999999998,20.66300000000001,16.260999999999967,1,2,5,1,-0.03921694787441571,-0.10363362836697941,0.9047880141212007,-0.033048630314253355,0.0030473797386973735,0.931486703983387,-0.031314798693409474,0.006126734949027756,0.929510255691901,3.266401162922409,3.341717263167831,0.9764921538512366,0.9771202454842364,4.415314,4.434738
22,2,14,58.33,High,100.0,100.0,100.0,2.409098248626652,2.6028421318226327,2.4028274791809907,0.4150930750001862,0.38419540999966556,0.41617636249975476,8,10,8,0,0,0,300.00800000000004,63.480999999999995,15.870249999999999,100.0,0.06301097966320632,4,0,4,12,3,11.341976339377137,6.0,89.03293898961894,24.037000000000035,12.150000000000091,11.092999999999847,19.422000000000025,1,2,5,1,-0.03806379558582386,-0.22146211419244927,0.8799837398944804,-0.033283761254931,-0.06384133520909091,0.920113421469156,-0.026042763452702924,-0.05917199197909903,0.9183543290584416,3.3410326410308437,3.434494562297078,0.9744473932528408,0.9737269011586852,4.166595,4.519516
22,3,14,58.33,High,100.0,100.0,100.0,2.409098248626652,2.6028421318226327,2.4028274791809907,0.4150930750001862,0.38419540999966556,0.41617636249975476,8,10,8,0,0,0,300.00800000000004,74.90000000000009,18.725000000000023,100.0,0.05340453938584773,4,0,4,13,3,10.413885180240307,6.0,73.56475300400511,17.079999999999927,25.624000000000024,19.03300000000013,16.74000000000001,1,2,5,1,-0.0812897389615738,-0.3161554491462507,0.8729379181387078,-0.08718725884745407,-0.11796460196065797,0.9225993514819205,-0.08370514331736219,-0.11506107001644916,0.9185333637818615,3.6046497107291047,3.728987765708358,0.9658886212833433,0.9732102116567871,4.440704,4.607071
22,4,14,58.33,High,100.0,100.0,100.0,2.409098248626652,2.6028421318226327,2.4028274791809907,0.4150930750001862,0.38419540999966556,0.41617636249975476,8,10,8,0,0,0,300.00800000000004,56.41599999999994,14.103999999999985,100.0,0.07090187180941585,4,0,3,16,3,17.016449234259802,6.0,183.60748723766338,17.560999999999922,14.224999999999909,17.13500000000022,10.526999999999816,1,2,5,1,-0.03082778313432268,-0.31335621732055075,0.8509920091480317,-0.04242104724937165,-0.12050743839881724,0.9056435596932175,-0.040061617320790985,-0.11635236859659953,0.9028667181851782,3.5301420218074293,3.65046440528553,0.9654515628719276,0.9659779577996673,4.481934,4.882141
22,5,14,58.33,High,100.0,100.0,100.0,2.409098248626652,2.6028421318226327,2.4028274791809907,0.4150930750001862,0.38419540999966556,0.41617636249975476,8,10,8,0,0,0,300.00800000000004,74.99099999999999,18.747749999999996,100.0,0.053339734101425514,4,0,5,16,3,12.801536184342122,6.0,113.35893640570205,15.048000000000002,26.479000000000042,18.317000000000007,19.386999999999944,1,2,5,1,0.04072112512690452,-0.2921918495394864,0.8669068319544985,0.014308194762573247,-0.1013011042000896,0.9230216588417786,0.01988380109640986,-0.09054180093129954,0.9188991743709065,3.520263697518097,3.61500712685281,0.9310422923743535,0.9511319855808342,4.794968,5.355881
22,6,14,58.33,High,100.0,100.0,100.0,2.409098248626652,2.6028421318226327,2.4028274791809907,0.4150930750001862,0.38419540999966556,0.41617636249975476,8,10,8,0,0,0,300.00800000000004,65.97300000000018,16.493250000000046,75.0,0.045473148106043255,3,1,5,14,3,12.732481469692111,6.0,112.20802449486851,9.151000000000067,22.21199999999999,22.583000000000084,19.44699999999989,1,2,5,1,0.04891064630565757,-0.39267848593852767,0.848217711993383,0.03537419186853597,-0.16756743336795699,0.9238957025475599,0.04339423643052936,-0.1535834779717833,0.9188036726550869,3.727008432423491,3.8481102344086024,0.968264298420182,0.9740750137435897,5.047638,4.767853
22,7,14,58.33,High,100.0,100.0,100.0,2.409098248626652,2.6028421318226327,2.4028274791809907,0.4150930750001862,0.38419540999966556,0.41617636249975476,8,10,8,0,0,0,300.00800000000004,73.77700000000004,18.44425000000001,75.0,0.04066307927945021,3,1,6,22,3,17.891754882958093,6.0,198.19591471596823,11.745000000000118,10.174999999999955,34.60400000000004,19.758000000000038,1,2,5,1,0.05878428560055269,-0.38588421616447477,0.8323452732978192,0.04121987320004162,-0.17107106459780255,0.9109509478441817,0.05398865520962044,-0.14967471660870518,0.9052066616114534,3.583141192941568,3.6750303780589317,0.8976951657940735,0.9307102351306809,5.051361,5.355118
22,8,14,58.33,High,100.0,100.0,100.0,2.409098248626652,2.6028421318226327,2.4028274791809907,0.4150930750001862,0.38419540999966556,0.41617636249975476,8,10,8,0,0,0,300.00800000000004,87.13099999999986,21.782749999999965,100.0,0.045907885827088026,4,0,5,23,3,15.838220610345369,6.0,163.97034350575615,17.56399999999985,18.064000000000078,20.67100000000005,30.83199999999988,1,2,5,1,-0.027245714762901083,-0.30645815918629904,0.8605125106372858,-0.021656498790512835,-0.10759016961728757,0.9258330924698795,-0.00796973000996988,-0.0952118050182102,0.9208593132213061,3.5451611903931513,3.6649166221147746,0.8960642808850665,0.922130150296449,5.410034,5.759201
23,1,22,91.67,High,100.0,97.5,97.5,2.4576999123847774,1.8815588003870747,1.7288475161569312,0.40688449999970544,0.5181873666660977,0.5639595111125446,8,9,8,0,0,1,300.00339999999994,112.83200000000011,28.208000000000027,75.0,0.026588201928530886,3,1,3,79,8,42.0093590470788,16.0,162.5584940442425,48.192999999999984,16.947999999999865,16.980999999999995,17.60200000000009,4,2,6,1,0.18588053360572998,-0.16683144262840835,0.7284254818002195,0.09239435180882076,-0.06544967062625368,0.8371033142041712,0.10485041106496157,-0.06822883760570911,0.8388294969484082,3.8635549785949506,3.8288170320526898,0.8861917581724478,0.8862476077709243,5.520233,5.54541
23,2,22,91.67,High,100.0,97.5,97.5,2.4576999123847774,1.8815588003870747,1.7288475161569312,0.40688449999970544,0.5181873666660977,0.5639595111125446,8,9,8,0,0,1,300.00339999999994,54.565000000000055,13.641250000000014,100.0,0.07330706496838625,4,0,3,48,8,52.7810867772381,16.0,229.88179235773814,16.94699999999989,15.912000000000035,7.578999999999951,20.166000000000167,4,2,6,1,0.12214545827741376,-0.25997990337091914,0.7504095119240565,0.06433329643111137,-0.10044145433288723,0.8335101219958323,0.07187984604731189,-0.11432578095474878,0.8351993257698541,3.9240132093077094,3.8825681539708268,0.8821753377960547,0.891710574383755,5.607803,5.574753
23,3,22,91.67,High,100.0,97.5,97.5,2.4576999123847774,1.8815588003870747,1.7288475161569312,0.40688449999970544,0.5181873666660977,0.5639595111125446,8,9,8,0,0,1,300.00339999999994,67.07199999999989,16.767999999999972,75.0,0.04472805343511458,3,1,4,70,8,62.619274809160416,16.0,291.3704675572526,25.500999999999976,15.724999999999909,15.195000000000164,21.784999999999854,4,2,6,1,0.05559962140046976,-0.18256892277581455,0.7689049829469929,0.03651388459466688,-0.06750923290448321,0.8344362527151888,0.04062585647814816,-0.08201747313839683,0.8356115195169396,3.863023422272654,3.8108072335872913,0.8805510724684713,0.8858176309572217,5.500946,5.388062
23,4,22,91.67,High,100.0,97.5,97.5,2.4576999123847774,1.8815588003870747,1.7288475161569312,0.40688449999970544,0.5181873666660977,0.5639595111125446,8,9,8,0,0,1,300.00339999999994,62.587999999999965,15.646999999999991,100.0,0.06391001469930342,4,0,4,61,8,58.477663449862625,16.0,265.4853965616414,18.174999999999955,13.855000000000018,18.291000000000167,17.395999999999958,4,2,6,1,0.06454812018591014,-0.25204234329531494,0.7423937625192013,0.046249165845159375,-0.11045111701119355,0.8220143337941629,0.04915688493572273,-0.12568492465545122,0.8242462708333333,3.904694837941628,3.86714696063748,0.8911283475499232,0.8939139296802996,5.587097,5.546387
23,5,22,91.67,High,100.0,97.5,97.5,2.4576999123847774,1.8815588003870747,1.7288475161569312,0.40688449999970544,0.5181873666660977,0.5639595111125446,8,9,8,0,0,1,300.00339999999994,81.74800000000005,20.437000000000012,50.0,0.024465430346919788,2,2,6,70,8,51.377403728531554,16.0,221.1087733033222,18.66599999999994,22.912000000000035,15.720000000000027,38.909999999999854,4,2,6,1,0.13018959325617552,-0.21970651249630796,0.7436773596026489,0.079890644500351,-0.09993762124068874,0.8210934230794702,0.07897873607186093,-0.11335173562206953,0.8235324073675496,3.926259176986755,3.903106082450331,0.8888458514304636,0.8831753436812584,5.707932,5.652863
23,6,22,91.67,High,100.0,97.5,97.5,2.4576999123847774,1.8815588003870747,1.7288475161569312,0.40688449999970544,0.5181873666660977,0.5639595111125446,8,9,8,0,0,1,300.00339999999994,61.03899999999999,15.259749999999997,100.0,0.06553187306476188,4,0,4,62,8,60.94464195022855,16.0,280.90401218892845,14.960000000000036,12.22199999999998,15.298999999999978,24.766000000000076,4,2,6,1,0.10953920995794902,-0.26669281890222374,0.7444872254361956,0.07029470942243192,-0.12120347531757988,0.8323733806705439,0.07502946081369996,-0.13756508128349298,0.8340273998802601,4.053107315771467,3.98825165155662,0.8760618608097159,0.8907488953458774,5.650146,5.531281
23,7,22,91.67,High,100.0,97.5,97.5,2.4576999123847774,1.8815588003870747,1.7288475161569312,0.40688449999970544,0.5181873666660977,0.5639595111125446,8,9,8,0,0,1,300.00339999999994,115.62799999999993,28.906999999999982,100.0,0.03459369702840145,4,0,6,97,8,50.33382917632411,16.0,214.58643235202567,14.396999999999935,29.81600000000003,46.18100000000004,40.41300000000001,4,2,6,1,0.07630579122661223,-0.2530004437943,0.7499405689011456,0.04814575451552609,-0.11884811911141707,0.8398078023971148,0.05033622103186466,-0.13344854584806215,0.840726893848112,4.156081937950785,4.11647452641069,0.8713666262115823,0.8866732845709587,5.83757,5.687775
23,8,22,91.67,High,100.0,97.5,97.5,2.4576999123847774,1.8815588003870747,1.7288475161569312,0.40688449999970544,0.5181873666660977,0.5639595111125446,8,9,8,0,0,1,300.00339999999994,90.53999999999996,22.63499999999999,75.0,0.03313452617627569,3,1,7,72,8,47.713717693837,16.0,198.21073558648123,21.394999999999982,10.560999999999922,20.503000000000156,38.080999999999904,4,2,6,1,0.09298292441242866,-0.22263812859406398,0.768290898257735,0.05814316096214028,-0.09784913750765262,0.8473162083658757,0.058252261907072694,-0.11344777428604684,0.8495756295133674,4.261147765395013,4.1800488134574945,0.8705921602988886,0.8967223721444878,5.780853,5.825226
24,1,12,50.0,High,97.5,97.5,95.0,2.213813180054553,1.889111379443367,1.24611719719345,0.4404165666661963,0.5161156777782404,0.7623680999986391,8,9,7,1,0,1,300.01060000000007,86.75599999999986,21.688999999999965,75.0,0.03457974088247504,3,1,4,15,7,10.373922264742514,14.0,-25.90055525183918,38.090999999999894,12.911000000000058,14.187999999999874,27.710000000000036,3,1,6,3,-0.12414867506097974,-0.3131404347498467,0.8450813941140405,-0.11544805423925507,-0.16523037468284796,0.9186634397148988,-0.09833100609677192,-0.1710352408426272,0.923740624202943,3.9443780774064994,4.125703929950951,0.9524627496474556,0.9372305703525444,5.393799,5.386978
24,2,12,50.0,High,97.5,97.5,95.0,2.213813180054553,1.889111379443367,1.24611719719345,0.4404165666661963,0.5161156777782404,0.7623680999986391,8,9,7,1,0,1,300.01060000000007,56.184999999999945,14.046249999999986,100.0,0.07119337901575161,4,0,3,10,7,10.67900685236274,14.0,-23.72137962598043,15.942000000000007,11.67100000000005,15.698000000000093,17.116999999999962,3,1,6,3,-0.13189881282152416,-0.3247721377211689,0.8679552445477074,-0.11075040786799052,-0.16766305008513013,0.9220760667699299,-0.09855012423665635,-0.17721218758758778,0.9281648711482858,4.149864319083024,4.346746062783973,0.9643647906092525,0.9556038137546469,5.020264,5.384644
24,3,12,50.0,High,97.5,97.5,95.0,2.213813180054553,1.889111379443367,1.24611719719345,0.4404165666661963,0.5161156777782404,0.7623680999986391,8,9,7,1,0,1,300.01060000000007,71.42499999999995,17.85624999999999,100.0,0.05600280014000704,4,0,4,18,7,15.1207560378019,14.0,8.005400270013574,24.781999999999925,25.595000000000027,11.316000000000031,14.782999999999902,3,1,6,3,-0.1538154555622597,-0.29583616098759774,0.8796281215698297,-0.1238042027967842,-0.14167960437600646,0.9315573097347847,-0.1121933974536644,-0.14801569666680914,0.934842800705197,4.284566159282539,4.502546986509275,0.9574548170933619,0.9422786696611988,5.375534,5.866623
24,4,12,50.0,High,97.5,97.5,95.0,2.213813180054553,1.889111379443367,1.24611719719345,0.4404165666661963,0.5161156777782404,0.7623680999986391,8,9,7,1,0,1,300.01060000000007,76.05799999999999,19.014499999999998,75.0,0.039443582529122515,3,1,5,12,7,9.466459806989404,14.0,-32.38242995007569,19.24700000000007,19.057999999999993,23.057000000000016,18.644999999999982,3,1,6,3,-0.16092370951638393,-0.33153206982832284,0.8625748777993214,-0.1329274296956859,-0.1658087615702537,0.9293728087251574,-0.12224755467010825,-0.17585295917731944,0.9312316771853288,4.29816588721926,4.514864874616254,0.9699419722087574,0.9668049816125384,5.190338,6.179047
24,5,12,50.0,High,97.5,97.5,95.0,2.213813180054553,1.889111379443367,1.24611719719345,0.4404165666661963,0.5161156777782404,0.7623680999986391,8,9,7,1,0,1,300.01060000000007,84.27800000000002,21.069500000000005,100.0,0.04746197109565959,4,0,5,15,7,10.67894349652341,14.0,-23.721832167689932,18.451999999999998,23.117999999999938,21.35699999999997,24.550000000000182,3,1,6,3,-0.08583853612662852,-0.34888938168645833,0.8550354004254695,-0.0763477910879108,-0.17591292629097124,0.9254084573796948,-0.07127713273428697,-0.1853438239289363,0.9324425790346245,4.367628169014084,4.646515937793428,0.9535633666666667,0.9429483945129108,5.517502,6.148422
24,6,12,50.0,High,97.5,97.5,95.0,2.213813180054553,1.889111379443367,1.24611719719345,0.4404165666661963,0.5161156777782404,0.7623680999986391,8,9,7,1,0,1,300.01060000000007,68.54599999999982,17.136499999999955,75.0,0.0437662299769499,3,1,5,13,7,11.379219794006975,14.0,-18.719858614235893,17.357999999999947,21.04099999999994,12.6099999999999,21.031000000000176,3,1,6,3,-0.12561889277157615,-0.3454189441584672,0.8544148209832905,-0.12056426372681232,-0.16923212998963688,0.9293937112949872,-0.11374534063146047,-0.17661254094826476,0.9321090188946014,4.251438729595116,4.518089728952442,0.9654321753856041,0.9593835293541132,5.215195,5.493073
24,7,12,50.0,High,97.5,97.5,95.0,2.213813180054553,1.889111379443367,1.24611719719345,0.4404165666661963,0.5161156777782404,0.7623680999986391,8,9,7,1,0,1,300.01060000000007,102.39699999999993,25.599249999999984,100.0,0.03906364444270831,4,0,5,14,7,8.203365332968744,14.0,-41.40453333593754,29.625,21.521999999999935,32.358999999999924,23.888000000000147,3,1,6,3,-0.17655098989539178,-0.36099492515799814,0.8500767421844492,-0.13297487416977144,-0.1665977667713449,0.9272549511772138,-0.131931247098608,-0.17971749911431031,0.9274156310210175,4.475294453772827,4.71263838118755,0.9652118178327782,0.9586676885333639,6.017548,5.983307
24,8,12,50.0,High,97.5,97.5,95.0,2.213813180054553,1.889111379443367,1.24611719719345,0.4404165666661963,0.5161156777782404,0.7623680999986391,8,9,7,1,0,1,300.01060000000007,96.82600000000002,24.206500000000005,100.0,0.041311218061264525,4,0,5,14,7,8.67535579286555,14.0,-38.03317290810321,18.31899999999996,22.406999999999925,28.093000000000075,28.007000000000062,3,1,6,3,-0.19402765667332803,-0.3540602470055467,0.8286308999336518,-0.1410123262053888,-0.16470570559958067,0.9268647448779193,-0.138774126384448,-0.1774443108280361,0.9248626365976647,4.410157658837581,4.660416670116773,0.9730289645912951,0.9693399747478768,5.29068,5.717972
25,1,6,25.0,Low,100.0,100.0,95.0,2.2351379045144824,1.854238153343589,1.3263386606956409,0.44739968750036496,0.5393050499995298,0.7162574900001346,8,10,8,0,0,2,300.0051000000001,70.14399999999989,17.535999999999973,75.0,0.04276916058394167,3,1,6,21,12,17.9630474452555,24.0,-25.153968978102075,14.17599999999993,9.767000000000053,13.956000000000131,14.092999999999847,1,1,6,2,0.04932927702014966,-0.08954724115059683,0.8209323791750319,-0.009969344597510497,-0.03633299163318124,0.9069938055302063,0.007756953233684608,-0.02733030643241103,0.9100363757802519,3.587321380543895,3.60988160229969,0.9183553411370687,0.8907627938037963,5.068481,5.45665
25,2,6,25.0,Low,100.0,100.0,95.0,2.2351379045144824,1.854238153343589,1.3263386606956409,0.44739968750036496,0.5393050499995298,0.7162574900001346,8,10,8,0,0,2,300.0051000000001,90.673,22.66825,100.0,0.04411456552667277,4,0,6,22,12,14.557806623802014,24.0,-39.34247240082494,28.50999999999999,21.02300000000014,13.971000000000004,31.39099999999985,1,1,6,2,0.18459766431883445,-0.2963386377564008,0.8135356716425199,0.04850645462800228,-0.1508909903796663,0.9248997979163276,0.0604435850083298,-0.13990195726175322,0.923965240647892,4.1301775668240275,4.141795628194694,0.9414530897297737,0.9391231002682728,5.539932,6.416397
25,3,6,25.0,Low,100.0,100.0,95.0,2.2351379045144824,1.854238153343589,1.3263386606956409,0.44739968750036496,0.5393050499995298,0.7162574900001346,8,10,8,0,0,2,300.0051000000001,110.54500000000007,27.636250000000018,100.0,0.03618435931068793,4,0,7,40,12,21.710615586412757,24.0,-9.53910172328018,24.285000000000082,23.866999999999962,40.57899999999995,24.736000000000104,1,1,6,2,-0.04888022423010443,-0.26293113460921025,0.8323336994330615,-0.06679556515677183,-0.11903317233324359,0.919857097742192,-0.053931065938410586,-0.11141149761114184,0.9258537407598966,3.9073165303361845,3.923963200517207,0.9312000178094291,0.9233647533811419,5.445892,5.904007
25,4,6,25.0,Low,100.0,100.0,95.0,2.2351379045144824,1.854238153343589,1.3263386606956409,0.44739968750036496,0.5393050499995298,0.7162574900001346,8,10,8,0,0,2,300.0051000000001,67.96299999999997,16.99074999999999,100.0,0.05885555375719144,4,0,5,26,12,22.953665965304662,24.0,-4.3597251445639085,15.667999999999893,10.230999999999995,33.96199999999999,13.578000000000202,1,1,6,2,0.0977222547992989,-0.35058755394147517,0.809691319516383,-0.0006281273897066845,-0.18139091957029616,0.9210703951352125,0.009171398814449276,-0.17160090242077694,0.9221193557161254,4.049489628416083,4.07605436385749,0.9358755821405065,0.9264963090599514,5.435287,5.49173
25,5,6,25.0,Low,100.0,100.0,95.0,2.2351379045144824,1.854238153343589,1.3263386606956409,0.44739968750036496,0.5393050499995298,0.7162574900001346,8,10,8,0,0,2,300.0051000000001,61.66099999999983,15.415249999999958,75.0,0.04865311947584386,3,1,7,14,12,13.62287345323628,24.0,-43.23802727818216,7.5190000000000055,13.005999999999858,14.303000000000111,30.89799999999991,1,1,6,2,0.1369166892825666,-0.25484113593480645,0.809994607136975,0.03890163774548448,-0.1258213770707553,0.9198767811968159,0.0518878199282734,-0.11825659351504254,0.9242515570134504,3.8503224781773264,3.8965502640680763,0.9398236532956354,0.9309550324935493,5.307556,5.190018
25,6,6,25.0,Low,100.0,100.0,95.0,2.2351379045144824,1.854238153343589,1.3263386606956409,0.44739968750036496,0.5393050499995298,0.7162574900001346,8,10,8,0,0,2,300.0051000000001,84.54999999999995,21.13749999999999,100.0,0.04730928444707276,4,0,5,33,12,23.418095801301018,24.0,-2.4246008279124265,12.259999999999991,23.057999999999993,15.65800000000013,39.9699999999998,1,1,6,2,0.03965963205421667,-0.3141380493201714,0.8086606928293065,-0.013930681016268117,-0.16131935043964146,0.9058078455806704,-0.001963768113020733,-0.15247747983632892,0.9105750930787218,3.8714979784879193,3.9145121546375683,0.9309231940706156,0.9249855657706937,5.537827,5.586655
25,7,6,25.0,Low,100.0,100.0,95.0,2.2351379045144824,1.854238153343589,1.3263386606956409,0.44739968750036496,0.5393050499995298,0.7162574900001346,8,10,8,0,0,2,300.0051000000001,61.8280000000002,15.45700000000005,75.0,0.048521705376204795,3,1,7,29,12,28.14258911819878,24.0,17.260787992494922,9.512000000000171,15.567999999999984,20.182000000000016,19.730000000000018,1,1,6,2,0.07773955230714841,-0.291176567671126,0.8366316436092469,-0.014542124801370617,-0.15419048820335268,0.9178784721551082,-0.006283281005349729,-0.14748118249428488,0.9225467553318418,4.037063286055183,4.143103510365399,0.9215556771558538,0.9122185039236389,5.458313,5.408463
25,8,6,25.0,Low,100.0,100.0,95.0,2.2351379045144824,1.854238153343589,1.3263386606956409,0.44739968750036496,0.5393050499995298,0.7162574900001346,8,10,8,0,0,2,300.0051000000001,57.35299999999984,14.33824999999996,50.0,0.034871759105888196,2,2,8,16,12,16.738444370826333,24.0,-30.256481788223617,12.799999999999955,10.722999999999956,14.461000000000013,19.368999999999915,1,1,6,2,0.07670589396984252,-0.24244723950535432,0.8650380423622047,-0.004335696095848594,-0.12537885492458942,0.9297661047244096,0.00714000296824972,-0.11865921987234195,0.9357830381102363,3.892233406974128,3.9767894089988753,0.9347240951226098,0.9217389644724411,5.597031,5.350937
26,1,3,12.5,Low,90.0,75.0,77.5,1.0946690246944022,1.2188287591964289,1.3999634022382619,0.8221663166647583,0.6153448499972001,0.5535859000034785,5,1,1,1,1,2,300.00520000000006,92.70800000000008,23.17700000000002,50.0,0.021573111274107933,2,2,5,59,23,38.18440695517104,46.0,-16.99041966267165,15.444999999999936,9.338999999999942,26.188000000000102,15.071999999999889,6,2,8,9,-0.08866752581830417,-0.17811876476178676,0.6899846488115587,-0.09678925490078823,-0.02115431636916022,0.7665244643331977,-0.09533680035932818,-0.013825548754555694,0.7324431372405372,2.3854819013702344,2.3194311149097815,0.6620546864335505,0.7911560549896893,4.932724,4.966492
26,2,3,12.5,Low,90.0,75.0,77.5,1.0946690246944022,1.2188287591964289,1.3999634022382619,0.8221663166647583,0.6153448499972001,0.5535859000034785,5,1,1,1,1,2,300.00520000000006,36.30400000000009,9.076000000000022,75.0,0.08263552225650046,3,1,4,18,23,29.748788012340164,46.0,-35.32872171230399,12.517000000000053,7.150000000000091,9.916999999999916,11.24499999999989,6,2,8,9,-0.17449100036997586,-0.3481200811882921,0.822272060259505,-0.15698985470307783,-0.10220955624152082,0.9164789577851539,-0.15975724421662643,-0.09531499759849126,0.8906449238080869,2.9582394001207,2.992730742305371,0.8775042784188293,0.9147494571931202,4.712753,4.506714
26,3,3,12.5,Low,90.0,75.0,77.5,1.0946690246944022,1.2188287591964289,1.3999634022382619,0.8221663166647583,0.6153448499972001,0.5535859000034785,5,1,1,1,1,2,300.00520000000006,20.730000000000018,5.1825000000000045,100.0,0.19295706705258064,4,0,2,14,23,40.52098408104194,46.0,-11.91090417164796,7.371000000000095,4.400000000000091,4.44399999999996,11.039999999999964,6,2,8,9,-0.1852844994428862,-0.3009944362901423,0.8349916385162601,-0.1655988863932927,-0.08466301333485772,0.9132898859247968,-0.1725071319237805,-0.06824772988141768,0.88496779375,2.836027399390244,2.8662666575203253,0.850277103011687,0.8741041137322154,3.648117,4.251663
26,4,3,12.5,Low,90.0,75.0,77.5,1.0946690246944022,1.2188287591964289,1.3999634022382619,0.8221663166647583,0.6153448499972001,0.5535859000034785,5,1,1,1,1,2,300.00520000000006,29.748000000000047,7.437000000000012,50.0,0.0672314105149925,2,2,6,17,23,34.288019362646175,46.0,-25.460827472508317,11.088999999999942,3.3220000000001164,6.789999999999964,13.038000000000011,6,2,8,9,-0.20606005086575283,-0.3486838383085502,0.8304664408457249,-0.16362245879507434,-0.11778732839591077,0.9165861856412639,-0.16126016018677045,-0.10846814664010222,0.8938091635687733,2.921130285780669,2.950671480947955,0.8148393304335502,0.8620384047444237,4.371887,4.456512
26,5,3,12.5,Low,90.0,75.0,77.5,1.0946690246944022,1.2188287591964289,1.3999634022382619,0.8221663166647583,0.6153448499972001,0.5535859000034785,5,1,1,1,1,2,300.00520000000006,19.57899999999995,4.894749999999988,50.0,0.10215026303692758,2,2,7,14,23,42.903110475509585,46.0,-6.732368531500901,6.714999999999918,4.0090000000000146,2.910000000000082,14.692000000000007,6,2,8,9,-0.1787803810625674,-0.2749193274158576,0.7548679983818771,-0.15043482475005396,-0.08536482655931499,0.8255283362459548,-0.1505663913139051,-0.07637923893300969,0.7927490971413161,2.5017671348435813,2.472483535598706,0.7266251255458468,0.7573814988175835,4.320694,4.125229
26,6,3,12.5,Low,90.0,75.0,77.5,1.0946690246944022,1.2188287591964289,1.3999634022382619,0.8221663166647583,0.6153448499972001,0.5535859000034785,5,1,1,1,1,2,300.00520000000006,35.20699999999988,8.80174999999997,25.0,0.02840344249723076,1,3,6,29,23,49.42198994518152,46.0,7.439108576481571,21.10699999999997,5.097999999999956,4.248000000000047,8.98700000000008,6,2,8,9,-0.14138513221082322,-0.370671651738242,0.7255695214496556,-0.14941465424736633,-0.14989999403575763,0.8467441029845852,-0.15673763829465398,-0.13907968948386357,0.8103796324368645,2.7488837999344047,2.750941188586422,0.782673369819285,0.8237519157044934,4.677414,4.47139
26,7,3,12.5,Low,90.0,75.0,77.5,1.0946690246944022,1.2188287591964289,1.3999634022382619,0.8221663166647583,0.6153448499972001,0.5535859000034785,5,1,1,1,1,2,300.00520000000006,24.67599999999993,6.168999999999983,75.0,0.12157562003566252,3,1,4,14,23,34.041173609985506,46.0,-25.99744867394455,9.685999999999922,2.9449999999999363,7.858999999999924,7.319000000000187,6,2,8,9,-0.21821276429000475,-0.25669775186072946,0.7441637520606348,-0.1713815661048792,-0.06580345304594977,0.8411502077214591,-0.1750965633498342,-0.05180757841155851,0.7935256885362388,2.64849945333965,2.5673003477025103,0.7776009244334439,0.8305917394031265,4.056,4.414505
26,8,3,12.5,Low,90.0,75.0,77.5,1.0946690246944022,1.2188287591964289,1.3999634022382619,0.8221663166647583,0.6153448499972001,0.5535859000034785,5,1,1,1,1,2,300.00520000000006,17.028999999999996,4.257249999999999,50.0,0.11744670855599275,2,2,5,6,23,21.140407540078694,46.0,-54.04259230417675,7.155999999999949,3.0429999999998927,3.421000000000049,3.4090000000001055,6,2,8,9,-0.03721389845804003,-0.3863721422815735,0.8094797028295377,-0.08351150725189786,-0.13145407350621116,0.9318080457556938,-0.08663956130752241,-0.12774841885951002,0.9193567348516218,3.0251711297446513,3.0852441338854377,0.9017950902201519,0.9443571899930987,3.687088,4.246872
27,1,7,29.17,Low,100.0,97.5,87.5,2.6453997688465996,1.9007462055000683,1.1221514360665785,0.3780146999997669,0.5129564363609957,0.779752154546176,8,10,7,0,1,4,300.00290000000007,95.71799999999985,23.929499999999962,75.0,0.03134206732276066,3,1,4,14,3,8.775778850372985,6.0,46.262980839549755,27.794999999999845,19.93600000000015,27.14300000000003,15.983999999999924,3,2,5,2,0.06372289383031285,-0.11720979500072409,0.8519819857605178,-0.0033791936601865087,-0.09721884762210763,0.9228457944039914,0.02846865143730461,-0.09926877519954153,0.9122210208333333,3.3302314046655876,3.0651478639428262,0.9086215715142935,0.9299521260539375,4.413849,4.102158
27,2,7,29.17,Low,100.0,97.5,87.5,2.6453997688465996,1.9007462055000683,1.1221514360665785,0.3780146999997669,0.5129564363609957,0.779752154546176,8,10,7,0,1,4,300.00290000000007,124.80700000000002,31.201750000000004,100.0,0.03204948440391965,4,0,5,22,3,10.576329853293483,6.0,76.27216422155806,21.276000000000067,27.736999999999853,43.875,38.932000000000016,3,2,5,2,0.09109559642555434,-0.1883278458322371,0.8281154737351517,0.009235428102465462,-0.13246371808349097,0.9140928641113066,0.03498048094042125,-0.13480315082470412,0.90482474683238,3.4196680361856577,3.1388409675538935,0.9073116518984821,0.9263141362184337,4.234924,4.647552
27,3,7,29.17,Low,100.0,97.5,87.5,2.6453997688465996,1.9007462055000683,1.1221514360665785,0.3780146999997669,0.5129564363609957,0.779752154546176,8,10,7,0,1,4,300.00290000000007,142.36300000000006,35.590750000000014,100.0,0.028097188173893485,4,0,6,35,3,14.751023791294081,6.0,145.85039652156803,50.31600000000003,31.962999999999965,23.256000000000085,40.281999999999925,3,2,5,2,0.06441277376286544,-0.11632293748439221,0.8835385670099667,0.009218836513561462,-0.08013720752312034,0.9397568156063123,0.03328226437045839,-0.07463127508114618,0.9354616324169436,3.4519078553156146,3.23234016627907,0.9471844442785714,0.9573526068388704,4.33989,4.284012
27,4,7,29.17,Low,100.0,97.5,87.5,2.6453997688465996,1.9007462055000683,1.1221514360665785,0.3780146999997669,0.5129564363609957,0.779752154546176,8,10,7,0,1,4,300.00290000000007,98.53300000000013,24.633250000000032,75.0,0.030446652390569616,3,1,6,29,3,17.659058386530376,6.0,194.31763977550628,19.207000000000107,39.65599999999995,22.88799999999992,20.024000000000115,3,2,5,2,0.08271519614227053,-0.17102112917311982,0.8468310097777778,0.027929099041565215,-0.12465963093288493,0.9265585106376811,0.05468211756918068,-0.11547078169359226,0.9190112458067634,3.460827820869565,3.2332890579710143,0.9289829197294687,0.9466520160231884,4.309311,4.236328
27,5,7,29.17,Low,100.0,97.5,87.5,2.6453997688465996,1.9007462055000683,1.1221514360665785,0.3780146999997669,0.5129564363609957,0.779752154546176,8,10,7,0,1,4,300.00290000000007,126.40899999999988,31.60224999999997,100.0,0.03164331653600617,4,0,6,25,3,11.866243701002313,6.0,97.77072835003855,20.34699999999998,36.975999999999885,27.616000000000213,44.41299999999978,3,2,5,2,0.07884884521843939,-0.14252325758186452,0.8719333336596471,0.016864327115075694,-0.11281492286255435,0.9342921913033579,0.05734277726306203,-0.1041973495329926,0.9289816796471257,3.4157072244735347,3.24504356232214,0.9454603630643141,0.9631476406033012,4.356094,4.330246
27,6,7,29.17,Low,100.0,97.5,87.5,2.6453997688465996,1.9007462055000683,1.1221514360665785,0.3780146999997669,0.5129564363609957,0.779752154546176,8,10,7,0,1,4,300.00290000000007,115.32500000000005,28.83125000000001,75.0,0.026013440277476686,3,1,6,23,3,11.966182527639276,6.0,99.4363754606546,28.220000000000027,37.30000000000018,19.187999999999874,34.49800000000005,3,2,5,2,-0.02430391483467908,-0.13453145146194775,0.9053446969250718,-0.0190609168359924,-0.1072948990983625,0.945871419070112,0.03096969338471696,-0.09047333755974069,0.9397152494396591,3.3747087884597566,3.3047113911271646,0.9474688734398445,0.9564992476968603,4.357468,4.267334
27,7,7,29.17,Low,100.0,97.5,87.5,2.6453997688465996,1.9007462055000683,1.1221514360665785,0.3780146999997669,0.5129564363609957,0.779752154546176,8,10,7,0,1,4,300.00290000000007,114.34300000000007,28.58575000000002,100.0,0.03498246503939898,4,0,7,23,3,12.068950438592648,6.0,101.14917397654412,22.473999999999933,25.15800000000013,46.09899999999993,22.376999999999953,3,2,5,2,0.02884580313096738,-0.17285782606389563,0.8781541369804288,0.0015574641471808026,-0.13484573644859915,0.9412667800465985,0.04034810385169059,-0.12444762270955806,0.9342588414445481,3.4306694451071764,3.260245092823858,0.9477156577194781,0.9518655573522832,4.235611,4.247192
27,8,7,29.17,Low,100.0,97.5,87.5,2.6453997688465996,1.9007462055000683,1.1221514360665785,0.3780146999997669,0.5129564363609957,0.779752154546176,8,10,7,0,1,4,300.00290000000007,113.72600000000011,28.431500000000028,100.0,0.03517225612436906,4,0,7,12,3,6.331006102386432,6.0,5.516768373107203,33.04600000000005,26.454999999999927,22.98700000000008,31.238000000000056,3,2,5,2,0.012817717659407134,-0.07436530081540992,0.893742335919407,-0.026464436997461212,-0.07826587583699397,0.9533423839624826,0.01221548502509171,-0.07547619052411335,0.9424706494673459,3.5384380992357567,3.3292034920101896,0.9531490160490967,0.9583674029805465,4.672531,4.340668
28,1,13,54.17,High,100.0,97.5,92.5,2.374313771393278,1.8024412634042086,1.1658912754419282,0.4211743249979918,0.5409330222270606,0.7933844428584312,8,9,6,0,0,1,300.0033000000001,122.1110000000001,30.527750000000026,100.0,0.03275708167159385,4,0,7,50,6,24.567811253695385,12.0,104.73176044746155,28.336000000000013,17.57400000000007,29.03800000000001,21.138999999999896,4,2,6,3,-0.020519149470254325,-0.07643729896328275,0.7873551421810215,-0.03161824743451485,-0.08804225296650565,0.8661055326031203,-0.00878732625565901,-0.09985609055645661,0.8632690256892498,4.029443212331695,4.02292432282539,0.9062161548721949,0.9010081290752084,5.478394,5.672531
28,2,13,54.17,High,100.0,97.5,92.5,2.374313771393278,1.8024412634042086,1.1658912754419282,0.4211743249979918,0.5409330222270606,0.7933844428584312,8,9,6,0,0,1,300.0033000000001,73.65000000000009,18.412500000000023,75.0,0.0407331975560081,3,1,5,25,6,20.366598778004047,12.0,69.72165648336706,16.391000000000076,10.858999999999924,26.28800000000001,23.411000000000058,4,2,6,3,-0.0437950286505299,-0.027848908953720924,0.8773366742358804,-0.02007437978900216,-0.061618812536792356,0.9186198434219269,-0.011701208536637876,-0.07173699266875083,0.918773464551495,4.3404268986710965,4.424769668272425,0.9272879377740864,0.9190717418006645,5.691193,5.888336
28,3,13,54.17,High,100.0,97.5,92.5,2.374313771393278,1.8024412634042086,1.1658912754419282,0.4211743249979918,0.5409330222270606,0.7933844428584312,8,9,6,0,0,1,300.0033000000001,82.77800000000002,20.694500000000005,75.0,0.03624151344560148,3,1,6,28,6,20.295247529536827,12.0,69.12706274614023,27.833000000000084,16.50799999999981,16.578000000000202,25.163999999999987,4,2,6,3,-0.040992618394742046,-0.036290815671248366,0.8763770730417091,-0.040578852188500485,-0.074255680157823,0.9155870786077605,-0.024681984976667633,-0.08702599648873566,0.9158061304461561,4.555454999273362,4.582470306496149,0.9470905844891729,0.928921173008429,5.861557,6.311981
28,4,13,54.17,High,100.0,97.5,92.5,2.374313771393278,1.8024412634042086,1.1658912754419282,0.4211743249979918,0.5409330222270606,0.7933844428584312,8,9,6,0,0,1,300.0033000000001,76.33799999999997,19.08449999999999,75.0,0.039298907490371786,3,1,7,33,6,25.93727894364538,12.0,116.14399119704484,31.09699999999998,17.227999999999838,11.097000000000207,19.04599999999982,4,2,6,3,0.0022040311827546777,-0.006273452916748814,0.8456690294756394,-0.021508421326409486,-0.05262177464174297,0.911494965009287,-0.0021916924774882125,-0.06819756471314632,0.9096565684669239,4.508377192313188,4.493507792827547,0.9398472024303473,0.9194307121608801,5.792374,5.980469
28,5,13,54.17,High,100.0,97.5,92.5,2.374313771393278,1.8024412634042086,1.1658912754419282,0.4211743249979918,0.5409330222270606,0.7933844428584312,8,9,6,0,0,1,300.0033000000001,104.17000000000007,26.042500000000018,75.0,0.028799078429490237,3,1,7,31,6,17.85542862628395,12.0,48.79523855236624,23.48700000000008,44.603000000000065,11.513999999999896,26.304000000000087,4,2,6,3,0.06532671878657179,-0.043282058621228595,0.816035125797905,0.010781074441451634,-0.07870697681741344,0.9095996942205792,0.03161501954562661,-0.09141728675216389,0.909212397646334,4.597129806777572,4.605173713616759,0.9414869182513863,0.9229129802791127,5.705109,5.997284
28,6,13,54.17,High,100.0,97.5,92.5,2.374313771393278,1.8024412634042086,1.1658912754419282,0.4211743249979918,0.5409330222270606,0.7933844428584312,8,9,6,0,0,1,300.0033000000001,63.488000000000056,15.872000000000014,75.0,0.04725302419354835,3,1,6,17,6,16.066028225806438,12.0,33.88356854838698,20.575000000000045,16.519000000000005,11.911999999999807,16.83699999999999,4,2,6,3,-0.08346031655462448,-0.06638978363638717,0.8823865671738427,-0.05075695461486242,-0.09793550996533507,0.9328425722078343,-0.03135060413117514,-0.11031916034525525,0.9340306672062155,4.811452928941406,4.810387625606992,0.970815678964066,0.9623851578845906,5.935059,6.388428
28,7,13,54.17,High,100.0,97.5,92.5,2.374313771393278,1.8024412634042086,1.1658912754419282,0.4211743249979918,0.5409330222270606,0.7933844428584312,8,9,6,0,0,1,300.0033000000001,72.56000000000017,18.140000000000043,100.0,0.05512679162072754,4,0,6,24,6,19.845644983461916,12.0,65.38037486218263,17.5300000000002,15.755999999999858,19.125999999999976,23.042000000000144,4,2,6,3,-0.05339896643265017,-0.05834490864423299,0.8355980685007837,-0.02986614822150269,-0.10634876245228278,0.904835484885948,-0.012834971161344248,-0.11213257909682224,0.9060366150792268,4.609469160717395,4.652880664112834,0.9429135326310291,0.9259807479647049,5.909973,5.989044
28,8,13,54.17,High,100.0,97.5,92.5,2.374313771393278,1.8024412634042086,1.1658912754419282,0.4211743249979918,0.5409330222270606,0.7933844428584312,8,9,6,0,0,1,300.0033000000001,75.49900000000002,18.874750000000006,100.0,0.052980834183234196,4,0,7,27,6,21.45723784420985,12.0,78.81031536841542,18.529999999999973,20.462999999999965,21.24000000000001,15.266000000000076,4,2,6,3,-0.04120266554253378,-0.105049901269279,0.8080522424679387,-0.036133304006833435,-0.11073518230467597,0.8976987802158274,-0.015436985144605883,-0.12436599899007116,0.8989178121989366,4.623079633406318,4.632230272599312,0.9404809356255864,0.9325142730175164,5.616776,6.098495
29,1,20,83.33,High,100.0,97.5,100.0,2.6438628210653636,2.4636754567573007,1.3827098322970555,0.37823444999958156,0.3957501777784071,0.7232175375065708,8,9,8,0,0,0,300.0009,124.09399999999994,31.023499999999984,100.0,0.03223362934549617,4,0,5,56,10,27.076248650216787,20.0,35.38124325108393,34.20399999999995,28.8420000000001,27.139999999999873,24.067999999999984,2,2,6,3,-0.04571641743535467,0.14877995908098007,0.8287881777986923,-0.04901323052873073,0.02319588948654943,0.88039755031702,-0.04263784760915187,0.007964060527192392,0.8929617339607689,3.7427243380225876,3.537283715870814,0.9024906279066772,0.8898222337695958,5.146759,5.219299
29,2,20,83.33,High,100.0,97.5,100.0,2.6438628210653636,2.4636754567573007,1.3827098322970555,0.37823444999958156,0.3957501777784071,0.7232175375065708,8,9,8,0,0,0,300.0009,78.50099999999998,19.625249999999994,100.0,0.050954764907453425,4,0,6,26,10,19.872358313906837,20.0,-0.6382084304658164,20.567000000000007,11.694999999999936,12.288000000000011,38.134000000000015,2,2,6,3,-0.030130788423155457,0.014204354382851725,0.8708724833157563,-0.023727039808489767,-0.0554568779114807,0.9083384785066442,-0.009734706650942837,-0.07137739042486184,0.9164517313225057,3.9605280381776,3.66598095296351,0.9512414707234761,0.9345014258932716,5.100433,4.745621
29,3,20,83.33,High,100.0,97.5,100.0,2.6438628210653636,2.4636754567573007,1.3827098322970555,0.37823444999958156,0.3957501777784071,0.7232175375065708,8,9,8,0,0,0,300.0009,110.10900000000015,27.527250000000038,100.0,0.03632763897592381,4,0,6,50,10,27.245729231942853,20.0,36.228646159714266,32.10100000000011,31.394000000000005,32.08999999999992,17.662000000000035,2,2,6,3,0.04604318281725093,-0.03103191725530154,0.8618504669723153,0.02072947293446103,-0.08956099624794611,0.9159948186386881,0.03879398614439605,-0.10142978664162405,0.9221896305237173,4.159992801093282,3.806547122112502,0.9461010504849232,0.9365774115036151,5.527069,4.963669
29,4,20,83.33,High,100.0,97.5,100.0,2.6438628210653636,2.4636754567573007,1.3827098322970555,0.37823444999958156,0.3957501777784071,0.7232175375065708,8,9,8,0,0,0,300.0009,104.36300000000006,26.090750000000014,100.0,0.038327759838256835,4,0,6,42,10,24.146488698101805,20.0,20.732443490509027,33.184999999999945,18.28300000000013,27.35199999999986,38.11500000000001,2,2,6,3,0.04684817113111246,-0.027168062222877543,0.8587778709535452,0.002597981906906724,-0.08165032247034867,0.9055816239364304,0.022227927330418087,-0.09504264212553422,0.9135025144987775,4.0715178223716375,3.7121325694376526,0.9422116352212715,0.929934985415648,5.386734,4.924866
29,5,20,83.33,High,100.0,97.5,100.0,2.6438628210653636,2.4636754567573007,1.3827098322970555,0.37823444999958156,0.3957501777784071,0.7232175375065708,8,9,8,0,0,0,300.0009,127.79099999999994,31.947749999999985,75.0,0.023475831631335552,3,1,7,65,10,30.518581120736215,20.0,52.592905603681075,30.192999999999984,47.96600000000012,19.346000000000004,32.77299999999991,2,2,6,3,0.025638324519863264,-0.003965221712931768,0.863965504303774,-0.01854446700117959,-0.06780988906417094,0.9001258315114335,0.0066081098193517375,-0.07789255848102808,0.9072900215002788,4.253464395798476,3.827176263989589,0.930636739274958,0.9228636345454546,5.700241,5.123901
29,6,20,83.33,High,100.0,97.5,100.0,2.6438628210653636,2.4636754567573007,1.3827098322970555,0.37823444999958156,0.3957501777784071,0.7232175375065708,8,9,8,0,0,0,300.0009,101.1880000000001,25.297000000000025,75.0,0.02964778432225162,3,1,6,43,10,25.497094517136393,20.0,27.485472585681965,21.27500000000009,27.669999999999845,22.688000000000102,34.91399999999999,2,2,6,3,-0.033200591810632264,-0.07217253125690562,0.8750577858325771,-0.057370731517976406,-0.10833930210167649,0.914136501758167,-0.031421669156541515,-0.11821578052459959,0.9219878027676951,4.205521543330309,3.783074324523594,0.9503299333495917,0.9444543180214382,5.459427,4.973694
29,7,20,83.33,High,100.0,97.5,100.0,2.6438628210653636,2.4636754567573007,1.3827098322970555,0.37823444999958156,0.3957501777784071,0.7232175375065708,8,9,8,0,0,0,300.0009,103.68599999999992,25.92149999999998,75.0,0.028933510792199548,3,1,7,57,10,32.98420230310748,20.0,64.9210115155374,22.222999999999956,23.82400000000007,38.95100000000002,21.357999999999947,2,2,6,3,-0.047174003707337715,-0.08117368739605546,0.8631257757566705,-0.050187711632965946,-0.11459214658191956,0.8998731853942652,-0.02338321589155934,-0.12652768870039527,0.9074975734169654,4.1998567303863,3.733563155913979,0.9314118544643568,0.9319344707297889,5.592484,4.968658
29,8,20,83.33,High,100.0,97.5,100.0,2.6438628210653636,2.4636754567573007,1.3827098322970555,0.37823444999958156,0.3957501777784071,0.7232175375065708,8,9,8,0,0,0,300.0009,103.03700000000003,25.75925000000001,100.0,0.038821006046371676,4,0,7,26,10,15.140192358084954,20.0,-24.299038209575226,18.15599999999995,19.990999999999985,31.332000000000107,33.55799999999999,2,2,6,3,-0.051894735559922626,-0.024904370108137976,0.8548570493745971,-0.04368138201896184,-0.08788611557059446,0.926779972985171,-0.01742845104837911,-0.0961032526316802,0.931929210070922,4.30753140541586,3.853830284719536,0.9501340331502257,0.9480207052782721,5.618301,5.082047
30,1,13,54.17,High,97.5,100.0,100.0,2.6512892895437914,1.8800045014802864,1.7621044461082507,0.3677456111052177,0.5319136200007051,0.5675032499966619,8,10,8,1,0,0,300.0096000000001,146.03500000000008,36.50875000000002,75.0,0.02054302050878213,3,1,4,41,1,16.84527681720135,2.0,742.2638408600674,44.875999999999976,28.49500000000012,29.676999999999907,25.876999999999953,4,2,6,1,-0.011082889009697868,0.026455360850461938,0.7723118426852789,0.007949847067183392,0.006126265013578747,0.8939013135090458,-0.09489000465525302,-0.024164064396739827,0.905704456598402,3.287437780328772,3.2227754903113235,0.9297143800117551,0.8943993821447331,4.556732,4.446045
30,2,13,54.17,High,97.5,100.0,100.0,2.6512892895437914,1.8800045014802864,1.7621044461082507,0.3677456111052177,0.5319136200007051,0.5675032499966619,8,10,8,1,0,0,300.0096000000001,89.07300000000009,22.268250000000023,75.0,0.033680239803307366,3,1,5,31,1,20.881748678050567,2.0,944.0874339025283,18.34900000000016,23.15300000000002,22.05699999999979,28.2650000000001,4,2,6,1,0.0762330610214566,-0.11495942692853661,0.8065766729118722,0.05065136992305537,-0.05952509834830377,0.8982550980370921,-0.04964362122378503,-0.10111805572580479,0.9194004502910519,3.545505290510356,3.4654080162447536,0.9525588162840124,0.9057297416528767,4.926147,4.294098
30,3,13,54.17,High,97.5,100.0,100.0,2.6512892895437914,1.8800045014802864,1.7621044461082507,0.3677456111052177,0.5319136200007051,0.5675032499966619,8,10,8,1,0,0,300.0096000000001,130.21800000000007,32.55450000000002,100.0,0.030717719516503077,4,0,5,37,1,17.04833433165921,2.0,752.4167165829605,49.30099999999993,19.860000000000127,36.60299999999984,28.363000000000056,4,2,6,1,0.010830862462703011,-0.04534555468206183,0.8006908519517524,0.01578071359372685,-0.03950989594307057,0.9148124733213031,-0.08741685591123752,-0.0768814517586504,0.9132928350460633,3.6248670167157377,3.482880122613733,0.9404160547225756,0.920372480554687,4.69986,4.52507
30,4,13,54.17,High,97.5,100.0,100.0,2.6512892895437914,1.8800045014802864,1.7621044461082507,0.3677456111052177,0.5319136200007051,0.5675032499966619,8,10,8,1,0,0,300.0096000000001,90.36200000000008,22.59050000000002,100.0,0.044266395166109605,4,0,5,30,1,19.919877824749324,2.0,895.9938912374662,18.413999999999987,18.083000000000084,32.63799999999992,23.69600000000014,4,2,6,1,-0.008340925651771981,-0.07061907468407898,0.7902174582038216,0.011945647810315924,-0.06321570052530573,0.9093305111082803,-0.0898795801593172,-0.09884199182872243,0.9022061676305732,3.631774572866242,3.4769007812738852,0.9314769309852484,0.9237953462076434,4.72998,4.842896
30,5,13,54.17,High,97.5,100.0,100.0,2.6512892895437914,1.8800045014802864,1.7621044461082507,0.3677456111052177,0.5319136200007051,0.5675032499966619,8,10,8,1,0,0,300.0096000000001,91.13400000000001,22.783500000000004,100.0,0.04389141264511598,4,0,6,31,1,20.40950687997893,2.0,920.4753439989465,30.139999999999873,22.38499999999999,18.292000000000144,21.755999999999858,4,2,6,1,0.10460093816319722,-0.003129396237812891,0.7741103016927939,0.07475108573762453,-0.029793095927423515,0.9006147175853351,-0.026493434692709223,-0.06683522628603539,0.9026802999620733,3.6318899067003794,3.489550764475348,0.9264824805424778,0.9270140559475348,4.605942,4.360184
30,6,13,54.17,High,97.5,100.0,100.0,2.6512892895437914,1.8800045014802864,1.7621044461082507,0.3677456111052177,0.5319136200007051,0.5675032499966619,8,10,8,1,0,0,300.0096000000001,94.62800000000016,23.65700000000004,75.0,0.031703089994504746,3,1,6,22,1,13.949359597582088,2.0,597.4679798791044,19.968000000000075,31.677999999999884,20.95400000000018,26.520999999999958,4,2,6,1,0.006709558163371289,-0.019190581939408088,0.7811086106156926,0.02139180320798399,-0.042453634261148794,0.9112391415592541,-0.08135288485242148,-0.0796925297595958,0.9083250527343262,3.7255340421724443,3.539334850707046,0.9476962575424853,0.9254142575407334,4.586639,4.338104
30,7,13,54.17,High,97.5,100.0,100.0,2.6512892895437914,1.8800045014802864,1.7621044461082507,0.3677456111052177,0.5319136200007051,0.5675032499966619,8,10,8,1,0,0,300.0096000000001,142.89200000000005,35.72300000000001,50.0,0.01399658483330067,2,2,7,41,1,17.215799344959823,2.0,760.7899672479912,35.277000000000044,28.176999999999907,46.28500000000008,34.68899999999985,4,2,6,1,0.017479462834554985,-0.022898210500283598,0.7630347133315881,0.020581742637076784,-0.05287222429955759,0.903924429712042,-0.08133444026241275,-0.087469970811911,0.8999995571465967,3.769056390314136,3.5824343126527047,0.9294708952594765,0.9099875128378883,4.653534,4.472809
30,8,13,54.17,High,97.5,100.0,100.0,2.6512892895437914,1.8800045014802864,1.7621044461082507,0.3677456111052177,0.5319136200007051,0.5675032499966619,8,10,8,1,0,0,300.0096000000001,95.5440000000001,23.886000000000024,100.0,0.04186552792430708,4,0,6,30,1,18.839487565938185,2.0,841.9743782969092,37.65000000000009,17.368999999999915,14.490999999999985,26.034000000000106,4,2,6,1,0.027614939590117016,0.05510215517839114,0.7329305865169737,0.03969532646383964,-0.013393186268437031,0.8986866267987487,-0.06273262192270884,-0.04626487407355,0.8941660283976365,3.7181573909164642,3.5070819609546984,0.9348505379888773,0.9293151885922837,5.825348,4.473694
31,1,8,33.33,Low,100.0,100.0,95.0,2.3877394593014216,2.2205061164065625,1.4098736837771204,0.4188061625000614,0.4503477799999473,0.6738192300000264,8,10,8,0,0,2,300.00569999999993,165.7059999999999,41.426499999999976,50.0,0.012069568995691171,2,2,6,65,7,23.53565954159778,14.0,68.11185386855557,50.057000000000016,33.16899999999987,39.531999999999925,18.680000000000064,3,4,8,1,-0.0836531570238554,-0.13236227959062527,0.8566369094384354,-0.08070750907256186,-0.060479551690807515,0.9109451963031561,-0.07020350371355237,-0.0700376057962387,0.911104567884131,3.718317790709735,3.856479907764113,0.9622637193369387,0.9630118200822345,4.831177,4.962585
31,2,8,33.33,Low,100.0,100.0,95.0,2.3877394593014216,2.2205061164065625,1.4098736837771204,0.4188061625000614,0.4503477799999473,0.6738192300000264,8,10,8,0,0,2,300.00569999999993,93.20100000000002,23.300250000000005,100.0,0.04291799444211971,4,0,4,47,7,30.2571860816944,14.0,116.12275772638856,30.260999999999967,23.723000000000184,18.965999999999894,45.82400000000007,3,4,8,1,-0.058823650299222034,-0.24049230666771876,0.8245359180232559,-0.06310453642388011,-0.12499926865842936,0.8864384189784054,-0.06469817512163621,-0.13933035895354376,0.8686406582225914,3.7732027371262458,3.9707009335548173,0.9291839686052602,0.9285632485174419,4.854874,5.592865
31,3,8,33.33,Low,100.0,100.0,95.0,2.3877394593014216,2.2205061164065625,1.4098736837771204,0.4188061625000614,0.4503477799999473,0.6738192300000264,8,10,8,0,0,2,300.00569999999993,93.96100000000001,23.490250000000003,75.0,0.031928140398676044,3,1,5,60,7,38.31376847841125,14.0,173.66977484579462,27.102999999999838,38.889000000000124,12.910000000000082,19.798999999999978,3,4,8,1,-0.028035589342392832,-0.22804443638496488,0.8313469597563833,-0.04125895947681073,-0.11269262002660108,0.8922966414265635,-0.05085760151068634,-0.14226324895479972,0.8796502652377607,3.715735577652846,4.155462651674864,0.8795377277125792,0.9100778046245023,4.809921,6.150787
31,4,8,33.33,Low,100.0,100.0,95.0,2.3877394593014216,2.2205061164065625,1.4098736837771204,0.4188061625000614,0.4503477799999473,0.6738192300000264,8,10,8,0,0,2,300.00569999999993,110.29599999999982,27.573999999999955,100.0,0.03626604772611887,4,0,4,54,7,29.375498658156282,14.0,109.82499041540201,44.91099999999983,22.85900000000015,32.27599999999984,14.855000000000018,3,4,8,1,-0.0015795281739973603,-0.23839024667048678,0.8381133595162771,-0.02923498445662884,-0.11201067006345954,0.9051986258291662,-0.027846685321581795,-0.14093980482455964,0.8967778870701093,3.846428362996224,4.183153674252475,0.9482826085018878,0.9547444659435657,5.222488,5.516052
31,5,8,33.33,Low,100.0,100.0,95.0,2.3877394593014216,2.2205061164065625,1.4098736837771204,0.4188061625000614,0.4503477799999473,0.6738192300000264,8,10,8,0,0,2,300.00569999999993,100.25400000000013,25.063500000000033,75.0,0.02992399305763357,3,1,5,45,7,26.931593751870217,14.0,92.36852679907298,26.399000000000115,33.88499999999999,16.791999999999916,26.60200000000009,3,4,8,1,0.01792329943860591,-0.21871203343968046,0.803931744182284,-0.009423327616872115,-0.11691126773201024,0.8904424398274235,-0.004750542788817579,-0.14474265966467303,0.8843453144802481,3.761325921396791,3.995619237697182,0.9505487246730484,0.9435399183814211,5.099869,5.352951
31,6,8,33.33,Low,100.0,100.0,95.0,2.3877394593014216,2.2205061164065625,1.4098736837771204,0.4188061625000614,0.4503477799999473,0.6738192300000264,8,10,8,0,0,2,300.00569999999993,84.39200000000005,21.098000000000013,50.0,0.023698928808417844,2,2,5,49,7,34.83742534837423,14.0,148.83875248838737,20.176999999999907,29.08699999999999,19.34699999999998,18.951000000000022,3,4,8,1,0.055015041163406865,-0.277612824042642,0.8112389905151915,0.0013006694323632758,-0.1444469005700753,0.88842126001321,0.0030952113584544255,-0.1593726526247424,0.8822681089828269,3.633327294715984,3.930276694319683,0.9257790787297226,0.947831791135535,4.703369,5.040009
31,7,8,33.33,Low,100.0,100.0,95.0,2.3877394593014216,2.2205061164065625,1.4098736837771204,0.4188061625000614,0.4503477799999473,0.6738192300000264,8,10,8,0,0,2,300.00569999999993,96.22900000000004,24.05725000000001,75.0,0.03117563312514937,3,1,5,51,7,31.799145787652357,14.0,127.13675562608826,24.730000000000018,25.822000000000116,26.442999999999984,23.330999999999904,3,4,8,1,0.05257947163575094,-0.2871002383429937,0.7981566178490567,-0.004453473978525658,-0.16174140338739496,0.8786772697106919,-0.0046014413218515736,-0.17933471166976353,0.875948857836478,3.544258814842767,3.84845116327044,0.8904394399735849,0.9212836760880503,4.566162,4.994583
31,8,8,33.33,Low,100.0,100.0,95.0,2.3877394593014216,2.2205061164065625,1.4098736837771204,0.4188061625000614,0.4503477799999473,0.6738192300000264,8,10,8,0,0,2,300.00569999999993,106.95100000000025,26.737750000000062,50.0,0.01870015240624207,2,2,6,56,7,31.41625604248667,14.0,124.40182887490478,28.076999999999998,15.825000000000045,30.852999999999838,32.19600000000037,3,4,8,1,0.05397717817312483,-0.2162541933006017,0.7781526358635282,-0.0015996419292382978,-0.1123276370900939,0.8756496752843163,0.005629134643169795,-0.12969790250344604,0.8568236028431633,3.4918660852948955,3.668236036895001,0.9133449978790003,0.9464675180653266,4.780975,4.973969
32,1,9,37.5,Low,100.0,97.5,87.5,2.475174311065001,1.4972179131809973,0.9344573734257118,0.40401194999867585,0.6512078111118171,0.936372299992945,8,9,4,0,0,1,300.0008,167.163,41.79075,50.0,0.011964370105824853,2,2,6,42,5,15.075106333339315,10.0,50.751063333393155,42.49000000000001,26.687999999999874,38.403999999999996,19.294000000000096,4,1,5,2,-0.11722859810851742,0.021628105547014314,0.872707980619586,-0.09614467202405962,-0.04723119881360153,0.929706462582587,-0.09636640590479387,-0.05072070601222507,0.9311281330054323,3.256680395683453,2.7882653042137724,0.8409915629508883,0.699093875139947,4.467346,3.52861
32,2,9,37.5,Low,100.0,97.5,87.5,2.475174311065001,1.4972179131809973,0.9344573734257118,0.40401194999867585,0.6512078111118171,0.936372299992945,8,9,4,0,0,1,300.0008,136.21800000000007,34.05450000000002,75.0,0.022023521120556742,3,1,4,30,5,13.214112672334046,10.0,32.14112672334046,36.559999999999945,30.74500000000012,46.17699999999991,29.75299999999993,4,1,5,2,-0.018899123111329186,-0.10470648678573033,0.9000924016936466,-0.05410804440799279,-0.10758945364159819,0.9422035727145128,-0.06629561247592403,-0.11655138657291289,0.943630977776738,3.786170010105736,3.135522702442219,0.852335180039955,0.760397143451951,4.820114,3.796356
32,3,9,37.5,Low,100.0,97.5,87.5,2.475174311065001,1.4972179131809973,0.9344573734257118,0.40401194999867585,0.6512078111118171,0.936372299992945,8,9,4,0,0,1,300.0008,130.4480000000001,32.61200000000002,100.0,0.030663559425978145,4,0,4,33,5,15.178461915859183,10.0,51.78461915859182,31.910000000000082,38.96900000000005,26.607999999999947,38.47000000000003,4,1,5,2,-0.13354040474898124,-0.028682248719588802,0.810564654787596,-0.09719608189448235,-0.07112487202916042,0.9229296693982697,-0.11151972069718383,-0.0795189912283312,0.9220264504617478,3.8324532577038983,3.1603132476912608,0.8254430496947603,0.8015808224698163,4.740814,3.785919
32,4,9,37.5,Low,100.0,97.5,87.5,2.475174311065001,1.4972179131809973,0.9344573734257118,0.40401194999867585,0.6512078111118171,0.936372299992945,8,9,4,0,0,1,300.0008,144.55600000000004,36.13900000000001,100.0,0.027670937214643452,4,0,6,30,5,12.451921746589555,10.0,24.51921746589555,44.10200000000009,34.521999999999935,44.330999999999904,25.73199999999997,4,1,5,2,-0.15534633843686732,-0.05651945270364336,0.789344551016059,-0.10278153073651419,-0.08659266245762234,0.9208089416241724,-0.11417697051736053,-0.09310455114460461,0.9201973799528121,3.9773135708958063,3.237596392267296,0.796939942251054,0.8604406604405814,4.926529,3.973724
32,5,9,37.5,Low,100.0,97.5,87.5,2.475174311065001,1.4972179131809973,0.9344573734257118,0.40401194999867585,0.6512078111118171,0.936372299992945,8,9,4,0,0,1,300.0008,144.73700000000008,36.18425000000002,50.0,0.01381816674381809,2,2,8,42,5,17.410890097210796,10.0,74.10890097210796,45.003000000000156,38.947999999999865,13.7650000000001,52.375999999999976,4,1,5,2,-0.15326562656609397,-0.04435801128428801,0.7939296368060382,-0.10149818250349786,-0.08894010814784882,0.9029689725692719,-0.11313267198629666,-0.09415402246786952,0.9019805798391103,3.8332784831661533,3.1047623200913694,0.8361816318532129,0.6531356168130102,4.829483,3.810837
32,6,9,37.5,Low,100.0,97.5,87.5,2.475174311065001,1.4972179131809973,0.9344573734257118,0.40401194999867585,0.6512078111118171,0.936372299992945,8,9,4,0,0,1,300.0008,174.115,43.52875,75.0,0.01722999167217069,3,1,8,48,5,16.540792005283862,10.0,65.40792005283862,44.75200000000018,38.67099999999982,45.340000000000146,50.24399999999969,4,1,5,2,-0.137384043545626,-0.10458624735687155,0.79715991849532,-0.09879090691911463,-0.10536123179443874,0.9136329237103245,-0.11050851497826278,-0.1109094799636498,0.9138922138433387,3.8255995730874797,3.1584549378562885,0.6853186118460131,0.8296736708051234,4.831406,3.969849
32,7,9,37.5,Low,100.0,97.5,87.5,2.475174311065001,1.4972179131809973,0.9344573734257118,0.40401194999867585,0.6512078111118171,0.936372299992945,8,9,4,0,0,1,300.0008,153.59100000000035,38.39775000000009,75.0,0.019532394476238796,3,1,8,40,5,15.625915580991038,10.0,56.259155809910375,29.153000000000247,43.391000000000076,41.74299999999994,45.534999999999854,4,1,5,2,-0.17536347435216945,-0.10981601434017801,0.8326094966847142,-0.10176864358736336,-0.09689884290113106,0.9255214715493585,-0.11463615693369725,-0.09943301886346585,0.9272339026181117,3.8304711063561525,3.1833001260105314,0.6997252493390046,0.6359914516437587,4.767807,4.134857
32,8,9,37.5,Low,100.0,97.5,87.5,2.475174311065001,1.4972179131809973,0.9344573734257118,0.40401194999867585,0.6512078111118171,0.936372299992945,8,9,4,0,0,1,300.0008,164.71799999999985,41.17949999999996,75.0,0.018212945761847538,3,1,9,55,5,20.03424033803229,10.0,100.34240338032289,42.92599999999993,31.452999999999975,45.89900000000034,44.4399999999996,4,1,5,2,-0.1732696925796019,-0.08820657231087589,0.78834783186573,-0.11299999289235518,-0.0826977906523773,0.9031481660343481,-0.12728766034997527,-0.08217534043618266,0.9069187888056205,3.7543753354410616,3.1655033006245117,0.7493640819776737,0.8412027589344262,4.758362,4.130814
