participant_number,trial_number,subexperiment_number,MRTScore,MRTAcc,MRTGroup,nback_hits_0,nback_hit_rate_0,nback_correct_rejections_0,nback_rt_target_0,nback_rt_nontarget_0,nback_composite_0,nback_hits_1,nback_hit_rate_1,nback_correct_rejections_1,nback_rt_target_1,nback_rt_nontarget_1,nback_composite_1,nback_hits_2,nback_hit_rate_2,nback_correct_rejections_2,nback_rt_target_2,nback_rt_nontarget_2,nback_composite_2,rest_time,time_subexperiment,accuracy_subexperiment,accuracy_total,answer_correct_trial,answer_incorrect_trial,nback_hits_avg,nback_hit_rate_avg,nback_rt_target_avg,nback_rt_non_target_avg,nback_composite_avg,trial_duration,trial_duration_mean,performance_trial,feedback_score_tutorial_1,feedback_score_tutorial_2,feedback_score_tutorial_3,feedback_score_rest_1
2,1,0,0,0,Low,8,100,100,429.6627375,,0.232740685,9,90,100,468.9398778,,0.191922258,7,87.5,93.75,395.2481571,1204.88085,0.221379906,300.006,126.632,50,46.875,1,0,8,92.5,431.2835908,,0.215347616,45.052,18.27975,1.109828642,1,3,8,1
2,2,0,0,0,Low,8,100,100,429.6627375,,0.232740685,9,90,100,468.9398778,,0.191922258,7,87.5,93.75,395.2481571,1204.88085,0.221379906,300.006,126.632,50,46.875,0,1,8,92.5,431.2835908,,0.215347616,11.15,18.27975,4.484304933,1,3,8,1
2,3,0,0,0,Low,8,100,100,429.6627375,,0.232740685,9,90,100,468.9398778,,0.191922258,7,87.5,93.75,395.2481571,1204.88085,0.221379906,300.006,126.632,50,46.875,1,0,8,92.5,431.2835908,,0.215347616,33.854,18.27975,1.476930348,1,3,8,1
2,4,0,0,0,Low,8,100,100,429.6627375,,0.232740685,9,90,100,468.9398778,,0.191922258,7,87.5,93.75,395.2481571,1204.88085,0.221379906,300.006,126.632,50,46.875,0,1,8,92.5,431.2835908,,0.215347616,28.178,18.27975,1.774433956,1,3,8,1
2,5,1,0,0,Low,8,100,100,429.6627375,,0.232740685,9,90,100,468.9398778,,0.191922258,7,87.5,93.75,395.2481571,1204.88085,0.221379906,300.006,126.632,75,46.875,1,0,8,92.5,431.2835908,,0.215347616,42.835,18.27975,1.750904634,1,3,8,1
2,6,1,0,0,Low,8,100,100,429.6627375,,0.232740685,9,90,100,468.9398778,,0.191922258,7,87.5,93.75,395.2481571,1204.88085,0.221379906,300.006,126.632,75,46.875,1,0,8,92.5,431.2835908,,0.215347616,31.193,18.27975,2.404385599,1,3,8,1
2,7,1,0,0,Low,8,100,100,429.6627375,,0.232740685,9,90,100,468.9398778,,0.191922258,7,87.5,93.75,395.2481571,1204.88085,0.221379906,300.006,126.632,75,46.875,0,1,8,92.5,431.2835908,,0.215347616,12.033,18.27975,6.232859636,1,3,8,1
2,8,1,0,0,Low,8,100,100,429.6627375,,0.232740685,9,90,100,468.9398778,,0.191922258,7,87.5,93.75,395.2481571,1204.88085,0.221379906,300.006,126.632,75,46.875,1,0,8,92.5,431.2835908,,0.215347616,25.688,18.27975,2.919651199,1,3,8,1
2,9,2,0,0,Low,8,100,100,429.6627375,,0.232740685,9,90,100,468.9398778,,0.191922258,7,87.5,93.75,395.2481571,1204.88085,0.221379906,300.006,126.632,25,46.875,1,0,8,92.5,431.2835908,,0.215347616,39.247,18.27975,0.636991362,1,3,8,1
2,10,2,0,0,Low,8,100,100,429.6627375,,0.232740685,9,90,100,468.9398778,,0.191922258,7,87.5,93.75,395.2481571,1204.88085,0.221379906,300.006,126.632,25,46.875,0,1,8,92.5,431.2835908,,0.215347616,31.576,18.27975,0.791740562,1,3,8,1
2,11,2,0,0,Low,8,100,100,429.6627375,,0.232740685,9,90,100,468.9398778,,0.191922258,7,87.5,93.75,395.2481571,1204.88085,0.221379906,300.006,126.632,25,46.875,0,1,8,92.5,431.2835908,,0.215347616,40.256,18.27975,0.621025437,1,3,8,1
2,12,2,0,0,Low,8,100,100,429.6627375,,0.232740685,9,90,100,468.9398778,,0.191922258,7,87.5,93.75,395.2481571,1204.88085,0.221379906,300.006,126.632,25,46.875,0,1,8,92.5,431.2835908,,0.215347616,31.655,18.27975,0.78976465,1,3,8,1
2,13,3,0,0,Low,8,100,100,429.6627375,,0.232740685,9,90,100,468.9398778,,0.191922258,7,87.5,93.75,395.2481571,1204.88085,0.221379906,300.006,126.632,25,46.875,0,1,8,92.5,431.2835908,,0.215347616,15.026,18.27975,1.663782777,1,3,8,1
2,14,3,0,0,Low,8,100,100,429.6627375,,0.232740685,9,90,100,468.9398778,,0.191922258,7,87.5,93.75,395.2481571,1204.88085,0.221379906,300.006,126.632,25,46.875,1,0,8,92.5,431.2835908,,0.215347616,22.374,18.27975,1.117368374,1,3,8,1
2,15,3,0,0,Low,8,100,100,429.6627375,,0.232740685,9,90,100,468.9398778,,0.191922258,7,87.5,93.75,395.2481571,1204.88085,0.221379906,300.006,126.632,25,46.875,0,1,8,92.5,431.2835908,,0.215347616,23.823,18.27975,1.049406036,1,3,8,1
2,16,3,0,0,Low,8,100,100,429.6627375,,0.232740685,9,90,100,468.9398778,,0.191922258,7,87.5,93.75,395.2481571,1204.88085,0.221379906,300.006,126.632,25,46.875,0,1,8,92.5,431.2835908,,0.215347616,30.13,18.27975,0.829737803,1,3,8,1
2,17,4,0,0,Low,8,100,100,429.6627375,,0.232740685,9,90,100,468.9398778,,0.191922258,7,87.5,93.75,395.2481571,1204.88085,0.221379906,300.006,126.632,25,46.875,0,1,8,92.5,431.2835908,,0.215347616,28.632,18.27975,0.873148924,1,3,8,1
2,18,4,0,0,Low,8,100,100,429.6627375,,0.232740685,9,90,100,468.9398778,,0.191922258,7,87.5,93.75,395.2481571,1204.88085,0.221379906,300.006,126.632,25,46.875,0,1,8,92.5,431.2835908,,0.215347616,35.161,18.27975,0.711015045,1,3,8,1
2,19,4,0,0,Low,8,100,100,429.6627375,,0.232740685,9,90,100,468.9398778,,0.191922258,7,87.5,93.75,395.2481571,1204.88085,0.221379906,300.006,126.632,25,46.875,0,1,8,92.5,431.2835908,,0.215347616,42.17,18.27975,0.592838511,1,3,8,1
2,20,4,0,0,Low,8,100,100,429.6627375,,0.232740685,9,90,100,468.9398778,,0.191922258,7,87.5,93.75,395.2481571,1204.88085,0.221379906,300.006,126.632,25,46.875,1,0,8,92.5,431.2835908,,0.215347616,40.552,18.27975,0.616492405,1,3,8,1
2,21,5,0,0,Low,8,100,100,429.6627375,,0.232740685,9,90,100,468.9398778,,0.191922258,7,87.5,93.75,395.2481571,1204.88085,0.221379906,300.006,126.632,75,46.875,0,1,8,92.5,431.2835908,,0.215347616,25.312,18.27975,2.963021492,1,3,8,1
2,22,5,0,0,Low,8,100,100,429.6627375,,0.232740685,9,90,100,468.9398778,,0.191922258,7,87.5,93.75,395.2481571,1204.88085,0.221379906,300.006,126.632,75,46.875,1,0,8,92.5,431.2835908,,0.215347616,34.152,18.27975,2.196064652,1,3,8,1
2,23,5,0,0,Low,8,100,100,429.6627375,,0.232740685,9,90,100,468.9398778,,0.191922258,7,87.5,93.75,395.2481571,1204.88085,0.221379906,300.006,126.632,75,46.875,1,0,8,92.5,431.2835908,,0.215347616,22.339,18.27975,3.357357088,1,3,8,1
2,24,5,0,0,Low,8,100,100,429.6627375,,0.232740685,9,90,100,468.9398778,,0.191922258,7,87.5,93.75,395.2481571,1204.88085,0.221379906,300.006,126.632,75,46.875,1,0,8,92.5,431.2835908,,0.215347616,47.718,18.27975,1.571733937,1,3,8,1
2,25,6,0,0,Low,8,100,100,429.6627375,,0.232740685,9,90,100,468.9398778,,0.191922258,7,87.5,93.75,395.2481571,1204.88085,0.221379906,300.006,126.632,75,46.875,1,0,8,92.5,431.2835908,,0.215347616,37.709,18.27975,1.988915113,1,3,8,1
2,26,6,0,0,Low,8,100,100,429.6627375,,0.232740685,9,90,100,468.9398778,,0.191922258,7,87.5,93.75,395.2481571,1204.88085,0.221379906,300.006,126.632,75,46.875,1,0,8,92.5,431.2835908,,0.215347616,18.525,18.27975,4.048582996,1,3,8,1
2,27,6,0,0,Low,8,100,100,429.6627375,,0.232740685,9,90,100,468.9398778,,0.191922258,7,87.5,93.75,395.2481571,1204.88085,0.221379906,300.006,126.632,75,46.875,1,0,8,92.5,431.2835908,,0.215347616,34.035,18.27975,2.203613927,1,3,8,1
2,28,6,0,0,Low,8,100,100,429.6627375,,0.232740685,9,90,100,468.9398778,,0.191922258,7,87.5,93.75,395.2481571,1204.88085,0.221379906,300.006,126.632,75,46.875,0,1,8,92.5,431.2835908,,0.215347616,33.767,18.27975,2.221103444,1,3,8,1
2,29,7,0,0,Low,8,100,100,429.6627375,,0.232740685,9,90,100,468.9398778,,0.191922258,7,87.5,93.75,395.2481571,1204.88085,0.221379906,300.006,126.632,25,46.875,1,0,8,92.5,431.2835908,,0.215347616,33.318,18.27975,0.750345159,1,3,8,1
2,30,7,0,0,Low,8,100,100,429.6627375,,0.232740685,9,90,100,468.9398778,,0.191922258,7,87.5,93.75,395.2481571,1204.88085,0.221379906,300.006,126.632,25,46.875,0,1,8,92.5,431.2835908,,0.215347616,20.68,18.27975,1.208897485,1,3,8,1
2,31,7,0,0,Low,8,100,100,429.6627375,,0.232740685,9,90,100,468.9398778,,0.191922258,7,87.5,93.75,395.2481571,1204.88085,0.221379906,300.006,126.632,25,46.875,0,1,8,92.5,431.2835908,,0.215347616,27.387,18.27975,0.912841859,1,3,8,1
2,32,7,0,0,Low,8,100,100,429.6627375,,0.232740685,9,90,100,468.9398778,,0.191922258,7,87.5,93.75,395.2481571,1204.88085,0.221379906,300.006,126.632,25,46.875,0,1,8,92.5,431.2835908,,0.215347616,45.247,18.27975,0.552522819,1,3,8,1
3,1,0,0,0,Low,8,100,100,432.088925,,0.231433842,10,100,100,444.56208,,0.224940463,8,100,96.875,543.193025,2013.5157,0.18409662,300.0095,82.373,25,78.125,0,1,8.666666667,100,473.2813433,,0.213490308,15.987,18.27975,1.563770564,4,1,7,1
3,2,0,0,0,Low,8,100,100,432.088925,,0.231433842,10,100,100,444.56208,,0.224940463,8,100,96.875,543.193025,2013.5157,0.18409662,300.0095,82.373,25,78.125,1,0,8.666666667,100,473.2813433,,0.213490308,21.585,18.27975,1.158211721,4,1,7,1
3,3,0,0,0,Low,8,100,100,432.088925,,0.231433842,10,100,100,444.56208,,0.224940463,8,100,96.875,543.193025,2013.5157,0.18409662,300.0095,82.373,25,78.125,0,1,8.666666667,100,473.2813433,,0.213490308,30.735,18.27975,0.813404913,4,1,7,1
3,4,0,0,0,Low,8,100,100,432.088925,,0.231433842,10,100,100,444.56208,,0.224940463,8,100,96.875,543.193025,2013.5157,0.18409662,300.0095,82.373,25,78.125,0,1,8.666666667,100,473.2813433,,0.213490308,38.312,18.27975,0.652537064,4,1,7,1
3,5,1,0,0,Low,8,100,100,432.088925,,0.231433842,10,100,100,444.56208,,0.224940463,8,100,96.875,543.193025,2013.5157,0.18409662,300.0095,82.373,100,78.125,1,0,8.666666667,100,473.2813433,,0.213490308,25.4,18.27975,3.937007874,4,1,7,1
3,6,1,0,0,Low,8,100,100,432.088925,,0.231433842,10,100,100,444.56208,,0.224940463,8,100,96.875,543.193025,2013.5157,0.18409662,300.0095,82.373,100,78.125,1,0,8.666666667,100,473.2813433,,0.213490308,9.708,18.27975,10.30078286,4,1,7,1
3,7,1,0,0,Low,8,100,100,432.088925,,0.231433842,10,100,100,444.56208,,0.224940463,8,100,96.875,543.193025,2013.5157,0.18409662,300.0095,82.373,100,78.125,1,0,8.666666667,100,473.2813433,,0.213490308,9.071,18.27975,11.02414287,4,1,7,1
3,8,1,0,0,Low,8,100,100,432.088925,,0.231433842,10,100,100,444.56208,,0.224940463,8,100,96.875,543.193025,2013.5157,0.18409662,300.0095,82.373,100,78.125,1,0,8.666666667,100,473.2813433,,0.213490308,15.043,18.27975,6.647610184,4,1,7,1
3,9,2,0,0,Low,8,100,100,432.088925,,0.231433842,10,100,100,444.56208,,0.224940463,8,100,96.875,543.193025,2013.5157,0.18409662,300.0095,82.373,75,78.125,1,0,8.666666667,100,473.2813433,,0.213490308,19.124,18.27975,3.921773688,4,1,7,1
3,10,2,0,0,Low,8,100,100,432.088925,,0.231433842,10,100,100,444.56208,,0.224940463,8,100,96.875,543.193025,2013.5157,0.18409662,300.0095,82.373,75,78.125,0,1,8.666666667,100,473.2813433,,0.213490308,31.988,18.27975,2.344629236,4,1,7,1
3,11,2,0,0,Low,8,100,100,432.088925,,0.231433842,10,100,100,444.56208,,0.224940463,8,100,96.875,543.193025,2013.5157,0.18409662,300.0095,82.373,75,78.125,1,0,8.666666667,100,473.2813433,,0.213490308,19.91,18.27975,3.766951281,4,1,7,1
3,12,2,0,0,Low,8,100,100,432.088925,,0.231433842,10,100,100,444.56208,,0.224940463,8,100,96.875,543.193025,2013.5157,0.18409662,300.0095,82.373,75,78.125,1,0,8.666666667,100,473.2813433,,0.213490308,29.645,18.27975,2.529937595,4,1,7,1
3,13,3,0,0,Low,8,100,100,432.088925,,0.231433842,10,100,100,444.56208,,0.224940463,8,100,96.875,543.193025,2013.5157,0.18409662,300.0095,82.373,100,78.125,1,0,8.666666667,100,473.2813433,,0.213490308,34.678,18.27975,2.883672645,4,1,7,1
3,14,3,0,0,Low,8,100,100,432.088925,,0.231433842,10,100,100,444.56208,,0.224940463,8,100,96.875,543.193025,2013.5157,0.18409662,300.0095,82.373,100,78.125,1,0,8.666666667,100,473.2813433,,0.213490308,10.587,18.27975,9.445546425,4,1,7,1
3,15,3,0,0,Low,8,100,100,432.088925,,0.231433842,10,100,100,444.56208,,0.224940463,8,100,96.875,543.193025,2013.5157,0.18409662,300.0095,82.373,100,78.125,1,0,8.666666667,100,473.2813433,,0.213490308,33.563,18.27975,2.979471442,4,1,7,1
3,16,3,0,0,Low,8,100,100,432.088925,,0.231433842,10,100,100,444.56208,,0.224940463,8,100,96.875,543.193025,2013.5157,0.18409662,300.0095,82.373,100,78.125,1,0,8.666666667,100,473.2813433,,0.213490308,16.844,18.27975,5.936832106,4,1,7,1
3,17,4,0,0,Low,8,100,100,432.088925,,0.231433842,10,100,100,444.56208,,0.224940463,8,100,96.875,543.193025,2013.5157,0.18409662,300.0095,82.373,75,78.125,0,1,8.666666667,100,473.2813433,,0.213490308,15.993,18.27975,4.689551679,4,1,7,1
3,18,4,0,0,Low,8,100,100,432.088925,,0.231433842,10,100,100,444.56208,,0.224940463,8,100,96.875,543.193025,2013.5157,0.18409662,300.0095,82.373,75,78.125,1,0,8.666666667,100,473.2813433,,0.213490308,19.412,18.27975,3.863589532,4,1,7,1
3,19,4,0,0,Low,8,100,100,432.088925,,0.231433842,10,100,100,444.56208,,0.224940463,8,100,96.875,543.193025,2013.5157,0.18409662,300.0095,82.373,75,78.125,1,0,8.666666667,100,473.2813433,,0.213490308,13.633,18.27975,5.501357001,4,1,7,1
3,20,4,0,0,Low,8,100,100,432.088925,,0.231433842,10,100,100,444.56208,,0.224940463,8,100,96.875,543.193025,2013.5157,0.18409662,300.0095,82.373,75,78.125,1,0,8.666666667,100,473.2813433,,0.213490308,32.759,18.27975,2.289447175,4,1,7,1
3,21,5,0,0,Low,8,100,100,432.088925,,0.231433842,10,100,100,444.56208,,0.224940463,8,100,96.875,543.193025,2013.5157,0.18409662,300.0095,82.373,75,78.125,1,0,8.666666667,100,473.2813433,,0.213490308,13.286,18.27975,5.645039892,4,1,7,1
3,22,5,0,0,Low,8,100,100,432.088925,,0.231433842,10,100,100,444.56208,,0.224940463,8,100,96.875,543.193025,2013.5157,0.18409662,300.0095,82.373,75,78.125,1,0,8.666666667,100,473.2813433,,0.213490308,22.811,18.27975,3.287887423,4,1,7,1
3,23,5,0,0,Low,8,100,100,432.088925,,0.231433842,10,100,100,444.56208,,0.224940463,8,100,96.875,543.193025,2013.5157,0.18409662,300.0095,82.373,75,78.125,1,0,8.666666667,100,473.2813433,,0.213490308,23.479,18.27975,3.194343882,4,1,7,1
3,24,5,0,0,Low,8,100,100,432.088925,,0.231433842,10,100,100,444.56208,,0.224940463,8,100,96.875,543.193025,2013.5157,0.18409662,300.0095,82.373,75,78.125,0,1,8.666666667,100,473.2813433,,0.213490308,39.11,18.27975,1.917668116,4,1,7,1
3,25,6,0,0,Low,8,100,100,432.088925,,0.231433842,10,100,100,444.56208,,0.224940463,8,100,96.875,543.193025,2013.5157,0.18409662,300.0095,82.373,75,78.125,1,0,8.666666667,100,473.2813433,,0.213490308,12.65,18.27975,5.928853755,4,1,7,1
3,26,6,0,0,Low,8,100,100,432.088925,,0.231433842,10,100,100,444.56208,,0.224940463,8,100,96.875,543.193025,2013.5157,0.18409662,300.0095,82.373,75,78.125,1,0,8.666666667,100,473.2813433,,0.213490308,17.183,18.27975,4.364779142,4,1,7,1
3,27,6,0,0,Low,8,100,100,432.088925,,0.231433842,10,100,100,444.56208,,0.224940463,8,100,96.875,543.193025,2013.5157,0.18409662,300.0095,82.373,75,78.125,0,1,8.666666667,100,473.2813433,,0.213490308,21.61,18.27975,3.470615456,4,1,7,1
3,28,6,0,0,Low,8,100,100,432.088925,,0.231433842,10,100,100,444.56208,,0.224940463,8,100,96.875,543.193025,2013.5157,0.18409662,300.0095,82.373,75,78.125,1,0,8.666666667,100,473.2813433,,0.213490308,22.479,18.27975,3.336447351,4,1,7,1
3,29,7,0,0,Low,8,100,100,432.088925,,0.231433842,10,100,100,444.56208,,0.224940463,8,100,96.875,543.193025,2013.5157,0.18409662,300.0095,82.373,100,78.125,1,0,8.666666667,100,473.2813433,,0.213490308,15.671,18.27975,6.381213707,4,1,7,1
3,30,7,0,0,Low,8,100,100,432.088925,,0.231433842,10,100,100,444.56208,,0.224940463,8,100,96.875,543.193025,2013.5157,0.18409662,300.0095,82.373,100,78.125,1,0,8.666666667,100,473.2813433,,0.213490308,21.593,18.27975,4.631130459,4,1,7,1
3,31,7,0,0,Low,8,100,100,432.088925,,0.231433842,10,100,100,444.56208,,0.224940463,8,100,96.875,543.193025,2013.5157,0.18409662,300.0095,82.373,100,78.125,1,0,8.666666667,100,473.2813433,,0.213490308,31.397,18.27975,3.185017677,4,1,7,1
3,32,7,0,0,Low,8,100,100,432.088925,,0.231433842,10,100,100,444.56208,,0.224940463,8,100,96.875,543.193025,2013.5157,0.18409662,300.0095,82.373,100,78.125,1,0,8.666666667,100,473.2813433,,0.213490308,13.712,18.27975,7.292882147,4,1,7,1
4,1,0,3,12.5,Low,8,100,100,404.7064375,,0.247092684,4,40,100,649.710275,,0.061565903,8,100,96.875,789.06155,1578.8971,0.126732826,300.0153,113.477,75,84.375,1,0,6.666666667,80,614.4927541,,0.145130471,36.6276,18.27975,2.047636209,5,1,7,4
4,2,0,3,12.5,Low,8,100,100,404.7064375,,0.247092684,4,40,100,649.710275,,0.061565903,8,100,96.875,789.06155,1578.8971,0.126732826,300.0153,113.477,75,84.375,1,0,6.666666667,80,614.4927541,,0.145130471,30.3155,18.27975,2.473981956,5,1,7,4
4,3,0,3,12.5,Low,8,100,100,404.7064375,,0.247092684,4,40,100,649.710275,,0.061565903,8,100,96.875,789.06155,1578.8971,0.126732826,300.0153,113.477,75,84.375,0,1,6.666666667,80,614.4927541,,0.145130471,32.1435,18.27975,2.333286668,5,1,7,4
4,4,0,3,12.5,Low,8,100,100,404.7064375,,0.247092684,4,40,100,649.710275,,0.061565903,8,100,96.875,789.06155,1578.8971,0.126732826,300.0153,113.477,75,84.375,1,0,6.666666667,80,614.4927541,,0.145130471,26.0168,18.27975,2.882752683,5,1,7,4
4,5,1,3,12.5,Low,8,100,100,404.7064375,,0.247092684,4,40,100,649.710275,,0.061565903,8,100,96.875,789.06155,1578.8971,0.126732826,300.0153,113.477,100,84.375,1,0,6.666666667,80,614.4927541,,0.145130471,26.881,18.27975,3.720099699,5,1,7,4
4,6,1,3,12.5,Low,8,100,100,404.7064375,,0.247092684,4,40,100,649.710275,,0.061565903,8,100,96.875,789.06155,1578.8971,0.126732826,300.0153,113.477,100,84.375,1,0,6.666666667,80,614.4927541,,0.145130471,21.956,18.27975,4.554563673,5,1,7,4
4,7,1,3,12.5,Low,8,100,100,404.7064375,,0.247092684,4,40,100,649.710275,,0.061565903,8,100,96.875,789.06155,1578.8971,0.126732826,300.0153,113.477,100,84.375,1,0,6.666666667,80,614.4927541,,0.145130471,16.112,18.27975,6.206554121,5,1,7,4
4,8,1,3,12.5,Low,8,100,100,404.7064375,,0.247092684,4,40,100,649.710275,,0.061565903,8,100,96.875,789.06155,1578.8971,0.126732826,300.0153,113.477,100,84.375,1,0,6.666666667,80,614.4927541,,0.145130471,18.595,18.27975,5.377789728,5,1,7,4
4,9,2,3,12.5,Low,8,100,100,404.7064375,,0.247092684,4,40,100,649.710275,,0.061565903,8,100,96.875,789.06155,1578.8971,0.126732826,300.0153,113.477,50,84.375,1,0,6.666666667,80,614.4927541,,0.145130471,26.554,18.27975,1.882955487,5,1,7,4
4,10,2,3,12.5,Low,8,100,100,404.7064375,,0.247092684,4,40,100,649.710275,,0.061565903,8,100,96.875,789.06155,1578.8971,0.126732826,300.0153,113.477,50,84.375,0,1,6.666666667,80,614.4927541,,0.145130471,35.007,18.27975,1.428285771,5,1,7,4
4,11,2,3,12.5,Low,8,100,100,404.7064375,,0.247092684,4,40,100,649.710275,,0.061565903,8,100,96.875,789.06155,1578.8971,0.126732826,300.0153,113.477,50,84.375,0,1,6.666666667,80,614.4927541,,0.145130471,44.776,18.27975,1.116669644,5,1,7,4
4,12,2,3,12.5,Low,8,100,100,404.7064375,,0.247092684,4,40,100,649.710275,,0.061565903,8,100,96.875,789.06155,1578.8971,0.126732826,300.0153,113.477,50,84.375,1,0,6.666666667,80,614.4927541,,0.145130471,29.345,18.27975,1.70386778,5,1,7,4
4,13,3,3,12.5,Low,8,100,100,404.7064375,,0.247092684,4,40,100,649.710275,,0.061565903,8,100,96.875,789.06155,1578.8971,0.126732826,300.0153,113.477,100,84.375,1,0,6.666666667,80,614.4927541,,0.145130471,37.557,18.27975,2.662619485,5,1,7,4
4,14,3,3,12.5,Low,8,100,100,404.7064375,,0.247092684,4,40,100,649.710275,,0.061565903,8,100,96.875,789.06155,1578.8971,0.126732826,300.0153,113.477,100,84.375,1,0,6.666666667,80,614.4927541,,0.145130471,45.201,18.27975,2.212340435,5,1,7,4
4,15,3,3,12.5,Low,8,100,100,404.7064375,,0.247092684,4,40,100,649.710275,,0.061565903,8,100,96.875,789.06155,1578.8971,0.126732826,300.0153,113.477,100,84.375,1,0,6.666666667,80,614.4927541,,0.145130471,27.933,18.27975,3.579994988,5,1,7,4
4,16,3,3,12.5,Low,8,100,100,404.7064375,,0.247092684,4,40,100,649.710275,,0.061565903,8,100,96.875,789.06155,1578.8971,0.126732826,300.0153,113.477,100,84.375,1,0,6.666666667,80,614.4927541,,0.145130471,28.885,18.27975,3.462004501,5,1,7,4
4,17,4,3,12.5,Low,8,100,100,404.7064375,,0.247092684,4,40,100,649.710275,,0.061565903,8,100,96.875,789.06155,1578.8971,0.126732826,300.0153,113.477,100,84.375,1,0,6.666666667,80,614.4927541,,0.145130471,26.012,18.27975,3.844379517,5,1,7,4
4,18,4,3,12.5,Low,8,100,100,404.7064375,,0.247092684,4,40,100,649.710275,,0.061565903,8,100,96.875,789.06155,1578.8971,0.126732826,300.0153,113.477,100,84.375,1,0,6.666666667,80,614.4927541,,0.145130471,28.719,18.27975,3.482015391,5,1,7,4
4,19,4,3,12.5,Low,8,100,100,404.7064375,,0.247092684,4,40,100,649.710275,,0.061565903,8,100,96.875,789.06155,1578.8971,0.126732826,300.0153,113.477,100,84.375,1,0,6.666666667,80,614.4927541,,0.145130471,19.759,18.27975,5.060984868,5,1,7,4
4,20,4,3,12.5,Low,8,100,100,404.7064375,,0.247092684,4,40,100,649.710275,,0.061565903,8,100,96.875,789.06155,1578.8971,0.126732826,300.0153,113.477,100,84.375,1,0,6.666666667,80,614.4927541,,0.145130471,30.495,18.27975,3.279226103,5,1,7,4
4,21,5,3,12.5,Low,8,100,100,404.7064375,,0.247092684,4,40,100,649.710275,,0.061565903,8,100,96.875,789.06155,1578.8971,0.126732826,300.0153,113.477,75,84.375,1,0,6.666666667,80,614.4927541,,0.145130471,42.558,18.27975,1.76230086,5,1,7,4
4,22,5,3,12.5,Low,8,100,100,404.7064375,,0.247092684,4,40,100,649.710275,,0.061565903,8,100,96.875,789.06155,1578.8971,0.126732826,300.0153,113.477,75,84.375,1,0,6.666666667,80,614.4927541,,0.145130471,13.077,18.27975,5.735260381,5,1,7,4
4,23,5,3,12.5,Low,8,100,100,404.7064375,,0.247092684,4,40,100,649.710275,,0.061565903,8,100,96.875,789.06155,1578.8971,0.126732826,300.0153,113.477,75,84.375,1,0,6.666666667,80,614.4927541,,0.145130471,20.83,18.27975,3.600576092,5,1,7,4
4,24,5,3,12.5,Low,8,100,100,404.7064375,,0.247092684,4,40,100,649.710275,,0.061565903,8,100,96.875,789.06155,1578.8971,0.126732826,300.0153,113.477,75,84.375,0,1,6.666666667,80,614.4927541,,0.145130471,27.487,18.27975,2.728562593,5,1,7,4
4,25,6,3,12.5,Low,8,100,100,404.7064375,,0.247092684,4,40,100,649.710275,,0.061565903,8,100,96.875,789.06155,1578.8971,0.126732826,300.0153,113.477,75,84.375,1,0,6.666666667,80,614.4927541,,0.145130471,12.75,18.27975,5.882352941,5,1,7,4
4,26,6,3,12.5,Low,8,100,100,404.7064375,,0.247092684,4,40,100,649.710275,,0.061565903,8,100,96.875,789.06155,1578.8971,0.126732826,300.0153,113.477,75,84.375,1,0,6.666666667,80,614.4927541,,0.145130471,32.618,18.27975,2.299343921,5,1,7,4
4,27,6,3,12.5,Low,8,100,100,404.7064375,,0.247092684,4,40,100,649.710275,,0.061565903,8,100,96.875,789.06155,1578.8971,0.126732826,300.0153,113.477,75,84.375,0,1,6.666666667,80,614.4927541,,0.145130471,33.357,18.27975,2.248403633,5,1,7,4
4,28,6,3,12.5,Low,8,100,100,404.7064375,,0.247092684,4,40,100,649.710275,,0.061565903,8,100,96.875,789.06155,1578.8971,0.126732826,300.0153,113.477,75,84.375,1,0,6.666666667,80,614.4927541,,0.145130471,22.7,18.27975,3.303964758,5,1,7,4
4,29,7,3,12.5,Low,8,100,100,404.7064375,,0.247092684,4,40,100,649.710275,,0.061565903,8,100,96.875,789.06155,1578.8971,0.126732826,300.0153,113.477,100,84.375,1,0,6.666666667,80,614.4927541,,0.145130471,30.037,18.27975,3.329227286,5,1,7,4
4,30,7,3,12.5,Low,8,100,100,404.7064375,,0.247092684,4,40,100,649.710275,,0.061565903,8,100,96.875,789.06155,1578.8971,0.126732826,300.0153,113.477,100,84.375,1,0,6.666666667,80,614.4927541,,0.145130471,35.75,18.27975,2.797202797,5,1,7,4
4,31,7,3,12.5,Low,8,100,100,404.7064375,,0.247092684,4,40,100,649.710275,,0.061565903,8,100,96.875,789.06155,1578.8971,0.126732826,300.0153,113.477,100,84.375,1,0,6.666666667,80,614.4927541,,0.145130471,34.967,18.27975,2.859839277,5,1,7,4
4,32,7,3,12.5,Low,8,100,100,404.7064375,,0.247092684,4,40,100,649.710275,,0.061565903,8,100,96.875,789.06155,1578.8971,0.126732826,300.0153,113.477,100,84.375,1,0,6.666666667,80,614.4927541,,0.145130471,12.723,18.27975,7.859781498,5,1,7,4
10,1,0,0,0,Low,8,100,100,413.2961,,0.24195728,10,100,100,738.89935,,0.13533643,8,100,100,832.9409375,,0.120056532,300.0045,138.315,75,68.75,1,0,8.666666667,100,661.7121292,,0.165783414,42.87,18.27975,1.749475157,1,1,7,1
10,2,0,0,0,Low,8,100,100,413.2961,,0.24195728,10,100,100,738.89935,,0.13533643,8,100,100,832.9409375,,0.120056532,300.0045,138.315,75,68.75,1,0,8.666666667,100,661.7121292,,0.165783414,38.501,18.27975,1.948001351,1,1,7,1
10,3,0,0,0,Low,8,100,100,413.2961,,0.24195728,10,100,100,738.89935,,0.13533643,8,100,100,832.9409375,,0.120056532,300.0045,138.315,75,68.75,0,1,8.666666667,100,661.7121292,,0.165783414,15.808,18.27975,4.744433198,1,1,7,1
10,4,0,0,0,Low,8,100,100,413.2961,,0.24195728,10,100,100,738.89935,,0.13533643,8,100,100,832.9409375,,0.120056532,300.0045,138.315,75,68.75,1,0,8.666666667,100,661.7121292,,0.165783414,23.4,18.27975,3.205128205,1,1,7,1
10,5,1,0,0,Low,8,100,100,413.2961,,0.24195728,10,100,100,738.89935,,0.13533643,8,100,100,832.9409375,,0.120056532,300.0045,138.315,75,68.75,1,0,8.666666667,100,661.7121292,,0.165783414,28.16,18.27975,2.663352273,1,1,7,1
10,6,1,0,0,Low,8,100,100,413.2961,,0.24195728,10,100,100,738.89935,,0.13533643,8,100,100,832.9409375,,0.120056532,300.0045,138.315,75,68.75,1,0,8.666666667,100,661.7121292,,0.165783414,27.248,18.27975,2.752495596,1,1,7,1
10,7,1,0,0,Low,8,100,100,413.2961,,0.24195728,10,100,100,738.89935,,0.13533643,8,100,100,832.9409375,,0.120056532,300.0045,138.315,75,68.75,1,0,8.666666667,100,661.7121292,,0.165783414,25.673,18.27975,2.921357068,1,1,7,1
10,8,1,0,0,Low,8,100,100,413.2961,,0.24195728,10,100,100,738.89935,,0.13533643,8,100,100,832.9409375,,0.120056532,300.0045,138.315,75,68.75,0,1,8.666666667,100,661.7121292,,0.165783414,31.456,18.27975,2.384282808,1,1,7,1
10,9,2,0,0,Low,8,100,100,413.2961,,0.24195728,10,100,100,738.89935,,0.13533643,8,100,100,832.9409375,,0.120056532,300.0045,138.315,0,68.75,0,1,8.666666667,100,661.7121292,,0.165783414,47.656,18.27975,0,1,1,7,1
10,10,2,0,0,Low,8,100,100,413.2961,,0.24195728,10,100,100,738.89935,,0.13533643,8,100,100,832.9409375,,0.120056532,300.0045,138.315,0,68.75,0,1,8.666666667,100,661.7121292,,0.165783414,41.215,18.27975,0,1,1,7,1
10,11,2,0,0,Low,8,100,100,413.2961,,0.24195728,10,100,100,738.89935,,0.13533643,8,100,100,832.9409375,,0.120056532,300.0045,138.315,0,68.75,0,1,8.666666667,100,661.7121292,,0.165783414,47.697,18.27975,0,1,1,7,1
10,12,2,0,0,Low,8,100,100,413.2961,,0.24195728,10,100,100,738.89935,,0.13533643,8,100,100,832.9409375,,0.120056532,300.0045,138.315,0,68.75,0,1,8.666666667,100,661.7121292,,0.165783414,51.28,18.27975,0,1,1,7,1
10,13,3,0,0,Low,8,100,100,413.2961,,0.24195728,10,100,100,738.89935,,0.13533643,8,100,100,832.9409375,,0.120056532,300.0045,138.315,100,68.75,1,0,8.666666667,100,661.7121292,,0.165783414,23.336,18.27975,4.285224546,1,1,7,1
10,14,3,0,0,Low,8,100,100,413.2961,,0.24195728,10,100,100,738.89935,,0.13533643,8,100,100,832.9409375,,0.120056532,300.0045,138.315,100,68.75,1,0,8.666666667,100,661.7121292,,0.165783414,32.405,18.27975,3.085943527,1,1,7,1
10,15,3,0,0,Low,8,100,100,413.2961,,0.24195728,10,100,100,738.89935,,0.13533643,8,100,100,832.9409375,,0.120056532,300.0045,138.315,100,68.75,1,0,8.666666667,100,661.7121292,,0.165783414,36.05,18.27975,2.773925104,1,1,7,1
10,16,3,0,0,Low,8,100,100,413.2961,,0.24195728,10,100,100,738.89935,,0.13533643,8,100,100,832.9409375,,0.120056532,300.0045,138.315,100,68.75,1,0,8.666666667,100,661.7121292,,0.165783414,35.85,18.27975,2.789400279,1,1,7,1
10,17,4,0,0,Low,8,100,100,413.2961,,0.24195728,10,100,100,738.89935,,0.13533643,8,100,100,832.9409375,,0.120056532,300.0045,138.315,100,68.75,1,0,8.666666667,100,661.7121292,,0.165783414,44.011,18.27975,2.272159233,1,1,7,1
10,18,4,0,0,Low,8,100,100,413.2961,,0.24195728,10,100,100,738.89935,,0.13533643,8,100,100,832.9409375,,0.120056532,300.0045,138.315,100,68.75,1,0,8.666666667,100,661.7121292,,0.165783414,37.563,18.27975,2.66219418,1,1,7,1
10,19,4,0,0,Low,8,100,100,413.2961,,0.24195728,10,100,100,738.89935,,0.13533643,8,100,100,832.9409375,,0.120056532,300.0045,138.315,100,68.75,1,0,8.666666667,100,661.7121292,,0.165783414,45.729,18.27975,2.186796125,1,1,7,1
10,20,4,0,0,Low,8,100,100,413.2961,,0.24195728,10,100,100,738.89935,,0.13533643,8,100,100,832.9409375,,0.120056532,300.0045,138.315,100,68.75,1,0,8.666666667,100,661.7121292,,0.165783414,33.789,18.27975,2.959543047,1,1,7,1
10,21,5,0,0,Low,8,100,100,413.2961,,0.24195728,10,100,100,738.89935,,0.13533643,8,100,100,832.9409375,,0.120056532,300.0045,138.315,50,68.75,0,1,8.666666667,100,661.7121292,,0.165783414,35.674,18.27975,1.401580983,1,1,7,1
10,22,5,0,0,Low,8,100,100,413.2961,,0.24195728,10,100,100,738.89935,,0.13533643,8,100,100,832.9409375,,0.120056532,300.0045,138.315,50,68.75,1,0,8.666666667,100,661.7121292,,0.165783414,26.463,18.27975,1.889430526,1,1,7,1
10,23,5,0,0,Low,8,100,100,413.2961,,0.24195728,10,100,100,738.89935,,0.13533643,8,100,100,832.9409375,,0.120056532,300.0045,138.315,50,68.75,1,0,8.666666667,100,661.7121292,,0.165783414,26.263,18.27975,1.903819061,1,1,7,1
10,24,5,0,0,Low,8,100,100,413.2961,,0.24195728,10,100,100,738.89935,,0.13533643,8,100,100,832.9409375,,0.120056532,300.0045,138.315,50,68.75,0,1,8.666666667,100,661.7121292,,0.165783414,31.959,18.27975,1.564504521,1,1,7,1
10,25,6,0,0,Low,8,100,100,413.2961,,0.24195728,10,100,100,738.89935,,0.13533643,8,100,100,832.9409375,,0.120056532,300.0045,138.315,75,68.75,1,0,8.666666667,100,661.7121292,,0.165783414,23.709,18.27975,3.163355688,1,1,7,1
10,26,6,0,0,Low,8,100,100,413.2961,,0.24195728,10,100,100,738.89935,,0.13533643,8,100,100,832.9409375,,0.120056532,300.0045,138.315,75,68.75,1,0,8.666666667,100,661.7121292,,0.165783414,18.714,18.27975,4.007694774,1,1,7,1
10,27,6,0,0,Low,8,100,100,413.2961,,0.24195728,10,100,100,738.89935,,0.13533643,8,100,100,832.9409375,,0.120056532,300.0045,138.315,75,68.75,0,1,8.666666667,100,661.7121292,,0.165783414,31.996,18.27975,2.344043005,1,1,7,1
10,28,6,0,0,Low,8,100,100,413.2961,,0.24195728,10,100,100,738.89935,,0.13533643,8,100,100,832.9409375,,0.120056532,300.0045,138.315,75,68.75,1,0,8.666666667,100,661.7121292,,0.165783414,33.694,18.27975,2.225915593,1,1,7,1
10,29,7,0,0,Low,8,100,100,413.2961,,0.24195728,10,100,100,738.89935,,0.13533643,8,100,100,832.9409375,,0.120056532,300.0045,138.315,75,68.75,1,0,8.666666667,100,661.7121292,,0.165783414,26.845,18.27975,2.793816353,1,1,7,1
10,30,7,0,0,Low,8,100,100,413.2961,,0.24195728,10,100,100,738.89935,,0.13533643,8,100,100,832.9409375,,0.120056532,300.0045,138.315,75,68.75,1,0,8.666666667,100,661.7121292,,0.165783414,26.144,18.27975,2.86872705,1,1,7,1
10,31,7,0,0,Low,8,100,100,413.2961,,0.24195728,10,100,100,738.89935,,0.13533643,8,100,100,832.9409375,,0.120056532,300.0045,138.315,75,68.75,0,1,8.666666667,100,661.7121292,,0.165783414,47.689,18.27975,1.572689719,1,1,7,1
10,32,7,0,0,Low,8,100,100,413.2961,,0.24195728,10,100,100,738.89935,,0.13533643,8,100,100,832.9409375,,0.120056532,300.0045,138.315,75,68.75,1,0,8.666666667,100,661.7121292,,0.165783414,37.637,18.27975,1.99271993,1,1,7,1
15,1,0,0,0,Low,7,87.5,100,415.6692286,,0.210503915,10,100,100,482.19574,,0.207384661,8,100,96.875,677.1924125,834.154,0.147668518,300.0025,126.256,75,62.5,1,0,8.333333333,95.83333333,525.019127,,0.188519031,50.619,18.27975,1.481657085,2,1,6,3
15,2,0,0,0,Low,7,87.5,100,415.6692286,,0.210503915,10,100,100,482.19574,,0.207384661,8,100,96.875,677.1924125,834.154,0.147668518,300.0025,126.256,75,62.5,1,0,8.333333333,95.83333333,525.019127,,0.188519031,18.801,18.27975,3.989149513,2,1,6,3
15,3,0,0,0,Low,7,87.5,100,415.6692286,,0.210503915,10,100,100,482.19574,,0.207384661,8,100,96.875,677.1924125,834.154,0.147668518,300.0025,126.256,75,62.5,0,1,8.333333333,95.83333333,525.019127,,0.188519031,39.916,18.27975,1.878945786,2,1,6,3
15,4,0,0,0,Low,7,87.5,100,415.6692286,,0.210503915,10,100,100,482.19574,,0.207384661,8,100,96.875,677.1924125,834.154,0.147668518,300.0025,126.256,75,62.5,1,0,8.333333333,95.83333333,525.019127,,0.188519031,37.218,18.27975,2.015153958,2,1,6,3
15,5,1,0,0,Low,7,87.5,100,415.6692286,,0.210503915,10,100,100,482.19574,,0.207384661,8,100,96.875,677.1924125,834.154,0.147668518,300.0025,126.256,50,62.5,0,1,8.333333333,95.83333333,525.019127,,0.188519031,50.085,18.27975,0.998302885,2,1,6,3
15,6,1,0,0,Low,7,87.5,100,415.6692286,,0.210503915,10,100,100,482.19574,,0.207384661,8,100,96.875,677.1924125,834.154,0.147668518,300.0025,126.256,50,62.5,0,1,8.333333333,95.83333333,525.019127,,0.188519031,13.328,18.27975,3.7515006,2,1,6,3
15,7,1,0,0,Low,7,87.5,100,415.6692286,,0.210503915,10,100,100,482.19574,,0.207384661,8,100,96.875,677.1924125,834.154,0.147668518,300.0025,126.256,50,62.5,1,0,8.333333333,95.83333333,525.019127,,0.188519031,17.103,18.27975,2.92346372,2,1,6,3
15,8,1,0,0,Low,7,87.5,100,415.6692286,,0.210503915,10,100,100,482.19574,,0.207384661,8,100,96.875,677.1924125,834.154,0.147668518,300.0025,126.256,50,62.5,1,0,8.333333333,95.83333333,525.019127,,0.188519031,32.163,18.27975,1.554581351,2,1,6,3
15,9,2,0,0,Low,7,87.5,100,415.6692286,,0.210503915,10,100,100,482.19574,,0.207384661,8,100,96.875,677.1924125,834.154,0.147668518,300.0025,126.256,75,62.5,0,1,8.333333333,95.83333333,525.019127,,0.188519031,47.267,18.27975,1.5867307,2,1,6,3
15,10,2,0,0,Low,7,87.5,100,415.6692286,,0.210503915,10,100,100,482.19574,,0.207384661,8,100,96.875,677.1924125,834.154,0.147668518,300.0025,126.256,75,62.5,1,0,8.333333333,95.83333333,525.019127,,0.188519031,31.154,18.27975,2.407395519,2,1,6,3
15,11,2,0,0,Low,7,87.5,100,415.6692286,,0.210503915,10,100,100,482.19574,,0.207384661,8,100,96.875,677.1924125,834.154,0.147668518,300.0025,126.256,75,62.5,1,0,8.333333333,95.83333333,525.019127,,0.188519031,43.05,18.27975,1.742160279,2,1,6,3
15,12,2,0,0,Low,7,87.5,100,415.6692286,,0.210503915,10,100,100,482.19574,,0.207384661,8,100,96.875,677.1924125,834.154,0.147668518,300.0025,126.256,75,62.5,1,0,8.333333333,95.83333333,525.019127,,0.188519031,50.22,18.27975,1.493428913,2,1,6,3
15,13,3,0,0,Low,7,87.5,100,415.6692286,,0.210503915,10,100,100,482.19574,,0.207384661,8,100,96.875,677.1924125,834.154,0.147668518,300.0025,126.256,100,62.5,1,0,8.333333333,95.83333333,525.019127,,0.188519031,39.221,18.27975,2.549654522,2,1,6,3
15,14,3,0,0,Low,7,87.5,100,415.6692286,,0.210503915,10,100,100,482.19574,,0.207384661,8,100,96.875,677.1924125,834.154,0.147668518,300.0025,126.256,100,62.5,1,0,8.333333333,95.83333333,525.019127,,0.188519031,42.199,18.27975,2.369724401,2,1,6,3
15,15,3,0,0,Low,7,87.5,100,415.6692286,,0.210503915,10,100,100,482.19574,,0.207384661,8,100,96.875,677.1924125,834.154,0.147668518,300.0025,126.256,100,62.5,1,0,8.333333333,95.83333333,525.019127,,0.188519031,31.203,18.27975,3.204820049,2,1,6,3
15,16,3,0,0,Low,7,87.5,100,415.6692286,,0.210503915,10,100,100,482.19574,,0.207384661,8,100,96.875,677.1924125,834.154,0.147668518,300.0025,126.256,100,62.5,1,0,8.333333333,95.83333333,525.019127,,0.188519031,19.109,18.27975,5.233136219,2,1,6,3
15,17,4,0,0,Low,7,87.5,100,415.6692286,,0.210503915,10,100,100,482.19574,,0.207384661,8,100,96.875,677.1924125,834.154,0.147668518,300.0025,126.256,75,62.5,0,1,8.333333333,95.83333333,525.019127,,0.188519031,50.237,18.27975,1.492923542,2,1,6,3
15,18,4,0,0,Low,7,87.5,100,415.6692286,,0.210503915,10,100,100,482.19574,,0.207384661,8,100,96.875,677.1924125,834.154,0.147668518,300.0025,126.256,75,62.5,1,0,8.333333333,95.83333333,525.019127,,0.188519031,32.533,18.27975,2.305351489,2,1,6,3
15,19,4,0,0,Low,7,87.5,100,415.6692286,,0.210503915,10,100,100,482.19574,,0.207384661,8,100,96.875,677.1924125,834.154,0.147668518,300.0025,126.256,75,62.5,1,0,8.333333333,95.83333333,525.019127,,0.188519031,31.153,18.27975,2.407472796,2,1,6,3
15,20,4,0,0,Low,7,87.5,100,415.6692286,,0.210503915,10,100,100,482.19574,,0.207384661,8,100,96.875,677.1924125,834.154,0.147668518,300.0025,126.256,75,62.5,1,0,8.333333333,95.83333333,525.019127,,0.188519031,40.893,18.27975,1.834054728,2,1,6,3
15,21,5,0,0,Low,7,87.5,100,415.6692286,,0.210503915,10,100,100,482.19574,,0.207384661,8,100,96.875,677.1924125,834.154,0.147668518,300.0025,126.256,50,62.5,0,1,8.333333333,95.83333333,525.019127,,0.188519031,11.323,18.27975,4.415790868,2,1,6,3
15,22,5,0,0,Low,7,87.5,100,415.6692286,,0.210503915,10,100,100,482.19574,,0.207384661,8,100,96.875,677.1924125,834.154,0.147668518,300.0025,126.256,50,62.5,1,0,8.333333333,95.83333333,525.019127,,0.188519031,36.599,18.27975,1.366157545,2,1,6,3
15,23,5,0,0,Low,7,87.5,100,415.6692286,,0.210503915,10,100,100,482.19574,,0.207384661,8,100,96.875,677.1924125,834.154,0.147668518,300.0025,126.256,50,62.5,1,0,8.333333333,95.83333333,525.019127,,0.188519031,25.606,18.27975,1.952667344,2,1,6,3
15,24,5,0,0,Low,7,87.5,100,415.6692286,,0.210503915,10,100,100,482.19574,,0.207384661,8,100,96.875,677.1924125,834.154,0.147668518,300.0025,126.256,50,62.5,0,1,8.333333333,95.83333333,525.019127,,0.188519031,51.003,18.27975,0.98033449,2,1,6,3
15,25,6,0,0,Low,7,87.5,100,415.6692286,,0.210503915,10,100,100,482.19574,,0.207384661,8,100,96.875,677.1924125,834.154,0.147668518,300.0025,126.256,25,62.5,1,0,8.333333333,95.83333333,525.019127,,0.188519031,21.058,18.27975,1.187197265,2,1,6,3
15,26,6,0,0,Low,7,87.5,100,415.6692286,,0.210503915,10,100,100,482.19574,,0.207384661,8,100,96.875,677.1924125,834.154,0.147668518,300.0025,126.256,25,62.5,0,1,8.333333333,95.83333333,525.019127,,0.188519031,43.127,18.27975,0.579683261,2,1,6,3
15,27,6,0,0,Low,7,87.5,100,415.6692286,,0.210503915,10,100,100,482.19574,,0.207384661,8,100,96.875,677.1924125,834.154,0.147668518,300.0025,126.256,25,62.5,0,1,8.333333333,95.83333333,525.019127,,0.188519031,31.538,18.27975,0.792694527,2,1,6,3
15,28,6,0,0,Low,7,87.5,100,415.6692286,,0.210503915,10,100,100,482.19574,,0.207384661,8,100,96.875,677.1924125,834.154,0.147668518,300.0025,126.256,25,62.5,0,1,8.333333333,95.83333333,525.019127,,0.188519031,35.581,18.27975,0.702622186,2,1,6,3
15,29,7,0,0,Low,7,87.5,100,415.6692286,,0.210503915,10,100,100,482.19574,,0.207384661,8,100,96.875,677.1924125,834.154,0.147668518,300.0025,126.256,50,62.5,1,0,8.333333333,95.83333333,525.019127,,0.188519031,17.461,18.27975,2.863524426,2,1,6,3
15,30,7,0,0,Low,7,87.5,100,415.6692286,,0.210503915,10,100,100,482.19574,,0.207384661,8,100,96.875,677.1924125,834.154,0.147668518,300.0025,126.256,50,62.5,0,1,8.333333333,95.83333333,525.019127,,0.188519031,33.152,18.27975,1.508204633,2,1,6,3
15,31,7,0,0,Low,7,87.5,100,415.6692286,,0.210503915,10,100,100,482.19574,,0.207384661,8,100,96.875,677.1924125,834.154,0.147668518,300.0025,126.256,50,62.5,1,0,8.333333333,95.83333333,525.019127,,0.188519031,37.113,18.27975,1.347236817,2,1,6,3
15,32,7,0,0,Low,7,87.5,100,415.6692286,,0.210503915,10,100,100,482.19574,,0.207384661,8,100,96.875,677.1924125,834.154,0.147668518,300.0025,126.256,50,62.5,0,1,8.333333333,95.83333333,525.019127,,0.188519031,38.53,18.27975,1.297690112,2,1,6,3
16,1,0,9,37.5,Low,8,100,100,493.83675,,0.202496068,9,90,100,545.0597,,0.165119527,8,100,100,511.578625,,0.195473374,300.006,61.825,75,68.75,1,0,8.333333333,96.66666667,516.825025,,0.187696323,22.014,18.27975,3.406922867,1,1,5,2
16,2,0,9,37.5,Low,8,100,100,493.83675,,0.202496068,9,90,100,545.0597,,0.165119527,8,100,100,511.578625,,0.195473374,300.006,61.825,75,68.75,1,0,8.333333333,96.66666667,516.825025,,0.187696323,17.746,18.27975,4.226304519,1,1,5,2
16,3,0,9,37.5,Low,8,100,100,493.83675,,0.202496068,9,90,100,545.0597,,0.165119527,8,100,100,511.578625,,0.195473374,300.006,61.825,75,68.75,0,1,8.333333333,96.66666667,516.825025,,0.187696323,39.093,18.27975,1.918502034,1,1,5,2
16,4,0,9,37.5,Low,8,100,100,493.83675,,0.202496068,9,90,100,545.0597,,0.165119527,8,100,100,511.578625,,0.195473374,300.006,61.825,75,68.75,1,0,8.333333333,96.66666667,516.825025,,0.187696323,19.004,18.27975,3.946537571,1,1,5,2
16,5,1,9,37.5,Low,8,100,100,493.83675,,0.202496068,9,90,100,545.0597,,0.165119527,8,100,100,511.578625,,0.195473374,300.006,61.825,100,68.75,1,0,8.333333333,96.66666667,516.825025,,0.187696323,20.013,18.27975,4.996752111,1,1,5,2
16,6,1,9,37.5,Low,8,100,100,493.83675,,0.202496068,9,90,100,545.0597,,0.165119527,8,100,100,511.578625,,0.195473374,300.006,61.825,100,68.75,1,0,8.333333333,96.66666667,516.825025,,0.187696323,9.213,18.27975,10.85422772,1,1,5,2
16,7,1,9,37.5,Low,8,100,100,493.83675,,0.202496068,9,90,100,545.0597,,0.165119527,8,100,100,511.578625,,0.195473374,300.006,61.825,100,68.75,1,0,8.333333333,96.66666667,516.825025,,0.187696323,12.41,18.27975,8.058017728,1,1,5,2
16,8,1,9,37.5,Low,8,100,100,493.83675,,0.202496068,9,90,100,545.0597,,0.165119527,8,100,100,511.578625,,0.195473374,300.006,61.825,100,68.75,1,0,8.333333333,96.66666667,516.825025,,0.187696323,17.602,18.27975,5.681172594,1,1,5,2
16,9,2,9,37.5,Low,8,100,100,493.83675,,0.202496068,9,90,100,545.0597,,0.165119527,8,100,100,511.578625,,0.195473374,300.006,61.825,75,68.75,1,0,8.333333333,96.66666667,516.825025,,0.187696323,11.918,18.27975,6.293002182,1,1,5,2
16,10,2,9,37.5,Low,8,100,100,493.83675,,0.202496068,9,90,100,545.0597,,0.165119527,8,100,100,511.578625,,0.195473374,300.006,61.825,75,68.75,0,1,8.333333333,96.66666667,516.825025,,0.187696323,23.14,18.27975,3.241140882,1,1,5,2
16,11,2,9,37.5,Low,8,100,100,493.83675,,0.202496068,9,90,100,545.0597,,0.165119527,8,100,100,511.578625,,0.195473374,300.006,61.825,75,68.75,1,0,8.333333333,96.66666667,516.825025,,0.187696323,26.421,18.27975,2.838651073,1,1,5,2
16,12,2,9,37.5,Low,8,100,100,493.83675,,0.202496068,9,90,100,545.0597,,0.165119527,8,100,100,511.578625,,0.195473374,300.006,61.825,75,68.75,1,0,8.333333333,96.66666667,516.825025,,0.187696323,13.898,18.27975,5.396459922,1,1,5,2
16,13,3,9,37.5,Low,8,100,100,493.83675,,0.202496068,9,90,100,545.0597,,0.165119527,8,100,100,511.578625,,0.195473374,300.006,61.825,75,68.75,1,0,8.333333333,96.66666667,516.825025,,0.187696323,19.755,18.27975,3.796507213,1,1,5,2
16,14,3,9,37.5,Low,8,100,100,493.83675,,0.202496068,9,90,100,545.0597,,0.165119527,8,100,100,511.578625,,0.195473374,300.006,61.825,75,68.75,1,0,8.333333333,96.66666667,516.825025,,0.187696323,21.178,18.27975,3.541410898,1,1,5,2
16,15,3,9,37.5,Low,8,100,100,493.83675,,0.202496068,9,90,100,545.0597,,0.165119527,8,100,100,511.578625,,0.195473374,300.006,61.825,75,68.75,0,1,8.333333333,96.66666667,516.825025,,0.187696323,26.937,18.27975,2.784274418,1,1,5,2
16,16,3,9,37.5,Low,8,100,100,493.83675,,0.202496068,9,90,100,545.0597,,0.165119527,8,100,100,511.578625,,0.195473374,300.006,61.825,75,68.75,1,0,8.333333333,96.66666667,516.825025,,0.187696323,13.166,18.27975,5.696490962,1,1,5,2
16,17,4,9,37.5,Low,8,100,100,493.83675,,0.202496068,9,90,100,545.0597,,0.165119527,8,100,100,511.578625,,0.195473374,300.006,61.825,75,68.75,1,0,8.333333333,96.66666667,516.825025,,0.187696323,24.391,18.27975,3.074904678,1,1,5,2
16,18,4,9,37.5,Low,8,100,100,493.83675,,0.202496068,9,90,100,545.0597,,0.165119527,8,100,100,511.578625,,0.195473374,300.006,61.825,75,68.75,0,1,8.333333333,96.66666667,516.825025,,0.187696323,27.453,18.27975,2.731941864,1,1,5,2
16,19,4,9,37.5,Low,8,100,100,493.83675,,0.202496068,9,90,100,545.0597,,0.165119527,8,100,100,511.578625,,0.195473374,300.006,61.825,75,68.75,1,0,8.333333333,96.66666667,516.825025,,0.187696323,16.792,18.27975,4.466412577,1,1,5,2
16,20,4,9,37.5,Low,8,100,100,493.83675,,0.202496068,9,90,100,545.0597,,0.165119527,8,100,100,511.578625,,0.195473374,300.006,61.825,75,68.75,1,0,8.333333333,96.66666667,516.825025,,0.187696323,15.947,18.27975,4.703078949,1,1,5,2
16,21,5,9,37.5,Low,8,100,100,493.83675,,0.202496068,9,90,100,545.0597,,0.165119527,8,100,100,511.578625,,0.195473374,300.006,61.825,75,68.75,1,0,8.333333333,96.66666667,516.825025,,0.187696323,13.787,18.27975,5.439907159,1,1,5,2
16,22,5,9,37.5,Low,8,100,100,493.83675,,0.202496068,9,90,100,545.0597,,0.165119527,8,100,100,511.578625,,0.195473374,300.006,61.825,75,68.75,1,0,8.333333333,96.66666667,516.825025,,0.187696323,18.877,18.27975,3.973088944,1,1,5,2
16,23,5,9,37.5,Low,8,100,100,493.83675,,0.202496068,9,90,100,545.0597,,0.165119527,8,100,100,511.578625,,0.195473374,300.006,61.825,75,68.75,1,0,8.333333333,96.66666667,516.825025,,0.187696323,15.131,18.27975,4.956711387,1,1,5,2
16,24,5,9,37.5,Low,8,100,100,493.83675,,0.202496068,9,90,100,545.0597,,0.165119527,8,100,100,511.578625,,0.195473374,300.006,61.825,75,68.75,0,1,8.333333333,96.66666667,516.825025,,0.187696323,17.176,18.27975,4.366557988,1,1,5,2
16,25,6,9,37.5,Low,8,100,100,493.83675,,0.202496068,9,90,100,545.0597,,0.165119527,8,100,100,511.578625,,0.195473374,300.006,61.825,75,68.75,1,0,8.333333333,96.66666667,516.825025,,0.187696323,9.222,18.27975,8.13272609,1,1,5,2
16,26,6,9,37.5,Low,8,100,100,493.83675,,0.202496068,9,90,100,545.0597,,0.165119527,8,100,100,511.578625,,0.195473374,300.006,61.825,75,68.75,1,0,8.333333333,96.66666667,516.825025,,0.187696323,11.629,18.27975,6.449393757,1,1,5,2
16,27,6,9,37.5,Low,8,100,100,493.83675,,0.202496068,9,90,100,545.0597,,0.165119527,8,100,100,511.578625,,0.195473374,300.006,61.825,75,68.75,1,0,8.333333333,96.66666667,516.825025,,0.187696323,25.055,18.27975,2.993414488,1,1,5,2
16,28,6,9,37.5,Low,8,100,100,493.83675,,0.202496068,9,90,100,545.0597,,0.165119527,8,100,100,511.578625,,0.195473374,300.006,61.825,75,68.75,0,1,8.333333333,96.66666667,516.825025,,0.187696323,15.524,18.27975,4.831229065,1,1,5,2
16,29,7,9,37.5,Low,8,100,100,493.83675,,0.202496068,9,90,100,545.0597,,0.165119527,8,100,100,511.578625,,0.195473374,300.006,61.825,0,68.75,0,1,8.333333333,96.66666667,516.825025,,0.187696323,23.922,18.27975,0,1,1,5,2
16,30,7,9,37.5,Low,8,100,100,493.83675,,0.202496068,9,90,100,545.0597,,0.165119527,8,100,100,511.578625,,0.195473374,300.006,61.825,0,68.75,0,1,8.333333333,96.66666667,516.825025,,0.187696323,4.207,18.27975,0,1,1,5,2
16,31,7,9,37.5,Low,8,100,100,493.83675,,0.202496068,9,90,100,545.0597,,0.165119527,8,100,100,511.578625,,0.195473374,300.006,61.825,0,68.75,0,1,8.333333333,96.66666667,516.825025,,0.187696323,9.218,18.27975,0,1,1,5,2
16,32,7,9,37.5,Low,8,100,100,493.83675,,0.202496068,9,90,100,545.0597,,0.165119527,8,100,100,511.578625,,0.195473374,300.006,61.825,0,68.75,0,1,8.333333333,96.66666667,516.825025,,0.187696323,24.478,18.27975,0,1,1,5,2
20,1,0,11,45.83,High,8,100,71.875,552.762125,378.0111778,0.180909645,9,90,100,470.9427556,,0.191106029,4,50,96.875,882.451275,1376.9507,0.056660352,300.007,131.64,75,75,1,0,7,80,635.3853852,,0.142892009,24.555,18.27975,3.054367746,3,2,8,1
20,2,0,11,45.83,High,8,100,71.875,552.762125,378.0111778,0.180909645,9,90,100,470.9427556,,0.191106029,4,50,96.875,882.451275,1376.9507,0.056660352,300.007,131.64,75,75,0,1,7,80,635.3853852,,0.142892009,35.677,18.27975,2.102194691,3,2,8,1
20,3,0,11,45.83,High,8,100,71.875,552.762125,378.0111778,0.180909645,9,90,100,470.9427556,,0.191106029,4,50,96.875,882.451275,1376.9507,0.056660352,300.007,131.64,75,75,1,0,7,80,635.3853852,,0.142892009,46.91,18.27975,1.598806225,3,2,8,1
20,4,0,11,45.83,High,8,100,71.875,552.762125,378.0111778,0.180909645,9,90,100,470.9427556,,0.191106029,4,50,96.875,882.451275,1376.9507,0.056660352,300.007,131.64,75,75,1,0,7,80,635.3853852,,0.142892009,28.273,18.27975,2.65270753,3,2,8,1
20,5,1,11,45.83,High,8,100,71.875,552.762125,378.0111778,0.180909645,9,90,100,470.9427556,,0.191106029,4,50,96.875,882.451275,1376.9507,0.056660352,300.007,131.64,100,75,1,0,7,80,635.3853852,,0.142892009,29.366,18.27975,3.405298645,3,2,8,1
20,6,1,11,45.83,High,8,100,71.875,552.762125,378.0111778,0.180909645,9,90,100,470.9427556,,0.191106029,4,50,96.875,882.451275,1376.9507,0.056660352,300.007,131.64,100,75,1,0,7,80,635.3853852,,0.142892009,30.412,18.27975,3.28817572,3,2,8,1
20,7,1,11,45.83,High,8,100,71.875,552.762125,378.0111778,0.180909645,9,90,100,470.9427556,,0.191106029,4,50,96.875,882.451275,1376.9507,0.056660352,300.007,131.64,100,75,1,0,7,80,635.3853852,,0.142892009,22.423,18.27975,4.459706551,3,2,8,1
20,8,1,11,45.83,High,8,100,71.875,552.762125,378.0111778,0.180909645,9,90,100,470.9427556,,0.191106029,4,50,96.875,882.451275,1376.9507,0.056660352,300.007,131.64,100,75,1,0,7,80,635.3853852,,0.142892009,44.834,18.27975,2.230450105,3,2,8,1
20,9,2,11,45.83,High,8,100,71.875,552.762125,378.0111778,0.180909645,9,90,100,470.9427556,,0.191106029,4,50,96.875,882.451275,1376.9507,0.056660352,300.007,131.64,75,75,1,0,7,80,635.3853852,,0.142892009,31.187,18.27975,2.404848174,3,2,8,1
20,10,2,11,45.83,High,8,100,71.875,552.762125,378.0111778,0.180909645,9,90,100,470.9427556,,0.191106029,4,50,96.875,882.451275,1376.9507,0.056660352,300.007,131.64,75,75,1,0,7,80,635.3853852,,0.142892009,30.441,18.27975,2.463782399,3,2,8,1
20,11,2,11,45.83,High,8,100,71.875,552.762125,378.0111778,0.180909645,9,90,100,470.9427556,,0.191106029,4,50,96.875,882.451275,1376.9507,0.056660352,300.007,131.64,75,75,1,0,7,80,635.3853852,,0.142892009,30.209,18.27975,2.48270383,3,2,8,1
20,12,2,11,45.83,High,8,100,71.875,552.762125,378.0111778,0.180909645,9,90,100,470.9427556,,0.191106029,4,50,96.875,882.451275,1376.9507,0.056660352,300.007,131.64,75,75,0,1,7,80,635.3853852,,0.142892009,33.395,18.27975,2.245845186,3,2,8,1
20,13,3,11,45.83,High,8,100,71.875,552.762125,378.0111778,0.180909645,9,90,100,470.9427556,,0.191106029,4,50,96.875,882.451275,1376.9507,0.056660352,300.007,131.64,75,75,0,1,7,80,635.3853852,,0.142892009,43.703,18.27975,1.716129328,3,2,8,1
20,14,3,11,45.83,High,8,100,71.875,552.762125,378.0111778,0.180909645,9,90,100,470.9427556,,0.191106029,4,50,96.875,882.451275,1376.9507,0.056660352,300.007,131.64,75,75,1,0,7,80,635.3853852,,0.142892009,20.479,18.27975,3.662288198,3,2,8,1
20,15,3,11,45.83,High,8,100,71.875,552.762125,378.0111778,0.180909645,9,90,100,470.9427556,,0.191106029,4,50,96.875,882.451275,1376.9507,0.056660352,300.007,131.64,75,75,1,0,7,80,635.3853852,,0.142892009,31.252,18.27975,2.39984641,3,2,8,1
20,16,3,11,45.83,High,8,100,71.875,552.762125,378.0111778,0.180909645,9,90,100,470.9427556,,0.191106029,4,50,96.875,882.451275,1376.9507,0.056660352,300.007,131.64,75,75,1,0,7,80,635.3853852,,0.142892009,16.144,18.27975,4.645688801,3,2,8,1
20,17,4,11,45.83,High,8,100,71.875,552.762125,378.0111778,0.180909645,9,90,100,470.9427556,,0.191106029,4,50,96.875,882.451275,1376.9507,0.056660352,300.007,131.64,50,75,0,1,7,80,635.3853852,,0.142892009,35.3,18.27975,1.416430595,3,2,8,1
20,18,4,11,45.83,High,8,100,71.875,552.762125,378.0111778,0.180909645,9,90,100,470.9427556,,0.191106029,4,50,96.875,882.451275,1376.9507,0.056660352,300.007,131.64,50,75,1,0,7,80,635.3853852,,0.142892009,21.323,18.27975,2.344885804,3,2,8,1
20,19,4,11,45.83,High,8,100,71.875,552.762125,378.0111778,0.180909645,9,90,100,470.9427556,,0.191106029,4,50,96.875,882.451275,1376.9507,0.056660352,300.007,131.64,50,75,1,0,7,80,635.3853852,,0.142892009,22.478,18.27975,2.224397188,3,2,8,1
20,20,4,11,45.83,High,8,100,71.875,552.762125,378.0111778,0.180909645,9,90,100,470.9427556,,0.191106029,4,50,96.875,882.451275,1376.9507,0.056660352,300.007,131.64,50,75,0,1,7,80,635.3853852,,0.142892009,43.903,18.27975,1.138874337,3,2,8,1
20,21,5,11,45.83,High,8,100,71.875,552.762125,378.0111778,0.180909645,9,90,100,470.9427556,,0.191106029,4,50,96.875,882.451275,1376.9507,0.056660352,300.007,131.64,50,75,1,0,7,80,635.3853852,,0.142892009,17.268,18.27975,2.895529303,3,2,8,1
20,22,5,11,45.83,High,8,100,71.875,552.762125,378.0111778,0.180909645,9,90,100,470.9427556,,0.191106029,4,50,96.875,882.451275,1376.9507,0.056660352,300.007,131.64,50,75,0,1,7,80,635.3853852,,0.142892009,29.155,18.27975,1.714971703,3,2,8,1
20,23,5,11,45.83,High,8,100,71.875,552.762125,378.0111778,0.180909645,9,90,100,470.9427556,,0.191106029,4,50,96.875,882.451275,1376.9507,0.056660352,300.007,131.64,50,75,1,0,7,80,635.3853852,,0.142892009,19.535,18.27975,2.559508574,3,2,8,1
20,24,5,11,45.83,High,8,100,71.875,552.762125,378.0111778,0.180909645,9,90,100,470.9427556,,0.191106029,4,50,96.875,882.451275,1376.9507,0.056660352,300.007,131.64,50,75,0,1,7,80,635.3853852,,0.142892009,31.608,18.27975,1.581878006,3,2,8,1
20,25,6,11,45.83,High,8,100,71.875,552.762125,378.0111778,0.180909645,9,90,100,470.9427556,,0.191106029,4,50,96.875,882.451275,1376.9507,0.056660352,300.007,131.64,100,75,1,0,7,80,635.3853852,,0.142892009,25.829,18.27975,3.871617174,3,2,8,1
20,26,6,11,45.83,High,8,100,71.875,552.762125,378.0111778,0.180909645,9,90,100,470.9427556,,0.191106029,4,50,96.875,882.451275,1376.9507,0.056660352,300.007,131.64,100,75,1,0,7,80,635.3853852,,0.142892009,33.357,18.27975,2.997871511,3,2,8,1
20,27,6,11,45.83,High,8,100,71.875,552.762125,378.0111778,0.180909645,9,90,100,470.9427556,,0.191106029,4,50,96.875,882.451275,1376.9507,0.056660352,300.007,131.64,100,75,1,0,7,80,635.3853852,,0.142892009,42.413,18.27975,2.357767666,3,2,8,1
20,28,6,11,45.83,High,8,100,71.875,552.762125,378.0111778,0.180909645,9,90,100,470.9427556,,0.191106029,4,50,96.875,882.451275,1376.9507,0.056660352,300.007,131.64,100,75,1,0,7,80,635.3853852,,0.142892009,23.61,18.27975,4.235493435,3,2,8,1
20,29,7,11,45.83,High,8,100,71.875,552.762125,378.0111778,0.180909645,9,90,100,470.9427556,,0.191106029,4,50,96.875,882.451275,1376.9507,0.056660352,300.007,131.64,75,75,1,0,7,80,635.3853852,,0.142892009,15.882,18.27975,4.722327163,3,2,8,1
20,30,7,11,45.83,High,8,100,71.875,552.762125,378.0111778,0.180909645,9,90,100,470.9427556,,0.191106029,4,50,96.875,882.451275,1376.9507,0.056660352,300.007,131.64,75,75,1,0,7,80,635.3853852,,0.142892009,31.363,18.27975,2.391352868,3,2,8,1
20,31,7,11,45.83,High,8,100,71.875,552.762125,378.0111778,0.180909645,9,90,100,470.9427556,,0.191106029,4,50,96.875,882.451275,1376.9507,0.056660352,300.007,131.64,75,75,1,0,7,80,635.3853852,,0.142892009,42.259,18.27975,1.774769872,3,2,8,1
20,32,7,11,45.83,High,8,100,71.875,552.762125,378.0111778,0.180909645,9,90,100,470.9427556,,0.191106029,4,50,96.875,882.451275,1376.9507,0.056660352,300.007,131.64,75,75,0,1,7,80,635.3853852,,0.142892009,42.136,18.27975,1.779950636,3,2,8,1
21,1,0,14,58.33,High,8,100,100,467.178425,,0.214050981,9,90,100,378.0194,,0.238083019,8,100,93.75,488.458475,443.8682,0.204725693,300.003,90.414,100,78.125,1,0,8.333333333,96.66666667,444.5521,,0.218953231,35.807,18.27975,2.792750021,1,1,6,1
21,2,0,14,58.33,High,8,100,100,467.178425,,0.214050981,9,90,100,378.0194,,0.238083019,8,100,93.75,488.458475,443.8682,0.204725693,300.003,90.414,100,78.125,1,0,8.333333333,96.66666667,444.5521,,0.218953231,19.556,18.27975,5.113520147,1,1,6,1
21,3,0,14,58.33,High,8,100,100,467.178425,,0.214050981,9,90,100,378.0194,,0.238083019,8,100,93.75,488.458475,443.8682,0.204725693,300.003,90.414,100,78.125,1,0,8.333333333,96.66666667,444.5521,,0.218953231,22.582,18.27975,4.42830573,1,1,6,1
21,4,0,14,58.33,High,8,100,100,467.178425,,0.214050981,9,90,100,378.0194,,0.238083019,8,100,93.75,488.458475,443.8682,0.204725693,300.003,90.414,100,78.125,1,0,8.333333333,96.66666667,444.5521,,0.218953231,26.895,18.27975,3.718163227,1,1,6,1
21,5,1,14,58.33,High,8,100,100,467.178425,,0.214050981,9,90,100,378.0194,,0.238083019,8,100,93.75,488.458475,443.8682,0.204725693,300.003,90.414,100,78.125,1,0,8.333333333,96.66666667,444.5521,,0.218953231,26.937,18.27975,3.712365891,1,1,6,1
21,6,1,14,58.33,High,8,100,100,467.178425,,0.214050981,9,90,100,378.0194,,0.238083019,8,100,93.75,488.458475,443.8682,0.204725693,300.003,90.414,100,78.125,1,0,8.333333333,96.66666667,444.5521,,0.218953231,26.645,18.27975,3.753049353,1,1,6,1
21,7,1,14,58.33,High,8,100,100,467.178425,,0.214050981,9,90,100,378.0194,,0.238083019,8,100,93.75,488.458475,443.8682,0.204725693,300.003,90.414,100,78.125,1,0,8.333333333,96.66666667,444.5521,,0.218953231,17.868,18.27975,5.596597269,1,1,6,1
21,8,1,14,58.33,High,8,100,100,467.178425,,0.214050981,9,90,100,378.0194,,0.238083019,8,100,93.75,488.458475,443.8682,0.204725693,300.003,90.414,100,78.125,1,0,8.333333333,96.66666667,444.5521,,0.218953231,21.166,18.27975,4.724558254,1,1,6,1
21,9,2,14,58.33,High,8,100,100,467.178425,,0.214050981,9,90,100,378.0194,,0.238083019,8,100,93.75,488.458475,443.8682,0.204725693,300.003,90.414,100,78.125,1,0,8.333333333,96.66666667,444.5521,,0.218953231,18.299,18.27975,5.464779496,1,1,6,1
21,10,2,14,58.33,High,8,100,100,467.178425,,0.214050981,9,90,100,378.0194,,0.238083019,8,100,93.75,488.458475,443.8682,0.204725693,300.003,90.414,100,78.125,1,0,8.333333333,96.66666667,444.5521,,0.218953231,24.427,18.27975,4.093830597,1,1,6,1
21,11,2,14,58.33,High,8,100,100,467.178425,,0.214050981,9,90,100,378.0194,,0.238083019,8,100,93.75,488.458475,443.8682,0.204725693,300.003,90.414,100,78.125,1,0,8.333333333,96.66666667,444.5521,,0.218953231,14.689,18.27975,6.807815372,1,1,6,1
21,12,2,14,58.33,High,8,100,100,467.178425,,0.214050981,9,90,100,378.0194,,0.238083019,8,100,93.75,488.458475,443.8682,0.204725693,300.003,90.414,100,78.125,1,0,8.333333333,96.66666667,444.5521,,0.218953231,15.142,18.27975,6.604147405,1,1,6,1
21,13,3,14,58.33,High,8,100,100,467.178425,,0.214050981,9,90,100,378.0194,,0.238083019,8,100,93.75,488.458475,443.8682,0.204725693,300.003,90.414,75,78.125,0,1,8.333333333,96.66666667,444.5521,,0.218953231,17.798,18.27975,4.213956624,1,1,6,1
21,14,3,14,58.33,High,8,100,100,467.178425,,0.214050981,9,90,100,378.0194,,0.238083019,8,100,93.75,488.458475,443.8682,0.204725693,300.003,90.414,75,78.125,1,0,8.333333333,96.66666667,444.5521,,0.218953231,22.692,18.27975,3.305129561,1,1,6,1
21,15,3,14,58.33,High,8,100,100,467.178425,,0.214050981,9,90,100,378.0194,,0.238083019,8,100,93.75,488.458475,443.8682,0.204725693,300.003,90.414,75,78.125,1,0,8.333333333,96.66666667,444.5521,,0.218953231,17.623,18.27975,4.255802077,1,1,6,1
21,16,3,14,58.33,High,8,100,100,467.178425,,0.214050981,9,90,100,378.0194,,0.238083019,8,100,93.75,488.458475,443.8682,0.204725693,300.003,90.414,75,78.125,1,0,8.333333333,96.66666667,444.5521,,0.218953231,18.015,18.27975,4.163197336,1,1,6,1
21,17,4,14,58.33,High,8,100,100,467.178425,,0.214050981,9,90,100,378.0194,,0.238083019,8,100,93.75,488.458475,443.8682,0.204725693,300.003,90.414,25,78.125,0,1,8.333333333,96.66666667,444.5521,,0.218953231,29.833,18.27975,0.83799819,1,1,6,1
21,18,4,14,58.33,High,8,100,100,467.178425,,0.214050981,9,90,100,378.0194,,0.238083019,8,100,93.75,488.458475,443.8682,0.204725693,300.003,90.414,25,78.125,0,1,8.333333333,96.66666667,444.5521,,0.218953231,7.905,18.27975,3.162555345,1,1,6,1
21,19,4,14,58.33,High,8,100,100,467.178425,,0.214050981,9,90,100,378.0194,,0.238083019,8,100,93.75,488.458475,443.8682,0.204725693,300.003,90.414,25,78.125,1,0,8.333333333,96.66666667,444.5521,,0.218953231,32.674,18.27975,0.765134358,1,1,6,1
21,20,4,14,58.33,High,8,100,100,467.178425,,0.214050981,9,90,100,378.0194,,0.238083019,8,100,93.75,488.458475,443.8682,0.204725693,300.003,90.414,25,78.125,0,1,8.333333333,96.66666667,444.5521,,0.218953231,29.941,18.27975,0.834975452,1,1,6,1
21,21,5,14,58.33,High,8,100,100,467.178425,,0.214050981,9,90,100,378.0194,,0.238083019,8,100,93.75,488.458475,443.8682,0.204725693,300.003,90.414,75,78.125,1,0,8.333333333,96.66666667,444.5521,,0.218953231,17.309,18.27975,4.333005951,1,1,6,1
21,22,5,14,58.33,High,8,100,100,467.178425,,0.214050981,9,90,100,378.0194,,0.238083019,8,100,93.75,488.458475,443.8682,0.204725693,300.003,90.414,75,78.125,1,0,8.333333333,96.66666667,444.5521,,0.218953231,18.775,18.27975,3.994673768,1,1,6,1
21,23,5,14,58.33,High,8,100,100,467.178425,,0.214050981,9,90,100,378.0194,,0.238083019,8,100,93.75,488.458475,443.8682,0.204725693,300.003,90.414,75,78.125,0,1,8.333333333,96.66666667,444.5521,,0.218953231,18.162,18.27975,4.129501156,1,1,6,1
21,24,5,14,58.33,High,8,100,100,467.178425,,0.214050981,9,90,100,378.0194,,0.238083019,8,100,93.75,488.458475,443.8682,0.204725693,300.003,90.414,75,78.125,1,0,8.333333333,96.66666667,444.5521,,0.218953231,20.647,18.27975,3.632488981,1,1,6,1
21,25,6,14,58.33,High,8,100,100,467.178425,,0.214050981,9,90,100,378.0194,,0.238083019,8,100,93.75,488.458475,443.8682,0.204725693,300.003,90.414,100,78.125,1,0,8.333333333,96.66666667,444.5521,,0.218953231,13.2,18.27975,7.575757576,1,1,6,1
21,26,6,14,58.33,High,8,100,100,467.178425,,0.214050981,9,90,100,378.0194,,0.238083019,8,100,93.75,488.458475,443.8682,0.204725693,300.003,90.414,100,78.125,1,0,8.333333333,96.66666667,444.5521,,0.218953231,19.919,18.27975,5.020332346,1,1,6,1
21,27,6,14,58.33,High,8,100,100,467.178425,,0.214050981,9,90,100,378.0194,,0.238083019,8,100,93.75,488.458475,443.8682,0.204725693,300.003,90.414,100,78.125,1,0,8.333333333,96.66666667,444.5521,,0.218953231,20.812,18.27975,4.804920238,1,1,6,1
21,28,6,14,58.33,High,8,100,100,467.178425,,0.214050981,9,90,100,378.0194,,0.238083019,8,100,93.75,488.458475,443.8682,0.204725693,300.003,90.414,100,78.125,1,0,8.333333333,96.66666667,444.5521,,0.218953231,24.162,18.27975,4.138730238,1,1,6,1
21,29,7,14,58.33,High,8,100,100,467.178425,,0.214050981,9,90,100,378.0194,,0.238083019,8,100,93.75,488.458475,443.8682,0.204725693,300.003,90.414,50,78.125,1,0,8.333333333,96.66666667,444.5521,,0.218953231,20.746,18.27975,2.410103152,1,1,6,1
21,30,7,14,58.33,High,8,100,100,467.178425,,0.214050981,9,90,100,378.0194,,0.238083019,8,100,93.75,488.458475,443.8682,0.204725693,300.003,90.414,50,78.125,1,0,8.333333333,96.66666667,444.5521,,0.218953231,24.8,18.27975,2.016129032,1,1,6,1
21,31,7,14,58.33,High,8,100,100,467.178425,,0.214050981,9,90,100,378.0194,,0.238083019,8,100,93.75,488.458475,443.8682,0.204725693,300.003,90.414,50,78.125,0,1,8.333333333,96.66666667,444.5521,,0.218953231,20.957,18.27975,2.385837668,1,1,6,1
21,32,7,14,58.33,High,8,100,100,467.178425,,0.214050981,9,90,100,378.0194,,0.238083019,8,100,93.75,488.458475,443.8682,0.204725693,300.003,90.414,50,78.125,0,1,8.333333333,96.66666667,444.5521,,0.218953231,23.911,18.27975,2.091087784,1,1,6,1
22,1,0,14,58.33,High,8,100,100,415.093075,,0.240909825,10,100,100,384.19541,,0.260284213,8,100,100,416.1763625,,0.240282748,300.008,87.131,50,87.5,0,1,8.666666667,100,405.1549492,,0.247158929,21.609,18.27975,2.31385071,1,2,5,1
22,2,0,14,58.33,High,8,100,100,415.093075,,0.240909825,10,100,100,384.19541,,0.260284213,8,100,100,416.1763625,,0.240282748,300.008,87.131,50,87.5,1,0,8.666666667,100,405.1549492,,0.247158929,11.972,18.27975,4.176411627,1,2,5,1
22,3,0,14,58.33,High,8,100,100,415.093075,,0.240909825,10,100,100,384.19541,,0.260284213,8,100,100,416.1763625,,0.240282748,300.008,87.131,50,87.5,1,0,8.666666667,100,405.1549492,,0.247158929,20.663,18.27975,2.419784155,1,2,5,1
22,4,0,14,58.33,High,8,100,100,415.093075,,0.240909825,10,100,100,384.19541,,0.260284213,8,100,100,416.1763625,,0.240282748,300.008,87.131,50,87.5,0,1,8.666666667,100,405.1549492,,0.247158929,16.261,18.27975,3.074841646,1,2,5,1
22,5,1,14,58.33,High,8,100,100,415.093075,,0.240909825,10,100,100,384.19541,,0.260284213,8,100,100,416.1763625,,0.240282748,300.008,87.131,100,87.5,1,0,8.666666667,100,405.1549492,,0.247158929,24.037,18.27975,4.160252943,1,2,5,1
22,6,1,14,58.33,High,8,100,100,415.093075,,0.240909825,10,100,100,384.19541,,0.260284213,8,100,100,416.1763625,,0.240282748,300.008,87.131,100,87.5,1,0,8.666666667,100,405.1549492,,0.247158929,12.15,18.27975,8.230452675,1,2,5,1
22,7,1,14,58.33,High,8,100,100,415.093075,,0.240909825,10,100,100,384.19541,,0.260284213,8,100,100,416.1763625,,0.240282748,300.008,87.131,100,87.5,1,0,8.666666667,100,405.1549492,,0.247158929,11.093,18.27975,9.014693951,1,2,5,1
22,8,1,14,58.33,High,8,100,100,415.093075,,0.240909825,10,100,100,384.19541,,0.260284213,8,100,100,416.1763625,,0.240282748,300.008,87.131,100,87.5,1,0,8.666666667,100,405.1549492,,0.247158929,19.422,18.27975,5.14880033,1,2,5,1
22,9,2,14,58.33,High,8,100,100,415.093075,,0.240909825,10,100,100,384.19541,,0.260284213,8,100,100,416.1763625,,0.240282748,300.008,87.131,100,87.5,1,0,8.666666667,100,405.1549492,,0.247158929,17.08,18.27975,5.854800937,1,2,5,1
22,10,2,14,58.33,High,8,100,100,415.093075,,0.240909825,10,100,100,384.19541,,0.260284213,8,100,100,416.1763625,,0.240282748,300.008,87.131,100,87.5,1,0,8.666666667,100,405.1549492,,0.247158929,25.624,18.27975,3.902591321,1,2,5,1
22,11,2,14,58.33,High,8,100,100,415.093075,,0.240909825,10,100,100,384.19541,,0.260284213,8,100,100,416.1763625,,0.240282748,300.008,87.131,100,87.5,1,0,8.666666667,100,405.1549492,,0.247158929,19.033,18.27975,5.25403247,1,2,5,1
22,12,2,14,58.33,High,8,100,100,415.093075,,0.240909825,10,100,100,384.19541,,0.260284213,8,100,100,416.1763625,,0.240282748,300.008,87.131,100,87.5,1,0,8.666666667,100,405.1549492,,0.247158929,16.74,18.27975,5.973715651,1,2,5,1
22,13,3,14,58.33,High,8,100,100,415.093075,,0.240909825,10,100,100,384.19541,,0.260284213,8,100,100,416.1763625,,0.240282748,300.008,87.131,100,87.5,1,0,8.666666667,100,405.1549492,,0.247158929,17.561,18.27975,5.694436536,1,2,5,1
22,14,3,14,58.33,High,8,100,100,415.093075,,0.240909825,10,100,100,384.19541,,0.260284213,8,100,100,416.1763625,,0.240282748,300.008,87.131,100,87.5,1,0,8.666666667,100,405.1549492,,0.247158929,14.225,18.27975,7.029876977,1,2,5,1
22,15,3,14,58.33,High,8,100,100,415.093075,,0.240909825,10,100,100,384.19541,,0.260284213,8,100,100,416.1763625,,0.240282748,300.008,87.131,100,87.5,1,0,8.666666667,100,405.1549492,,0.247158929,17.135,18.27975,5.83600817,1,2,5,1
22,16,3,14,58.33,High,8,100,100,415.093075,,0.240909825,10,100,100,384.19541,,0.260284213,8,100,100,416.1763625,,0.240282748,300.008,87.131,100,87.5,1,0,8.666666667,100,405.1549492,,0.247158929,10.527,18.27975,9.49938254,1,2,5,1
22,17,4,14,58.33,High,8,100,100,415.093075,,0.240909825,10,100,100,384.19541,,0.260284213,8,100,100,416.1763625,,0.240282748,300.008,87.131,100,87.5,1,0,8.666666667,100,405.1549492,,0.247158929,15.048,18.27975,6.645401382,1,2,5,1
22,18,4,14,58.33,High,8,100,100,415.093075,,0.240909825,10,100,100,384.19541,,0.260284213,8,100,100,416.1763625,,0.240282748,300.008,87.131,100,87.5,1,0,8.666666667,100,405.1549492,,0.247158929,26.479,18.27975,3.776577665,1,2,5,1
22,19,4,14,58.33,High,8,100,100,415.093075,,0.240909825,10,100,100,384.19541,,0.260284213,8,100,100,416.1763625,,0.240282748,300.008,87.131,100,87.5,1,0,8.666666667,100,405.1549492,,0.247158929,18.317,18.27975,5.459409292,1,2,5,1
22,20,4,14,58.33,High,8,100,100,415.093075,,0.240909825,10,100,100,384.19541,,0.260284213,8,100,100,416.1763625,,0.240282748,300.008,87.131,100,87.5,1,0,8.666666667,100,405.1549492,,0.247158929,19.387,18.27975,5.158095631,1,2,5,1
22,21,5,14,58.33,High,8,100,100,415.093075,,0.240909825,10,100,100,384.19541,,0.260284213,8,100,100,416.1763625,,0.240282748,300.008,87.131,75,87.5,1,0,8.666666667,100,405.1549492,,0.247158929,9.151,18.27975,8.195825593,1,2,5,1
22,22,5,14,58.33,High,8,100,100,415.093075,,0.240909825,10,100,100,384.19541,,0.260284213,8,100,100,416.1763625,,0.240282748,300.008,87.131,75,87.5,1,0,8.666666667,100,405.1549492,,0.247158929,22.212,18.27975,3.376553214,1,2,5,1
22,23,5,14,58.33,High,8,100,100,415.093075,,0.240909825,10,100,100,384.19541,,0.260284213,8,100,100,416.1763625,,0.240282748,300.008,87.131,75,87.5,1,0,8.666666667,100,405.1549492,,0.247158929,22.583,18.27975,3.32108223,1,2,5,1
22,24,5,14,58.33,High,8,100,100,415.093075,,0.240909825,10,100,100,384.19541,,0.260284213,8,100,100,416.1763625,,0.240282748,300.008,87.131,75,87.5,0,1,8.666666667,100,405.1549492,,0.247158929,19.447,18.27975,3.856635985,1,2,5,1
22,25,6,14,58.33,High,8,100,100,415.093075,,0.240909825,10,100,100,384.19541,,0.260284213,8,100,100,416.1763625,,0.240282748,300.008,87.131,75,87.5,1,0,8.666666667,100,405.1549492,,0.247158929,11.745,18.27975,6.385696041,1,2,5,1
22,26,6,14,58.33,High,8,100,100,415.093075,,0.240909825,10,100,100,384.19541,,0.260284213,8,100,100,416.1763625,,0.240282748,300.008,87.131,75,87.5,1,0,8.666666667,100,405.1549492,,0.247158929,10.175,18.27975,7.371007371,1,2,5,1
22,27,6,14,58.33,High,8,100,100,415.093075,,0.240909825,10,100,100,384.19541,,0.260284213,8,100,100,416.1763625,,0.240282748,300.008,87.131,75,87.5,0,1,8.666666667,100,405.1549492,,0.247158929,34.604,18.27975,2.167379494,1,2,5,1
22,28,6,14,58.33,High,8,100,100,415.093075,,0.240909825,10,100,100,384.19541,,0.260284213,8,100,100,416.1763625,,0.240282748,300.008,87.131,75,87.5,1,0,8.666666667,100,405.1549492,,0.247158929,19.758,18.27975,3.795930762,1,2,5,1
22,29,7,14,58.33,High,8,100,100,415.093075,,0.240909825,10,100,100,384.19541,,0.260284213,8,100,100,416.1763625,,0.240282748,300.008,87.131,100,87.5,1,0,8.666666667,100,405.1549492,,0.247158929,17.564,18.27975,5.693463903,1,2,5,1
22,30,7,14,58.33,High,8,100,100,415.093075,,0.240909825,10,100,100,384.19541,,0.260284213,8,100,100,416.1763625,,0.240282748,300.008,87.131,100,87.5,1,0,8.666666667,100,405.1549492,,0.247158929,18.064,18.27975,5.535872453,1,2,5,1
22,31,7,14,58.33,High,8,100,100,415.093075,,0.240909825,10,100,100,384.19541,,0.260284213,8,100,100,416.1763625,,0.240282748,300.008,87.131,100,87.5,1,0,8.666666667,100,405.1549492,,0.247158929,20.671,18.27975,4.837695322,1,2,5,1
22,32,7,14,58.33,High,8,100,100,415.093075,,0.240909825,10,100,100,384.19541,,0.260284213,8,100,100,416.1763625,,0.240282748,300.008,87.131,100,87.5,1,0,8.666666667,100,405.1549492,,0.247158929,30.832,18.27975,3.243383498,1,2,5,1
23,1,0,22,91.67,High,8,100,100,406.8845,,0.245769991,9,90,100,518.1873667,,0.173682351,8,100,96.875,520.1505625,914.4311,0.192252027,300.0034,90.54,75,84.375,1,0,8.333333333,96.66666667,481.7408097,,0.203901456,48.193,18.27975,1.556242608,4,2,6,1
23,2,0,22,91.67,High,8,100,100,406.8845,,0.245769991,9,90,100,518.1873667,,0.173682351,8,100,96.875,520.1505625,914.4311,0.192252027,300.0034,90.54,75,84.375,1,0,8.333333333,96.66666667,481.7408097,,0.203901456,16.948,18.27975,4.42530092,4,2,6,1
23,3,0,22,91.67,High,8,100,100,406.8845,,0.245769991,9,90,100,518.1873667,,0.173682351,8,100,96.875,520.1505625,914.4311,0.192252027,300.0034,90.54,75,84.375,1,0,8.333333333,96.66666667,481.7408097,,0.203901456,16.981,18.27975,4.416701019,4,2,6,1
23,4,0,22,91.67,High,8,100,100,406.8845,,0.245769991,9,90,100,518.1873667,,0.173682351,8,100,96.875,520.1505625,914.4311,0.192252027,300.0034,90.54,75,84.375,0,1,8.333333333,96.66666667,481.7408097,,0.203901456,17.602,18.27975,4.260879446,4,2,6,1
23,5,1,22,91.67,High,8,100,100,406.8845,,0.245769991,9,90,100,518.1873667,,0.173682351,8,100,96.875,520.1505625,914.4311,0.192252027,300.0034,90.54,100,84.375,1,0,8.333333333,96.66666667,481.7408097,,0.203901456,16.947,18.27975,5.900749395,4,2,6,1
23,6,1,22,91.67,High,8,100,100,406.8845,,0.245769991,9,90,100,518.1873667,,0.173682351,8,100,96.875,520.1505625,914.4311,0.192252027,300.0034,90.54,100,84.375,1,0,8.333333333,96.66666667,481.7408097,,0.203901456,15.912,18.27975,6.284565108,4,2,6,1
23,7,1,22,91.67,High,8,100,100,406.8845,,0.245769991,9,90,100,518.1873667,,0.173682351,8,100,96.875,520.1505625,914.4311,0.192252027,300.0034,90.54,100,84.375,1,0,8.333333333,96.66666667,481.7408097,,0.203901456,7.579,18.27975,13.19435282,4,2,6,1
23,8,1,22,91.67,High,8,100,100,406.8845,,0.245769991,9,90,100,518.1873667,,0.173682351,8,100,96.875,520.1505625,914.4311,0.192252027,300.0034,90.54,100,84.375,1,0,8.333333333,96.66666667,481.7408097,,0.203901456,20.166,18.27975,4.958841615,4,2,6,1
23,9,2,22,91.67,High,8,100,100,406.8845,,0.245769991,9,90,100,518.1873667,,0.173682351,8,100,96.875,520.1505625,914.4311,0.192252027,300.0034,90.54,75,84.375,0,1,8.333333333,96.66666667,481.7408097,,0.203901456,25.501,18.27975,2.941061135,4,2,6,1
23,10,2,22,91.67,High,8,100,100,406.8845,,0.245769991,9,90,100,518.1873667,,0.173682351,8,100,96.875,520.1505625,914.4311,0.192252027,300.0034,90.54,75,84.375,1,0,8.333333333,96.66666667,481.7408097,,0.203901456,15.725,18.27975,4.769475358,4,2,6,1
23,11,2,22,91.67,High,8,100,100,406.8845,,0.245769991,9,90,100,518.1873667,,0.173682351,8,100,96.875,520.1505625,914.4311,0.192252027,300.0034,90.54,75,84.375,1,0,8.333333333,96.66666667,481.7408097,,0.203901456,15.195,18.27975,4.935834156,4,2,6,1
23,12,2,22,91.67,High,8,100,100,406.8845,,0.245769991,9,90,100,518.1873667,,0.173682351,8,100,96.875,520.1505625,914.4311,0.192252027,300.0034,90.54,75,84.375,1,0,8.333333333,96.66666667,481.7408097,,0.203901456,21.785,18.27975,3.442735827,4,2,6,1
23,13,3,22,91.67,High,8,100,100,406.8845,,0.245769991,9,90,100,518.1873667,,0.173682351,8,100,96.875,520.1505625,914.4311,0.192252027,300.0034,90.54,100,84.375,1,0,8.333333333,96.66666667,481.7408097,,0.203901456,18.175,18.27975,5.502063274,4,2,6,1
23,14,3,22,91.67,High,8,100,100,406.8845,,0.245769991,9,90,100,518.1873667,,0.173682351,8,100,96.875,520.1505625,914.4311,0.192252027,300.0034,90.54,100,84.375,1,0,8.333333333,96.66666667,481.7408097,,0.203901456,13.855,18.27975,7.217610971,4,2,6,1
23,15,3,22,91.67,High,8,100,100,406.8845,,0.245769991,9,90,100,518.1873667,,0.173682351,8,100,96.875,520.1505625,914.4311,0.192252027,300.0034,90.54,100,84.375,1,0,8.333333333,96.66666667,481.7408097,,0.203901456,18.291,18.27975,5.467169646,4,2,6,1
23,16,3,22,91.67,High,8,100,100,406.8845,,0.245769991,9,90,100,518.1873667,,0.173682351,8,100,96.875,520.1505625,914.4311,0.192252027,300.0034,90.54,100,84.375,1,0,8.333333333,96.66666667,481.7408097,,0.203901456,17.396,18.27975,5.748447919,4,2,6,1
23,17,4,22,91.67,High,8,100,100,406.8845,,0.245769991,9,90,100,518.1873667,,0.173682351,8,100,96.875,520.1505625,914.4311,0.192252027,300.0034,90.54,50,84.375,1,0,8.333333333,96.66666667,481.7408097,,0.203901456,18.666,18.27975,2.678667095,4,2,6,1
23,18,4,22,91.67,High,8,100,100,406.8845,,0.245769991,9,90,100,518.1873667,,0.173682351,8,100,96.875,520.1505625,914.4311,0.192252027,300.0034,90.54,50,84.375,0,1,8.333333333,96.66666667,481.7408097,,0.203901456,22.912,18.27975,2.18226257,4,2,6,1
23,19,4,22,91.67,High,8,100,100,406.8845,,0.245769991,9,90,100,518.1873667,,0.173682351,8,100,96.875,520.1505625,914.4311,0.192252027,300.0034,90.54,50,84.375,1,0,8.333333333,96.66666667,481.7408097,,0.203901456,15.72,18.27975,3.180661578,4,2,6,1
23,20,4,22,91.67,High,8,100,100,406.8845,,0.245769991,9,90,100,518.1873667,,0.173682351,8,100,96.875,520.1505625,914.4311,0.192252027,300.0034,90.54,50,84.375,0,1,8.333333333,96.66666667,481.7408097,,0.203901456,38.91,18.27975,1.285016705,4,2,6,1
23,21,5,22,91.67,High,8,100,100,406.8845,,0.245769991,9,90,100,518.1873667,,0.173682351,8,100,96.875,520.1505625,914.4311,0.192252027,300.0034,90.54,100,84.375,1,0,8.333333333,96.66666667,481.7408097,,0.203901456,14.96,18.27975,6.684491979,4,2,6,1
23,22,5,22,91.67,High,8,100,100,406.8845,,0.245769991,9,90,100,518.1873667,,0.173682351,8,100,96.875,520.1505625,914.4311,0.192252027,300.0034,90.54,100,84.375,1,0,8.333333333,96.66666667,481.7408097,,0.203901456,12.222,18.27975,8.181966945,4,2,6,1
23,23,5,22,91.67,High,8,100,100,406.8845,,0.245769991,9,90,100,518.1873667,,0.173682351,8,100,96.875,520.1505625,914.4311,0.192252027,300.0034,90.54,100,84.375,1,0,8.333333333,96.66666667,481.7408097,,0.203901456,15.299,18.27975,6.536374926,4,2,6,1
23,24,5,22,91.67,High,8,100,100,406.8845,,0.245769991,9,90,100,518.1873667,,0.173682351,8,100,96.875,520.1505625,914.4311,0.192252027,300.0034,90.54,100,84.375,1,0,8.333333333,96.66666667,481.7408097,,0.203901456,24.766,18.27975,4.037793749,4,2,6,1
23,25,6,22,91.67,High,8,100,100,406.8845,,0.245769991,9,90,100,518.1873667,,0.173682351,8,100,96.875,520.1505625,914.4311,0.192252027,300.0034,90.54,100,84.375,1,0,8.333333333,96.66666667,481.7408097,,0.203901456,14.397,18.27975,6.945891505,4,2,6,1
23,26,6,22,91.67,High,8,100,100,406.8845,,0.245769991,9,90,100,518.1873667,,0.173682351,8,100,96.875,520.1505625,914.4311,0.192252027,300.0034,90.54,100,84.375,1,0,8.333333333,96.66666667,481.7408097,,0.203901456,29.816,18.27975,3.353903944,4,2,6,1
23,27,6,22,91.67,High,8,100,100,406.8845,,0.245769991,9,90,100,518.1873667,,0.173682351,8,100,96.875,520.1505625,914.4311,0.192252027,300.0034,90.54,100,84.375,1,0,8.333333333,96.66666667,481.7408097,,0.203901456,46.181,18.27975,2.165392694,4,2,6,1
23,28,6,22,91.67,High,8,100,100,406.8845,,0.245769991,9,90,100,518.1873667,,0.173682351,8,100,96.875,520.1505625,914.4311,0.192252027,300.0034,90.54,100,84.375,1,0,8.333333333,96.66666667,481.7408097,,0.203901456,40.413,18.27975,2.47445129,4,2,6,1
23,29,7,22,91.67,High,8,100,100,406.8845,,0.245769991,9,90,100,518.1873667,,0.173682351,8,100,96.875,520.1505625,914.4311,0.192252027,300.0034,90.54,75,84.375,1,0,8.333333333,96.66666667,481.7408097,,0.203901456,21.395,18.27975,3.505491937,4,2,6,1
23,30,7,22,91.67,High,8,100,100,406.8845,,0.245769991,9,90,100,518.1873667,,0.173682351,8,100,96.875,520.1505625,914.4311,0.192252027,300.0034,90.54,75,84.375,1,0,8.333333333,96.66666667,481.7408097,,0.203901456,10.561,18.27975,7.101600227,4,2,6,1
23,31,7,22,91.67,High,8,100,100,406.8845,,0.245769991,9,90,100,518.1873667,,0.173682351,8,100,96.875,520.1505625,914.4311,0.192252027,300.0034,90.54,75,84.375,1,0,8.333333333,96.66666667,481.7408097,,0.203901456,20.503,18.27975,3.658001268,4,2,6,1
23,32,7,22,91.67,High,8,100,100,406.8845,,0.245769991,9,90,100,518.1873667,,0.173682351,8,100,96.875,520.1505625,914.4311,0.192252027,300.0034,90.54,75,84.375,0,1,8.333333333,96.66666667,481.7408097,,0.203901456,38.081,18.27975,1.969486095,4,2,6,1
24,1,0,12,50,High,8,100,96.875,440.2261875,441.9396,0.227155955,9,90,100,516.1156778,,0.174379512,7,87.5,96.875,669.2694143,1414.0589,0.130739577,300.0106,96.826,75,90.625,1,0,8,92.5,541.8704265,,0.177425015,38.091,18.27975,1.968969048,3,1,6,3
24,2,0,12,50,High,8,100,96.875,440.2261875,441.9396,0.227155955,9,90,100,516.1156778,,0.174379512,7,87.5,96.875,669.2694143,1414.0589,0.130739577,300.0106,96.826,75,90.625,1,0,8,92.5,541.8704265,,0.177425015,12.911,18.27975,5.809000077,3,1,6,3
24,3,0,12,50,High,8,100,96.875,440.2261875,441.9396,0.227155955,9,90,100,516.1156778,,0.174379512,7,87.5,96.875,669.2694143,1414.0589,0.130739577,300.0106,96.826,75,90.625,1,0,8,92.5,541.8704265,,0.177425015,14.188,18.27975,5.286157316,3,1,6,3
24,4,0,12,50,High,8,100,96.875,440.2261875,441.9396,0.227155955,9,90,100,516.1156778,,0.174379512,7,87.5,96.875,669.2694143,1414.0589,0.130739577,300.0106,96.826,75,90.625,0,1,8,92.5,541.8704265,,0.177425015,27.71,18.27975,2.706604114,3,1,6,3
24,5,1,12,50,High,8,100,96.875,440.2261875,441.9396,0.227155955,9,90,100,516.1156778,,0.174379512,7,87.5,96.875,669.2694143,1414.0589,0.130739577,300.0106,96.826,100,90.625,1,0,8,92.5,541.8704265,,0.177425015,15.942,18.27975,6.272738678,3,1,6,3
24,6,1,12,50,High,8,100,96.875,440.2261875,441.9396,0.227155955,9,90,100,516.1156778,,0.174379512,7,87.5,96.875,669.2694143,1414.0589,0.130739577,300.0106,96.826,100,90.625,1,0,8,92.5,541.8704265,,0.177425015,11.671,18.27975,8.56824608,3,1,6,3
24,7,1,12,50,High,8,100,96.875,440.2261875,441.9396,0.227155955,9,90,100,516.1156778,,0.174379512,7,87.5,96.875,669.2694143,1414.0589,0.130739577,300.0106,96.826,100,90.625,1,0,8,92.5,541.8704265,,0.177425015,15.698,18.27975,6.370238247,3,1,6,3
24,8,1,12,50,High,8,100,96.875,440.2261875,441.9396,0.227155955,9,90,100,516.1156778,,0.174379512,7,87.5,96.875,669.2694143,1414.0589,0.130739577,300.0106,96.826,100,90.625,1,0,8,92.5,541.8704265,,0.177425015,17.117,18.27975,5.842145236,3,1,6,3
24,9,2,12,50,High,8,100,96.875,440.2261875,441.9396,0.227155955,9,90,100,516.1156778,,0.174379512,7,87.5,96.875,669.2694143,1414.0589,0.130739577,300.0106,96.826,100,90.625,1,0,8,92.5,541.8704265,,0.177425015,24.782,18.27975,4.035186829,3,1,6,3
24,10,2,12,50,High,8,100,96.875,440.2261875,441.9396,0.227155955,9,90,100,516.1156778,,0.174379512,7,87.5,96.875,669.2694143,1414.0589,0.130739577,300.0106,96.826,100,90.625,1,0,8,92.5,541.8704265,,0.177425015,25.595,18.27975,3.907013088,3,1,6,3
24,11,2,12,50,High,8,100,96.875,440.2261875,441.9396,0.227155955,9,90,100,516.1156778,,0.174379512,7,87.5,96.875,669.2694143,1414.0589,0.130739577,300.0106,96.826,100,90.625,1,0,8,92.5,541.8704265,,0.177425015,11.316,18.27975,8.837044892,3,1,6,3
24,12,2,12,50,High,8,100,96.875,440.2261875,441.9396,0.227155955,9,90,100,516.1156778,,0.174379512,7,87.5,96.875,669.2694143,1414.0589,0.130739577,300.0106,96.826,100,90.625,1,0,8,92.5,541.8704265,,0.177425015,14.783,18.27975,6.764526821,3,1,6,3
24,13,3,12,50,High,8,100,96.875,440.2261875,441.9396,0.227155955,9,90,100,516.1156778,,0.174379512,7,87.5,96.875,669.2694143,1414.0589,0.130739577,300.0106,96.826,75,90.625,0,1,8,92.5,541.8704265,,0.177425015,19.247,18.27975,3.896711176,3,1,6,3
24,14,3,12,50,High,8,100,96.875,440.2261875,441.9396,0.227155955,9,90,100,516.1156778,,0.174379512,7,87.5,96.875,669.2694143,1414.0589,0.130739577,300.0106,96.826,75,90.625,1,0,8,92.5,541.8704265,,0.177425015,19.058,18.27975,3.935355231,3,1,6,3
24,15,3,12,50,High,8,100,96.875,440.2261875,441.9396,0.227155955,9,90,100,516.1156778,,0.174379512,7,87.5,96.875,669.2694143,1414.0589,0.130739577,300.0106,96.826,75,90.625,1,0,8,92.5,541.8704265,,0.177425015,23.057,18.27975,3.252808258,3,1,6,3
24,16,3,12,50,High,8,100,96.875,440.2261875,441.9396,0.227155955,9,90,100,516.1156778,,0.174379512,7,87.5,96.875,669.2694143,1414.0589,0.130739577,300.0106,96.826,75,90.625,1,0,8,92.5,541.8704265,,0.177425015,18.645,18.27975,4.022526146,3,1,6,3
24,17,4,12,50,High,8,100,96.875,440.2261875,441.9396,0.227155955,9,90,100,516.1156778,,0.174379512,7,87.5,96.875,669.2694143,1414.0589,0.130739577,300.0106,96.826,100,90.625,1,0,8,92.5,541.8704265,,0.177425015,18.452,18.27975,5.419466724,3,1,6,3
24,18,4,12,50,High,8,100,96.875,440.2261875,441.9396,0.227155955,9,90,100,516.1156778,,0.174379512,7,87.5,96.875,669.2694143,1414.0589,0.130739577,300.0106,96.826,100,90.625,1,0,8,92.5,541.8704265,,0.177425015,23.118,18.27975,4.325633705,3,1,6,3
24,19,4,12,50,High,8,100,96.875,440.2261875,441.9396,0.227155955,9,90,100,516.1156778,,0.174379512,7,87.5,96.875,669.2694143,1414.0589,0.130739577,300.0106,96.826,100,90.625,1,0,8,92.5,541.8704265,,0.177425015,21.357,18.27975,4.682305567,3,1,6,3
24,20,4,12,50,High,8,100,96.875,440.2261875,441.9396,0.227155955,9,90,100,516.1156778,,0.174379512,7,87.5,96.875,669.2694143,1414.0589,0.130739577,300.0106,96.826,100,90.625,1,0,8,92.5,541.8704265,,0.177425015,24.55,18.27975,4.073319756,3,1,6,3
24,21,5,12,50,High,8,100,96.875,440.2261875,441.9396,0.227155955,9,90,100,516.1156778,,0.174379512,7,87.5,96.875,669.2694143,1414.0589,0.130739577,300.0106,96.826,75,90.625,1,0,8,92.5,541.8704265,,0.177425015,17.358,18.27975,4.320774283,3,1,6,3
24,22,5,12,50,High,8,100,96.875,440.2261875,441.9396,0.227155955,9,90,100,516.1156778,,0.174379512,7,87.5,96.875,669.2694143,1414.0589,0.130739577,300.0106,96.826,75,90.625,1,0,8,92.5,541.8704265,,0.177425015,21.041,18.27975,3.564469369,3,1,6,3
24,23,5,12,50,High,8,100,96.875,440.2261875,441.9396,0.227155955,9,90,100,516.1156778,,0.174379512,7,87.5,96.875,669.2694143,1414.0589,0.130739577,300.0106,96.826,75,90.625,1,0,8,92.5,541.8704265,,0.177425015,12.61,18.27975,5.947660587,3,1,6,3
24,24,5,12,50,High,8,100,96.875,440.2261875,441.9396,0.227155955,9,90,100,516.1156778,,0.174379512,7,87.5,96.875,669.2694143,1414.0589,0.130739577,300.0106,96.826,75,90.625,0,1,8,92.5,541.8704265,,0.177425015,21.031,18.27975,3.566164234,3,1,6,3
24,25,6,12,50,High,8,100,96.875,440.2261875,441.9396,0.227155955,9,90,100,516.1156778,,0.174379512,7,87.5,96.875,669.2694143,1414.0589,0.130739577,300.0106,96.826,100,90.625,1,0,8,92.5,541.8704265,,0.177425015,29.625,18.27975,3.375527426,3,1,6,3
24,26,6,12,50,High,8,100,96.875,440.2261875,441.9396,0.227155955,9,90,100,516.1156778,,0.174379512,7,87.5,96.875,669.2694143,1414.0589,0.130739577,300.0106,96.826,100,90.625,1,0,8,92.5,541.8704265,,0.177425015,21.522,18.27975,4.646408326,3,1,6,3
24,27,6,12,50,High,8,100,96.875,440.2261875,441.9396,0.227155955,9,90,100,516.1156778,,0.174379512,7,87.5,96.875,669.2694143,1414.0589,0.130739577,300.0106,96.826,100,90.625,1,0,8,92.5,541.8704265,,0.177425015,32.359,18.27975,3.090330356,3,1,6,3
24,28,6,12,50,High,8,100,96.875,440.2261875,441.9396,0.227155955,9,90,100,516.1156778,,0.174379512,7,87.5,96.875,669.2694143,1414.0589,0.130739577,300.0106,96.826,100,90.625,1,0,8,92.5,541.8704265,,0.177425015,23.888,18.27975,4.186202277,3,1,6,3
24,29,7,12,50,High,8,100,96.875,440.2261875,441.9396,0.227155955,9,90,100,516.1156778,,0.174379512,7,87.5,96.875,669.2694143,1414.0589,0.130739577,300.0106,96.826,100,90.625,1,0,8,92.5,541.8704265,,0.177425015,18.319,18.27975,5.458813254,3,1,6,3
24,30,7,12,50,High,8,100,96.875,440.2261875,441.9396,0.227155955,9,90,100,516.1156778,,0.174379512,7,87.5,96.875,669.2694143,1414.0589,0.130739577,300.0106,96.826,100,90.625,1,0,8,92.5,541.8704265,,0.177425015,22.407,18.27975,4.462891061,3,1,6,3
24,31,7,12,50,High,8,100,96.875,440.2261875,441.9396,0.227155955,9,90,100,516.1156778,,0.174379512,7,87.5,96.875,669.2694143,1414.0589,0.130739577,300.0106,96.826,100,90.625,1,0,8,92.5,541.8704265,,0.177425015,28.093,18.27975,3.559605596,3,1,6,3
24,32,7,12,50,High,8,100,96.875,440.2261875,441.9396,0.227155955,9,90,100,516.1156778,,0.174379512,7,87.5,96.875,669.2694143,1414.0589,0.130739577,300.0106,96.826,100,90.625,1,0,8,92.5,541.8704265,,0.177425015,28.007,18.27975,3.570535937,3,1,6,3
25,1,0,6,25,Low,8,100,100,447.3996875,,0.22351379,10,100,100,539.30505,,0.185423815,8,100,93.75,691.9474875,813.4975,0.144519637,300.0051,57.353,75,84.375,1,0,8.666666667,100,559.5507417,,0.184485748,14.176,18.27975,5.290632054,1,1,6,2
25,2,0,6,25,Low,8,100,100,447.3996875,,0.22351379,10,100,100,539.30505,,0.185423815,8,100,93.75,691.9474875,813.4975,0.144519637,300.0051,57.353,75,84.375,1,0,8.666666667,100,559.5507417,,0.184485748,9.767,18.27975,7.678918808,1,1,6,2
25,3,0,6,25,Low,8,100,100,447.3996875,,0.22351379,10,100,100,539.30505,,0.185423815,8,100,93.75,691.9474875,813.4975,0.144519637,300.0051,57.353,75,84.375,1,0,8.666666667,100,559.5507417,,0.184485748,13.956,18.27975,5.374032674,1,1,6,2
25,4,0,6,25,Low,8,100,100,447.3996875,,0.22351379,10,100,100,539.30505,,0.185423815,8,100,93.75,691.9474875,813.4975,0.144519637,300.0051,57.353,75,84.375,0,1,8.666666667,100,559.5507417,,0.184485748,14.093,18.27975,5.32179096,1,1,6,2
25,5,1,6,25,Low,8,100,100,447.3996875,,0.22351379,10,100,100,539.30505,,0.185423815,8,100,93.75,691.9474875,813.4975,0.144519637,300.0051,57.353,100,84.375,1,0,8.666666667,100,559.5507417,,0.184485748,28.51,18.27975,3.507541214,1,1,6,2
25,6,1,6,25,Low,8,100,100,447.3996875,,0.22351379,10,100,100,539.30505,,0.185423815,8,100,93.75,691.9474875,813.4975,0.144519637,300.0051,57.353,100,84.375,1,0,8.666666667,100,559.5507417,,0.184485748,21.023,18.27975,4.756695048,1,1,6,2
25,7,1,6,25,Low,8,100,100,447.3996875,,0.22351379,10,100,100,539.30505,,0.185423815,8,100,93.75,691.9474875,813.4975,0.144519637,300.0051,57.353,100,84.375,1,0,8.666666667,100,559.5507417,,0.184485748,13.971,18.27975,7.157683774,1,1,6,2
25,8,1,6,25,Low,8,100,100,447.3996875,,0.22351379,10,100,100,539.30505,,0.185423815,8,100,93.75,691.9474875,813.4975,0.144519637,300.0051,57.353,100,84.375,1,0,8.666666667,100,559.5507417,,0.184485748,31.391,18.27975,3.185626453,1,1,6,2
25,9,2,6,25,Low,8,100,100,447.3996875,,0.22351379,10,100,100,539.30505,,0.185423815,8,100,93.75,691.9474875,813.4975,0.144519637,300.0051,57.353,100,84.375,1,0,8.666666667,100,559.5507417,,0.184485748,24.285,18.27975,4.11776817,1,1,6,2
25,10,2,6,25,Low,8,100,100,447.3996875,,0.22351379,10,100,100,539.30505,,0.185423815,8,100,93.75,691.9474875,813.4975,0.144519637,300.0051,57.353,100,84.375,1,0,8.666666667,100,559.5507417,,0.184485748,23.867,18.27975,4.189885616,1,1,6,2
25,11,2,6,25,Low,8,100,100,447.3996875,,0.22351379,10,100,100,539.30505,,0.185423815,8,100,93.75,691.9474875,813.4975,0.144519637,300.0051,57.353,100,84.375,1,0,8.666666667,100,559.5507417,,0.184485748,40.579,18.27975,2.46432884,1,1,6,2
25,12,2,6,25,Low,8,100,100,447.3996875,,0.22351379,10,100,100,539.30505,,0.185423815,8,100,93.75,691.9474875,813.4975,0.144519637,300.0051,57.353,100,84.375,1,0,8.666666667,100,559.5507417,,0.184485748,24.736,18.27975,4.042690815,1,1,6,2
25,13,3,6,25,Low,8,100,100,447.3996875,,0.22351379,10,100,100,539.30505,,0.185423815,8,100,93.75,691.9474875,813.4975,0.144519637,300.0051,57.353,100,84.375,1,0,8.666666667,100,559.5507417,,0.184485748,15.668,18.27975,6.382435537,1,1,6,2
25,14,3,6,25,Low,8,100,100,447.3996875,,0.22351379,10,100,100,539.30505,,0.185423815,8,100,93.75,691.9474875,813.4975,0.144519637,300.0051,57.353,100,84.375,1,0,8.666666667,100,559.5507417,,0.184485748,10.231,18.27975,9.774215619,1,1,6,2
25,15,3,6,25,Low,8,100,100,447.3996875,,0.22351379,10,100,100,539.30505,,0.185423815,8,100,93.75,691.9474875,813.4975,0.144519637,300.0051,57.353,100,84.375,1,0,8.666666667,100,559.5507417,,0.184485748,33.962,18.27975,2.944467346,1,1,6,2
25,16,3,6,25,Low,8,100,100,447.3996875,,0.22351379,10,100,100,539.30505,,0.185423815,8,100,93.75,691.9474875,813.4975,0.144519637,300.0051,57.353,100,84.375,1,0,8.666666667,100,559.5507417,,0.184485748,13.578,18.27975,7.364854912,1,1,6,2
25,17,4,6,25,Low,8,100,100,447.3996875,,0.22351379,10,100,100,539.30505,,0.185423815,8,100,93.75,691.9474875,813.4975,0.144519637,300.0051,57.353,75,84.375,1,0,8.666666667,100,559.5507417,,0.184485748,7.519,18.27975,9.974730682,1,1,6,2
25,18,4,6,25,Low,8,100,100,447.3996875,,0.22351379,10,100,100,539.30505,,0.185423815,8,100,93.75,691.9474875,813.4975,0.144519637,300.0051,57.353,75,84.375,1,0,8.666666667,100,559.5507417,,0.184485748,13.006,18.27975,5.766569276,1,1,6,2
25,19,4,6,25,Low,8,100,100,447.3996875,,0.22351379,10,100,100,539.30505,,0.185423815,8,100,93.75,691.9474875,813.4975,0.144519637,300.0051,57.353,75,84.375,0,1,8.666666667,100,559.5507417,,0.184485748,14.303,18.27975,5.243655177,1,1,6,2
25,20,4,6,25,Low,8,100,100,447.3996875,,0.22351379,10,100,100,539.30505,,0.185423815,8,100,93.75,691.9474875,813.4975,0.144519637,300.0051,57.353,75,84.375,1,0,8.666666667,100,559.5507417,,0.184485748,30.898,18.27975,2.427341576,1,1,6,2
25,21,5,6,25,Low,8,100,100,447.3996875,,0.22351379,10,100,100,539.30505,,0.185423815,8,100,93.75,691.9474875,813.4975,0.144519637,300.0051,57.353,100,84.375,1,0,8.666666667,100,559.5507417,,0.184485748,12.26,18.27975,8.156606852,1,1,6,2
25,22,5,6,25,Low,8,100,100,447.3996875,,0.22351379,10,100,100,539.30505,,0.185423815,8,100,93.75,691.9474875,813.4975,0.144519637,300.0051,57.353,100,84.375,1,0,8.666666667,100,559.5507417,,0.184485748,23.058,18.27975,4.336889583,1,1,6,2
25,23,5,6,25,Low,8,100,100,447.3996875,,0.22351379,10,100,100,539.30505,,0.185423815,8,100,93.75,691.9474875,813.4975,0.144519637,300.0051,57.353,100,84.375,1,0,8.666666667,100,559.5507417,,0.184485748,15.658,18.27975,6.386511687,1,1,6,2
25,24,5,6,25,Low,8,100,100,447.3996875,,0.22351379,10,100,100,539.30505,,0.185423815,8,100,93.75,691.9474875,813.4975,0.144519637,300.0051,57.353,100,84.375,1,0,8.666666667,100,559.5507417,,0.184485748,39.97,18.27975,2.501876407,1,1,6,2
25,25,6,6,25,Low,8,100,100,447.3996875,,0.22351379,10,100,100,539.30505,,0.185423815,8,100,93.75,691.9474875,813.4975,0.144519637,300.0051,57.353,75,84.375,1,0,8.666666667,100,559.5507417,,0.184485748,9.512,18.27975,7.884777124,1,1,6,2
25,26,6,6,25,Low,8,100,100,447.3996875,,0.22351379,10,100,100,539.30505,,0.185423815,8,100,93.75,691.9474875,813.4975,0.144519637,300.0051,57.353,75,84.375,1,0,8.666666667,100,559.5507417,,0.184485748,15.568,18.27975,4.817574512,1,1,6,2
25,27,6,6,25,Low,8,100,100,447.3996875,,0.22351379,10,100,100,539.30505,,0.185423815,8,100,93.75,691.9474875,813.4975,0.144519637,300.0051,57.353,75,84.375,0,1,8.666666667,100,559.5507417,,0.184485748,20.182,18.27975,3.716182737,1,1,6,2
25,28,6,6,25,Low,8,100,100,447.3996875,,0.22351379,10,100,100,539.30505,,0.185423815,8,100,93.75,691.9474875,813.4975,0.144519637,300.0051,57.353,75,84.375,1,0,8.666666667,100,559.5507417,,0.184485748,19.73,18.27975,3.80131779,1,1,6,2
25,29,7,6,25,Low,8,100,100,447.3996875,,0.22351379,10,100,100,539.30505,,0.185423815,8,100,93.75,691.9474875,813.4975,0.144519637,300.0051,57.353,50,84.375,1,0,8.666666667,100,559.5507417,,0.184485748,12.8,18.27975,3.90625,1,1,6,2
25,30,7,6,25,Low,8,100,100,447.3996875,,0.22351379,10,100,100,539.30505,,0.185423815,8,100,93.75,691.9474875,813.4975,0.144519637,300.0051,57.353,50,84.375,0,1,8.666666667,100,559.5507417,,0.184485748,10.723,18.27975,4.662874196,1,1,6,2
25,31,7,6,25,Low,8,100,100,447.3996875,,0.22351379,10,100,100,539.30505,,0.185423815,8,100,93.75,691.9474875,813.4975,0.144519637,300.0051,57.353,50,84.375,0,1,8.666666667,100,559.5507417,,0.184485748,14.461,18.27975,3.457575548,1,1,6,2
25,32,7,6,25,Low,8,100,100,447.3996875,,0.22351379,10,100,100,539.30505,,0.185423815,8,100,93.75,691.9474875,813.4975,0.144519637,300.0051,57.353,50,84.375,1,0,8.666666667,100,559.5507417,,0.184485748,19.369,18.27975,2.581444576,1,1,6,2
26,1,0,3,12.5,Low,5,62.5,96.875,850.3047,681.4744,0.073503063,1,10,96.66666667,522.8373,707.8524,0.019126409,1,12.5,93.75,601.3781,529.6898,0.020785592,300.0052,17.029,50,59.375,0,1,2.333333333,28.33333333,658.1733667,639.6722,0.037805021,15.445,18.27975,3.237293623,6,2,8,9
26,2,0,3,12.5,Low,5,62.5,96.875,850.3047,681.4744,0.073503063,1,10,96.66666667,522.8373,707.8524,0.019126409,1,12.5,93.75,601.3781,529.6898,0.020785592,300.0052,17.029,50,59.375,0,1,2.333333333,28.33333333,658.1733667,639.6722,0.037805021,9.339,18.27975,5.35389228,6,2,8,9
26,3,0,3,12.5,Low,5,62.5,96.875,850.3047,681.4744,0.073503063,1,10,96.66666667,522.8373,707.8524,0.019126409,1,12.5,93.75,601.3781,529.6898,0.020785592,300.0052,17.029,50,59.375,1,0,2.333333333,28.33333333,658.1733667,639.6722,0.037805021,26.188,18.27975,1.909271422,6,2,8,9
26,4,0,3,12.5,Low,5,62.5,96.875,850.3047,681.4744,0.073503063,1,10,96.66666667,522.8373,707.8524,0.019126409,1,12.5,93.75,601.3781,529.6898,0.020785592,300.0052,17.029,50,59.375,1,0,2.333333333,28.33333333,658.1733667,639.6722,0.037805021,15.072,18.27975,3.317409766,6,2,8,9
26,5,1,3,12.5,Low,5,62.5,96.875,850.3047,681.4744,0.073503063,1,10,96.66666667,522.8373,707.8524,0.019126409,1,12.5,93.75,601.3781,529.6898,0.020785592,300.0052,17.029,75,59.375,1,0,2.333333333,28.33333333,658.1733667,639.6722,0.037805021,12.517,18.27975,5.991851083,6,2,8,9
26,6,1,3,12.5,Low,5,62.5,96.875,850.3047,681.4744,0.073503063,1,10,96.66666667,522.8373,707.8524,0.019126409,1,12.5,93.75,601.3781,529.6898,0.020785592,300.0052,17.029,75,59.375,0,1,2.333333333,28.33333333,658.1733667,639.6722,0.037805021,7.15,18.27975,10.48951049,6,2,8,9
26,7,1,3,12.5,Low,5,62.5,96.875,850.3047,681.4744,0.073503063,1,10,96.66666667,522.8373,707.8524,0.019126409,1,12.5,93.75,601.3781,529.6898,0.020785592,300.0052,17.029,75,59.375,1,0,2.333333333,28.33333333,658.1733667,639.6722,0.037805021,9.917,18.27975,7.562770999,6,2,8,9
26,8,1,3,12.5,Low,5,62.5,96.875,850.3047,681.4744,0.073503063,1,10,96.66666667,522.8373,707.8524,0.019126409,1,12.5,93.75,601.3781,529.6898,0.020785592,300.0052,17.029,75,59.375,1,0,2.333333333,28.33333333,658.1733667,639.6722,0.037805021,11.245,18.27975,6.669630947,6,2,8,9
26,9,2,3,12.5,Low,5,62.5,96.875,850.3047,681.4744,0.073503063,1,10,96.66666667,522.8373,707.8524,0.019126409,1,12.5,93.75,601.3781,529.6898,0.020785592,300.0052,17.029,100,59.375,1,0,2.333333333,28.33333333,658.1733667,639.6722,0.037805021,7.371,18.27975,13.56668023,6,2,8,9
26,10,2,3,12.5,Low,5,62.5,96.875,850.3047,681.4744,0.073503063,1,10,96.66666667,522.8373,707.8524,0.019126409,1,12.5,93.75,601.3781,529.6898,0.020785592,300.0052,17.029,100,59.375,1,0,2.333333333,28.33333333,658.1733667,639.6722,0.037805021,4.4,18.27975,22.72727273,6,2,8,9
26,11,2,3,12.5,Low,5,62.5,96.875,850.3047,681.4744,0.073503063,1,10,96.66666667,522.8373,707.8524,0.019126409,1,12.5,93.75,601.3781,529.6898,0.020785592,300.0052,17.029,100,59.375,1,0,2.333333333,28.33333333,658.1733667,639.6722,0.037805021,4.444,18.27975,22.50225023,6,2,8,9
26,12,2,3,12.5,Low,5,62.5,96.875,850.3047,681.4744,0.073503063,1,10,96.66666667,522.8373,707.8524,0.019126409,1,12.5,93.75,601.3781,529.6898,0.020785592,300.0052,17.029,100,59.375,1,0,2.333333333,28.33333333,658.1733667,639.6722,0.037805021,11.04,18.27975,9.057971014,6,2,8,9
26,13,3,3,12.5,Low,5,62.5,96.875,850.3047,681.4744,0.073503063,1,10,96.66666667,522.8373,707.8524,0.019126409,1,12.5,93.75,601.3781,529.6898,0.020785592,300.0052,17.029,50,59.375,1,0,2.333333333,28.33333333,658.1733667,639.6722,0.037805021,11.089,18.27975,4.508972856,6,2,8,9
26,14,3,3,12.5,Low,5,62.5,96.875,850.3047,681.4744,0.073503063,1,10,96.66666667,522.8373,707.8524,0.019126409,1,12.5,93.75,601.3781,529.6898,0.020785592,300.0052,17.029,50,59.375,0,1,2.333333333,28.33333333,658.1733667,639.6722,0.037805021,3.322,18.27975,15.05117399,6,2,8,9
26,15,3,3,12.5,Low,5,62.5,96.875,850.3047,681.4744,0.073503063,1,10,96.66666667,522.8373,707.8524,0.019126409,1,12.5,93.75,601.3781,529.6898,0.020785592,300.0052,17.029,50,59.375,1,0,2.333333333,28.33333333,658.1733667,639.6722,0.037805021,6.79,18.27975,7.36377025,6,2,8,9
26,16,3,3,12.5,Low,5,62.5,96.875,850.3047,681.4744,0.073503063,1,10,96.66666667,522.8373,707.8524,0.019126409,1,12.5,93.75,601.3781,529.6898,0.020785592,300.0052,17.029,50,59.375,0,1,2.333333333,28.33333333,658.1733667,639.6722,0.037805021,13.038,18.27975,3.83494401,6,2,8,9
26,17,4,3,12.5,Low,5,62.5,96.875,850.3047,681.4744,0.073503063,1,10,96.66666667,522.8373,707.8524,0.019126409,1,12.5,93.75,601.3781,529.6898,0.020785592,300.0052,17.029,50,59.375,1,0,2.333333333,28.33333333,658.1733667,639.6722,0.037805021,6.715,18.27975,7.446016381,6,2,8,9
26,18,4,3,12.5,Low,5,62.5,96.875,850.3047,681.4744,0.073503063,1,10,96.66666667,522.8373,707.8524,0.019126409,1,12.5,93.75,601.3781,529.6898,0.020785592,300.0052,17.029,50,59.375,1,0,2.333333333,28.33333333,658.1733667,639.6722,0.037805021,4.009,18.27975,12.47193814,6,2,8,9
26,19,4,3,12.5,Low,5,62.5,96.875,850.3047,681.4744,0.073503063,1,10,96.66666667,522.8373,707.8524,0.019126409,1,12.5,93.75,601.3781,529.6898,0.020785592,300.0052,17.029,50,59.375,0,1,2.333333333,28.33333333,658.1733667,639.6722,0.037805021,2.91,18.27975,17.18213058,6,2,8,9
26,20,4,3,12.5,Low,5,62.5,96.875,850.3047,681.4744,0.073503063,1,10,96.66666667,522.8373,707.8524,0.019126409,1,12.5,93.75,601.3781,529.6898,0.020785592,300.0052,17.029,50,59.375,0,1,2.333333333,28.33333333,658.1733667,639.6722,0.037805021,14.692,18.27975,3.403212633,6,2,8,9
26,21,5,3,12.5,Low,5,62.5,96.875,850.3047,681.4744,0.073503063,1,10,96.66666667,522.8373,707.8524,0.019126409,1,12.5,93.75,601.3781,529.6898,0.020785592,300.0052,17.029,25,59.375,0,1,2.333333333,28.33333333,658.1733667,639.6722,0.037805021,21.107,18.27975,1.184441181,6,2,8,9
26,22,5,3,12.5,Low,5,62.5,96.875,850.3047,681.4744,0.073503063,1,10,96.66666667,522.8373,707.8524,0.019126409,1,12.5,93.75,601.3781,529.6898,0.020785592,300.0052,17.029,25,59.375,1,0,2.333333333,28.33333333,658.1733667,639.6722,0.037805021,5.098,18.27975,4.903883876,6,2,8,9
26,23,5,3,12.5,Low,5,62.5,96.875,850.3047,681.4744,0.073503063,1,10,96.66666667,522.8373,707.8524,0.019126409,1,12.5,93.75,601.3781,529.6898,0.020785592,300.0052,17.029,25,59.375,0,1,2.333333333,28.33333333,658.1733667,639.6722,0.037805021,4.248,18.27975,5.885122411,6,2,8,9
26,24,5,3,12.5,Low,5,62.5,96.875,850.3047,681.4744,0.073503063,1,10,96.66666667,522.8373,707.8524,0.019126409,1,12.5,93.75,601.3781,529.6898,0.020785592,300.0052,17.029,25,59.375,0,1,2.333333333,28.33333333,658.1733667,639.6722,0.037805021,8.987,18.27975,2.781795927,6,2,8,9
26,25,6,3,12.5,Low,5,62.5,96.875,850.3047,681.4744,0.073503063,1,10,96.66666667,522.8373,707.8524,0.019126409,1,12.5,93.75,601.3781,529.6898,0.020785592,300.0052,17.029,75,59.375,1,0,2.333333333,28.33333333,658.1733667,639.6722,0.037805021,9.686,18.27975,7.743134421,6,2,8,9
26,26,6,3,12.5,Low,5,62.5,96.875,850.3047,681.4744,0.073503063,1,10,96.66666667,522.8373,707.8524,0.019126409,1,12.5,93.75,601.3781,529.6898,0.020785592,300.0052,17.029,75,59.375,0,1,2.333333333,28.33333333,658.1733667,639.6722,0.037805021,2.945,18.27975,25.46689304,6,2,8,9
26,27,6,3,12.5,Low,5,62.5,96.875,850.3047,681.4744,0.073503063,1,10,96.66666667,522.8373,707.8524,0.019126409,1,12.5,93.75,601.3781,529.6898,0.020785592,300.0052,17.029,75,59.375,1,0,2.333333333,28.33333333,658.1733667,639.6722,0.037805021,7.859,18.27975,9.54319888,6,2,8,9
26,28,6,3,12.5,Low,5,62.5,96.875,850.3047,681.4744,0.073503063,1,10,96.66666667,522.8373,707.8524,0.019126409,1,12.5,93.75,601.3781,529.6898,0.020785592,300.0052,17.029,75,59.375,1,0,2.333333333,28.33333333,658.1733667,639.6722,0.037805021,7.319,18.27975,10.24730154,6,2,8,9
26,29,7,3,12.5,Low,5,62.5,96.875,850.3047,681.4744,0.073503063,1,10,96.66666667,522.8373,707.8524,0.019126409,1,12.5,93.75,601.3781,529.6898,0.020785592,300.0052,17.029,50,59.375,1,0,2.333333333,28.33333333,658.1733667,639.6722,0.037805021,7.156,18.27975,6.987143656,6,2,8,9
26,30,7,3,12.5,Low,5,62.5,96.875,850.3047,681.4744,0.073503063,1,10,96.66666667,522.8373,707.8524,0.019126409,1,12.5,93.75,601.3781,529.6898,0.020785592,300.0052,17.029,50,59.375,0,1,2.333333333,28.33333333,658.1733667,639.6722,0.037805021,3.043,18.27975,16.43115347,6,2,8,9
26,31,7,3,12.5,Low,5,62.5,96.875,850.3047,681.4744,0.073503063,1,10,96.66666667,522.8373,707.8524,0.019126409,1,12.5,93.75,601.3781,529.6898,0.020785592,300.0052,17.029,50,59.375,0,1,2.333333333,28.33333333,658.1733667,639.6722,0.037805021,3.421,18.27975,14.61560947,6,2,8,9
