participant_number,subexperiment_number,MRTScore,MRTAcc,MRTGroup,nback_hits_0,nback_hit_rate_0,nback_correct_rejections_0,nback_rt_target_0,nback_rt_nontarget_0,nback_composite_0,nback_hits_1,nback_hit_rate_1,nback_correct_rejections_1,nback_rt_target_1,nback_rt_nontarget_1,nback_composite_1,nback_hits_2,nback_hit_rate_2,nback_correct_rejections_2,nback_rt_target_2,nback_rt_nontarget_2,nback_composite_2,nback_hits_avg,nback_hit_rate_avg,nback_rt_target_avg,nback_rt_non_target_avg,nback_composite_avg,rest_time,time_subexperiment,accuracy_subexperiment,accuracy_total,answer_correct_subexperiment,answer_incorrect_subexperiment,feedback_score_subexperiment,median_split_feedback_score_subexperiment,quartile_split_feedback_score_subexperiment,trial_duration_1,trial_duration_2,trial_duration_3,trial_duration_4,trial_duration_mean,performance_subexperiment,feedback_score_tutorial_1,feedback_score_tutorial_2,feedback_score_tutorial_3,feedback_score_rest_1,tutorial_threshold,tutorial_split_feedback_score_subexperiment,O2Hb_highest_peak,O2Hb_lowest_peak,O2Hb_average_peak,O2Hb_difference_peak,O2Hb_auc,O2Hb_highest_peak_trial_1,O2Hb_highest_peak_trial_2,O2Hb_highest_peak_trial_3,O2Hb_highest_peak_trial_4,O2Hb_lowest_peak_trial_1,O2Hb_lowest_peak_trial_2,O2Hb_lowest_peak_trial_3,O2Hb_lowest_peak_trial_4,O2Hb_average_peak_trial_1,O2Hb_average_peak_trial_2,O2Hb_average_peak_trial_3,O2Hb_average_peak_trial_4,O2Hb_difference_peak_trial_1,O2Hb_difference_peak_trial_2,O2Hb_difference_peak_trial_3,O2Hb_difference_peak_trial_4,O2Hb_auc_peak_trial_1,O2Hb_auc_peak_trial_2,O2Hb_auc_peak_trial_3,O2Hb_auc_peak_trial_4,duration_fixation,duration_saccade,count_fixations,count_saccades,tutorial_threshold,tutorial_split_feedback_score_subexperiment
2,1,0,0.0,Low,8,100.0,100.0,429.662737500621,,0.2327406853610512,9,90.0,100.0,468.9398778007469,,0.191922257544156,7,87.5,93.75,395.24815713853707,1204.8808499821462,0.2213799063187806,8.0,92.5,431.2835908133017,,0.2153476164079959,300.00599999999986,121.68100000000004,50.0,46.875,2,2,5,0,0,45.052000000000135,11.149999999999864,33.85400000000004,28.17800000000011,29.55850000000004,1.6915608031530671,1,3,8,1,5.5,0,0.0167121555494199,-0.0233254252791514,-7.942690291719259e-05,0.0400375808285714,-0.0023290808098383,0.0167121555494199,0.0099972288494199,0.0110894541494199,0.0061868625065628,-0.0233254252791514,-0.0141014901220085,-0.0083174731362943,-0.0044945475077228,0.0,0.0,0.0,0.0,0.0400375808285714,0.0240987189714285,0.0194069272857142,0.0106814100142857,-0.0214383451978469,-0.0123232616386121,0.0208494535551564,0.0135524061372386,357.03566368553123,22.80362815906877,243,435,5.5,0
2,2,0,0.0,Low,8,100.0,100.0,429.662737500621,,0.2327406853610512,9,90.0,100.0,468.9398778007469,,0.191922257544156,7,87.5,93.75,395.24815713853707,1204.8808499821462,0.2213799063187806,8.0,92.5,431.2835908133017,,0.2153476164079959,300.00599999999986,109.62699999999997,75.0,46.875,3,1,4,0,0,42.83500000000004,31.192999999999984,12.032999999999902,25.688000000000105,27.93725000000001,2.684587781546143,1,3,8,1,5.5,0,0.0565543910065628,-0.0124562635648657,0.0001941895104062,0.0690106545714285,0.0044242503398468,0.0565543910065628,0.0090496972922771,0.0064670774351342,0.0115571398637056,-0.0124562635648657,-0.0079045062791514,-0.00554742105058,-0.0078896193077228,0.0,0.0,0.0,0.0,0.0690106545714285,0.0169542035714285,0.0120144984857142,0.0194467591714285,0.0195227632814167,-0.017153243292846,-0.0131852558844454,-0.0016231127688875,371.51880108353066,23.2777678918771,230,364,5.5,0
2,3,0,0.0,Low,8,100.0,100.0,429.662737500621,,0.2327406853610512,9,90.0,100.0,468.9398778007469,,0.191922257544156,7,87.5,93.75,395.24815713853707,1204.8808499821462,0.2213799063187806,8.0,92.5,431.2835908133017,,0.2153476164079959,300.00599999999986,140.31499999999983,25.0,46.875,1,3,7,1,1,39.24699999999984,31.576000000000025,40.256000000000085,31.654999999999973,35.68349999999998,0.7006039205795399,1,3,8,1,5.5,1,0.0595209414351342,-0.0154445668791514,6.059205472945506e-06,0.0749655083142857,0.0060156752623125,0.0190905800637056,0.0124734480065628,0.0167510368637056,0.0595209414351342,-0.0106525122648657,-0.0073512682648657,-0.0154445668791514,-0.0146326934220085,0.0,0.0,0.0,0.0,0.0297430923285714,0.0198247162714285,0.0321956037428571,0.0741536348571428,-0.0177339013158667,-0.0031675994699434,-0.0248835863216493,0.048046262506983,351.55673800361734,23.83935570684276,302,602,5.5,1
2,4,0,0.0,Low,8,100.0,100.0,429.662737500621,,0.2327406853610512,9,90.0,100.0,468.9398778007469,,0.191922257544156,7,87.5,93.75,395.24815713853707,1204.8808499821462,0.2213799063187806,8.0,92.5,431.2835908133017,,0.2153476164079959,300.00599999999986,89.45800000000008,25.0,46.875,1,3,7,1,1,15.026000000000067,22.374000000000024,23.822999999999865,30.13000000000011,22.838250000000016,1.0946548006086272,1,3,8,1,5.5,1,0.0387067182922771,-0.0216095895077228,4.183414447095567e-05,0.0603163077999999,0.0064815138900608,0.0120713130065628,0.0186636862922771,0.0387067182922771,0.0320478792922771,-0.0081281115362943,-0.01054485545058,-0.0107724074220085,-0.0216095895077228,0.0,0.0,0.0,0.0,0.0201994245428571,0.0292085417428571,0.0494791257142857,0.0536574688,-0.0103141623100694,-0.0108145415509852,0.0022789772364677,-0.0214878545159065,316.22572147581616,23.966321853467804,216,376,5.5,1
2,5,0,0.0,Low,8,100.0,100.0,429.662737500621,,0.2327406853610512,9,90.0,100.0,468.9398778007469,,0.191922257544156,7,87.5,93.75,395.24815713853707,1204.8808499821462,0.2213799063187806,8.0,92.5,431.2835908133017,,0.2153476164079959,300.00599999999986,144.34500000000003,25.0,46.875,1,3,7,1,1,28.631999999999834,35.16100000000006,42.17000000000007,40.552000000000135,36.628750000000025,0.6825239736545742,1,3,8,1,5.5,1,0.0369593218637056,-0.0348049879934371,-0.0001179140304649,0.0717643098571428,-0.0196281182580803,0.0314131908922771,0.0369593218637056,0.0297120718922771,0.0186315068637056,-0.0158521149934371,-0.0175341502791514,-0.0348049879934371,-0.0134769382791514,0.0,0.0,0.0,0.0,0.0472653058857142,0.0544934721428571,0.0645170598857143,0.0321084451428571,-0.0334838133606786,-0.026994954752873,-0.0047591705873924,-0.042434708896877,318.5047698121398,24.96982841069429,350,546,5.5,1
2,6,0,0.0,Low,8,100.0,100.0,429.662737500621,,0.2327406853610512,9,90.0,100.0,468.9398778007469,,0.191922257544156,7,87.5,93.75,395.24815713853707,1204.8808499821462,0.2213799063187806,8.0,92.5,431.2835908133017,,0.2153476164079959,300.00599999999986,126.91899999999988,75.0,46.875,3,1,7,1,1,25.31199999999989,34.152000000000044,22.338999999999945,47.71799999999985,32.38024999999993,2.316226712270602,1,3,8,1,5.5,1,0.0224193857208485,-0.0275138381362943,-0.0001972420280578,0.0499332238571428,-0.0062864475713566,0.0200651057208485,0.0220838362922771,0.0224193857208485,0.0142977300779914,-0.0275138381362943,-0.0127993867648657,-0.0174262497077228,-0.0234416962791514,0.0,0.0,0.0,0.0,0.0475789438571428,0.0348832230571428,0.0398456354285714,0.0377394263571428,-0.020932381081272,-0.0096433467382457,-0.0080827572007378,-0.0244802407481357,346.8635645026624,25.9891115345,284,449,5.5,1
2,7,0,0.0,Low,8,100.0,100.0,429.662737500621,,0.2327406853610512,9,90.0,100.0,468.9398778007469,,0.191922257544156,7,87.5,93.75,395.24815713853707,1204.8808499821462,0.2213799063187806,8.0,92.5,431.2835908133017,,0.2153476164079959,300.00599999999986,122.38200000000006,75.0,46.875,3,1,6,0,0,37.70900000000029,18.52499999999964,34.03500000000031,33.766999999999825,31.00900000000001,2.418652649230867,1,3,8,1,5.5,1,0.0220610005779914,-0.0571496461362943,-0.0003208918042982,0.0792106467142857,-0.0411583616931909,0.0220610005779914,0.0101091614637056,0.0155283326351342,0.0096417713494199,-0.0571496461362943,-0.0082797875934371,-0.0117136226934371,-0.0086662215934371,0.0,0.0,0.0,0.0,0.0792106467142857,0.0183889490571428,0.0272419553285714,0.0183079929428571,-0.0153857350110015,-0.0155042504578945,0.0051311568820286,-0.0386569724146453,290.9036839434174,23.480857795338075,298,591,5.5,1
2,8,0,0.0,Low,8,100.0,100.0,429.662737500621,,0.2327406853610512,9,90.0,100.0,468.9398778007469,,0.191922257544156,7,87.5,93.75,395.24815713853707,1204.8808499821462,0.2213799063187806,8.0,92.5,431.2835908133017,,0.2153476164079959,300.00599999999986,126.63200000000006,25.0,46.875,1,3,7,1,1,33.31800000000021,20.67999999999984,27.38700000000017,45.24699999999984,31.65800000000001,0.7896898098426934,1,3,8,1,5.5,1,0.0773503295779914,-0.0164592777077228,-0.0002745880679384,0.0938096072857142,-0.102774114340127,0.0112648778779914,0.0068159563922771,0.0773503295779914,0.0350490821494199,-0.0093907837491514,-0.00992159055058,-0.0085788534077228,-0.0118118474220085,0.0,0.0,0.0,0.0,0.0206556616271428,0.0167375469428571,0.0859291829857142,0.0468609295714285,-0.0411406674689641,-0.0152620250698745,0.0517942591628494,0.0050501302590167,274.1912451031275,24.686478200012385,320,617,5.5,1
3,1,0,0.0,Low,8,100.0,100.0,432.0889249938773,,0.2314338420069827,10,100.0,100.0,444.5620800252073,,0.2249404627455627,8,100.0,96.875,543.1930249906145,2013.5157000040635,0.1840966201687288,8.666666666666666,100.0,473.2813433365664,,0.2134903083070914,300.0095,92.54500000000009,25.0,78.125,1,3,6,1,1,15.986999999999853,21.58500000000004,30.735000000000127,38.3119999999999,26.65474999999998,0.9379191326123868,4,1,7,1,4.0,1,0.0498289352102689,-0.0288366379563977,0.0006062774951034,0.0786655731666666,0.0006790235634853,0.0420706630436022,0.0498289352102689,0.0327631970436022,0.0208848545436022,-0.0288366379563977,-0.0144983639563977,-0.0213324554563977,-0.0133094941230643,0.0,0.0,0.0,0.0,0.0709073009999999,0.0643272991666666,0.0540956525,0.0341943486666666,-0.0346913280111209,0.0415057362881301,-0.026370953082743,-0.0136317115302227,200.5233029651677,73.37722618790107,348,710,4.0,1
3,2,0,0.0,Low,8,100.0,100.0,432.0889249938773,,0.2314338420069827,10,100.0,100.0,444.5620800252073,,0.2249404627455627,8,100.0,96.875,543.1930249906145,2013.5157000040635,0.1840966201687288,8.666666666666666,100.0,473.2813433365664,,0.2134903083070914,300.0095,55.68599999999992,100.0,78.125,4,0,2,0,0,25.40000000000009,9.707999999999856,9.07100000000014,15.042999999999893,14.805499999999997,6.7542467326331455,4,1,7,1,4.0,0,0.0319598282102689,-0.028652835789731,-0.0004974089986589,0.060612664,0.0039950972453005,0.0319598282102689,0.0166236545436022,0.0133132298769356,0.0290782070102689,-0.022325239789731,-0.020893228789731,-0.022890562689731,-0.0286410674563977,0.0,0.0,0.0,0.0,0.054285068,0.0375168833333333,0.0362037925666666,0.0577192744666666,-0.013903677477809,0.0262266813686239,-0.0647172270470175,0.0481788047810612,194.6418128655758,23.27559629167513,233,487,4.0,0
3,3,0,0.0,Low,8,100.0,100.0,432.0889249938773,,0.2314338420069827,10,100.0,100.0,444.5620800252073,,0.2249404627455627,8,100.0,96.875,543.1930249906145,2013.5157000040635,0.1840966201687288,8.666666666666666,100.0,473.2813433365664,,0.2134903083070914,300.0095,95.07400000000008,75.0,78.125,3,1,3,0,0,19.124000000000024,31.988000000000056,19.90999999999985,29.64500000000021,25.16675000000004,2.980122582375551,4,1,7,1,4.0,0,0.0292503022102689,-0.0299266006230643,0.0001164192214328,0.0591769028333333,-0.0031588727544669,0.0292503022102689,0.0228032447102689,0.0179136580436022,0.0107527567102689,-0.0172226099563977,-0.013280847289731,-0.0087140464563977,-0.0299266006230643,0.0,0.0,0.0,0.0,0.0464729121666666,0.036084092,0.0266277045,0.0406793573333333,0.0112155812314078,-0.0146942978591758,0.0090200669259176,-0.0537477742725995,215.39314588368148,-3283.802549521112,334,802,4.0,0
3,4,0,0.0,Low,8,100.0,100.0,432.0889249938773,,0.2314338420069827,10,100.0,100.0,444.5620800252073,,0.2249404627455627,8,100.0,96.875,543.1930249906145,2013.5157000040635,0.1840966201687288,8.666666666666666,100.0,473.2813433365664,,0.2134903083070914,300.0095,93.19999999999982,100.0,78.125,4,0,2,0,0,34.677999999999884,10.586999999999987,33.5630000000001,16.843999999999824,23.91799999999995,4.18095158458066,4,1,7,1,4.0,0,0.0208882367102689,-0.0271363816230643,-0.0004346501122193,0.0480246183333333,-0.0359336102284996,0.0149136107102689,0.0076294873769356,0.0166409478769356,0.0208882367102689,-0.0271363816230643,-0.015776391789731,-0.0088524529563977,-0.0091633054563977,0.0,0.0,0.0,0.0,0.0420499923333333,0.0234058791666666,0.0254934008333333,0.0300515421666666,-0.0423768616150785,-0.0292028875403445,-0.0142302410806016,0.0025980839550839,203.5721779935917,21.106193683842186,340,809,4.0,0
3,5,0,0.0,Low,8,100.0,100.0,432.0889249938773,,0.2314338420069827,10,100.0,100.0,444.5620800252073,,0.2249404627455627,8,100.0,96.875,543.1930249906145,2013.5157000040635,0.1840966201687288,8.666666666666666,100.0,473.2813433365664,,0.2134903083070914,300.0095,78.32200000000012,75.0,78.125,3,1,3,0,0,15.993000000000166,19.412000000000035,13.63299999999981,32.759000000000015,20.449250000000006,3.6676161717422393,4,1,7,1,4.0,0,0.0351992330436022,-0.0202453776230643,8.828857437626335e-05,0.0554446106666666,-0.0181190879459788,0.0351992330436022,0.0201681870436022,0.0116400935436022,0.0182211835436022,-0.0202453776230643,-0.0089255071230643,-0.0118361984563977,-0.0153482994563977,0.0,0.0,0.0,0.0,0.0554446106666666,0.0290936941666666,0.0234762919999999,0.033569483,-0.0168409755174592,-0.0049884562515873,-0.0367352488710451,-0.0242193330526095,198.24748865063825,25.03757313407192,308,687,4.0,0
3,6,0,0.0,Low,8,100.0,100.0,432.0889249938773,,0.2314338420069827,10,100.0,100.0,444.5620800252073,,0.2249404627455627,8,100.0,96.875,543.1930249906145,2013.5157000040635,0.1840966201687288,8.666666666666666,100.0,473.2813433365664,,0.2134903083070914,300.0095,93.39200000000004,75.0,78.125,3,1,4,1,0,13.286000000000058,22.81099999999992,23.47900000000004,39.11000000000013,24.67150000000004,3.03994487566625,4,1,7,1,4.0,1,0.0156390600436022,-0.0146527844563977,-9.628621783240544e-05,0.0302918444999999,-0.022206568918235,0.0139903253769356,0.0114922822102689,0.0156390600436022,0.0072601452102689,-0.0146527844563977,-0.0100608754563977,-0.006742399789731,-0.0103544209563977,0.0,0.0,0.0,0.0,0.0286431098333333,0.0215531576666666,0.0223814598333333,0.0176145661666666,-0.0386891298966863,0.0025190230326814,0.01525946985351,-0.0044201454803838,210.6399799960968,24.577261273116363,330,811,4.0,1
3,7,0,0.0,Low,8,100.0,100.0,432.0889249938773,,0.2314338420069827,10,100.0,100.0,444.5620800252073,,0.2249404627455627,8,100.0,96.875,543.1930249906145,2013.5157000040635,0.1840966201687288,8.666666666666666,100.0,473.2813433365664,,0.2134903083070914,300.0095,69.53499999999985,75.0,78.125,3,1,6,1,1,12.649999999999864,17.182999999999993,21.610000000000127,22.47900000000004,18.480500000000006,4.058331755093205,4,1,7,1,4.0,1,0.0314901194602689,-0.027323088789731,0.0001649550633239,0.05881320825,0.0330839146762063,0.0314901194602689,0.0143721285436022,0.0198450860436022,0.0107549375436022,-0.027323088789731,-0.0089521304563977,-0.009117611289731,-0.0094057654563977,0.0,0.0,0.0,0.0,0.05881320825,0.023324259,0.0289626973333333,0.020160703,-0.0031477047388583,-0.0039537985421612,0.0039880671953968,0.010235260332566,204.69723496041743,23.516007461208773,238,659,4.0,1
3,8,0,0.0,Low,8,100.0,100.0,432.0889249938773,,0.2314338420069827,10,100.0,100.0,444.5620800252073,,0.2249404627455627,8,100.0,96.875,543.1930249906145,2013.5157000040635,0.1840966201687288,8.666666666666666,100.0,473.2813433365664,,0.2134903083070914,300.0095,82.37299999999982,100.0,78.125,4,0,7,1,1,15.670999999999822,21.593000000000075,31.39699999999993,13.711999999999987,20.593249999999955,4.85596008400812,4,1,7,1,4.0,1,0.0430138947102689,-0.0271362194563977,-2.914032170563e-06,0.0701501141666666,0.0134900444696675,0.0193087240436022,0.0430138947102689,0.0372963657102689,0.0207228607102689,-0.0271362194563977,-0.0193905174563977,-0.0254751144563977,-0.0164728766230643,0.0,0.0,0.0,0.0,0.0464449435,0.0624044121666666,0.0627714801666666,0.0371957373333333,-0.0479325473188751,-0.0156095310563185,-0.0035442550139215,0.0161923466937526,193.4837649481529,23.303691294869136,295,687,4.0,1
4,1,3,12.5,Low,8,100.0,100.0,404.7064374899492,,0.2470926843175888,4,40.0,100.0,649.7102749708574,,0.0615659033586842,8,100.0,96.875,789.0615499636624,1578.8971000583842,0.1267328258544661,6.666666666666667,80.0,614.4927541414896,,0.1451304711769131,300.0152999999999,128.1916,75.0,84.375,3,1,4,0,0,36.62760000000003,30.31549999999993,32.14350000000002,26.01679999999999,31.27584999999999,2.398016360866292,5,1,7,4,4.0,1,0.1510828619534992,-0.1121732767965008,0.0004354857240359,0.26325613875,-0.2357284478805299,0.1077206707034991,0.1098761407034991,0.0774385669534991,0.0588949473284991,-0.1078958555465008,-0.0775505692965008,-0.1121732767965008,-0.0691873105465008,0.0,0.0,0.0,0.0,0.21561652625,0.18742671,0.18961184375,0.128082257875,-0.0059442075742982,0.0426779433691571,-0.2925619969528369,-0.0657725685166679,370.7114531509068,23.68817032368503,247,472,4.0,1
4,2,3,12.5,Low,8,100.0,100.0,404.7064374899492,,0.2470926843175888,4,40.0,100.0,649.7102749708574,,0.0615659033586842,8,100.0,96.875,789.0615499636624,1578.8971000583842,0.1267328258544661,6.666666666666667,80.0,614.4927541414896,,0.1451304711769131,300.0152999999999,80.10100000000011,100.0,84.375,4,0,3,0,0,26.881000000000085,21.955999999999904,16.11200000000008,18.595000000000027,20.886000000000024,4.787896198410413,5,1,7,4,4.0,0,0.0983779319534991,-0.1412273017965008,-0.0009330656893785,0.2396052337499999,0.0821677759491046,0.0672747069534991,0.0981172182034992,0.0924397382034991,0.0473809443284991,-0.1054185305465008,-0.0920421917965008,-0.1412273017965008,-0.0846543817965008,0.0,0.0,0.0,0.0,0.1726932374999999,0.19015941,0.23366704,0.132035326125,-0.0544681825577706,0.0983850232987776,-0.0972666948118317,-0.0968713068936878,302.5819286517078,24.50411722961866,186,359,4.0,0
4,3,3,12.5,Low,8,100.0,100.0,404.7064374899492,,0.2470926843175888,4,40.0,100.0,649.7102749708574,,0.0615659033586842,8,100.0,96.875,789.0615499636624,1578.8971000583842,0.1267328258544661,6.666666666666667,80.0,614.4927541414896,,0.1451304711769131,300.0152999999999,132.47000000000003,50.0,84.375,2,2,5,0,0,26.55399999999986,35.00700000000006,44.77600000000007,29.345000000000027,33.920500000000004,1.474034875665158,5,1,7,4,4.0,1,0.1568563594534991,-0.1470387230465008,-0.000765249073441,0.3038950824999999,-0.1034218534355319,0.1185489994534992,0.1160410332034991,0.1568563594534991,0.0610731073284991,-0.0991367955465008,-0.0804702292965008,-0.1470387230465008,-0.0642358205465008,0.0,0.0,0.0,0.0,0.217685795,0.1965112625,0.3038950824999999,0.125308927875,-0.278171113536473,0.0448831760722636,0.2548824779672023,-0.1146646760345006,319.58445256167323,24.23201653137332,291,577,4.0,1
4,4,3,12.5,Low,8,100.0,100.0,404.7064374899492,,0.2470926843175888,4,40.0,100.0,649.7102749708574,,0.0615659033586842,8,100.0,96.875,789.0615499636624,1578.8971000583842,0.1267328258544661,6.666666666666667,80.0,614.4927541414896,,0.1451304711769131,300.0152999999999,135.61299999999983,100.0,84.375,4,0,5,0,0,37.557000000000016,45.200999999999794,27.93300000000022,28.88499999999999,34.894000000000005,2.86582220439044,5,1,7,4,4.0,1,0.1348105844534991,-0.1348243292965008,-0.0019709068044296,0.26963491375,-0.0590230391739323,0.0824615082034991,0.1348105844534991,0.0917972257034991,0.1112606482034991,-0.0892308380465008,-0.1348243292965008,-0.0916344292965008,-0.1219044217965008,0.0,0.0,0.0,0.0,0.17169234625,0.26963491375,0.183431655,0.23316507,-0.2076053452379702,0.1189356756740311,-0.1968733678064376,-0.0179420401106732,324.4072936472968,23.31704779681734,306,558,4.0,1
4,5,3,12.5,Low,8,100.0,100.0,404.7064374899492,,0.2470926843175888,4,40.0,100.0,649.7102749708574,,0.0615659033586842,8,100.0,96.875,789.0615499636624,1578.8971000583842,0.1267328258544661,6.666666666666667,80.0,614.4927541414896,,0.1451304711769131,300.0152999999999,99.10299999999984,100.0,84.375,4,0,6,1,0,26.011999999999944,28.71900000000005,19.75900000000001,30.49499999999989,26.24624999999997,3.81006810496738,5,1,7,4,4.0,1,0.0852494244534991,-0.1226947505465008,-0.0009003950880681,0.207944175,0.0615599984907762,0.0852494244534991,0.0709557055784991,0.0685601719534992,0.0843434582034991,-0.0883280255465008,-0.0494068827965008,-0.0787186105465008,-0.1226947505465008,0.0,0.0,0.0,0.0,0.17357745,0.120362588375,0.1472787825,0.20703820875,-0.0901270717816966,0.081729472824038,-0.0002729935064829,0.0615054139791836,299.2760772637563,24.86250623168917,231,404,4.0,1
4,6,3,12.5,Low,8,100.0,100.0,404.7064374899492,,0.2470926843175888,4,40.0,100.0,649.7102749708574,,0.0615659033586842,8,100.0,96.875,789.0615499636624,1578.8971000583842,0.1267328258544661,6.666666666666667,80.0,614.4927541414896,,0.1451304711769131,300.0152999999999,100.942,75.0,84.375,3,1,7,1,1,42.55799999999999,13.076999999999998,20.829999999999927,27.48700000000008,25.988,2.885947360320148,5,1,7,4,4.0,1,0.1704243832034991,-0.1166326080465008,0.0011391191665451,0.28705699125,0.3083753022286375,0.1704243832034991,0.0570686669534991,0.0482703894534991,0.1048277194534991,-0.1166326080465008,-0.0485881230465008,-0.0739433180465008,-0.0485640757965008,0.0,0.0,0.0,0.0,0.28705699125,0.10565679,0.1222137074999999,0.15339179525,0.2600050750479428,-0.0086110708072579,-0.017619940719884,0.1541493673322915,280.05402116842447,23.983884628022867,238,510,4.0,1
4,7,3,12.5,Low,8,100.0,100.0,404.7064374899492,,0.2470926843175888,4,40.0,100.0,649.7102749708574,,0.0615659033586842,8,100.0,96.875,789.0615499636624,1578.8971000583842,0.1267328258544661,6.666666666666667,80.0,614.4927541414896,,0.1451304711769131,300.0152999999999,98.49499999999988,75.0,84.375,3,1,7,1,1,12.75,32.61799999999994,33.35699999999997,22.700000000000045,25.35624999999999,2.95785062854326,5,1,7,4,4.0,1,0.0955786794534992,-0.0862331142965008,-0.0006382987152595,0.18181179375,0.1220278272295501,0.0955786794534992,0.0640180749284991,0.0769566182034991,0.0695642019534991,-0.0382513380465008,-0.0638344217965008,-0.0862331142965008,-0.0499636805465008,0.0,0.0,0.0,0.0,0.1338300175,0.127852496725,0.1631897325,0.1195278825,0.0829480072604512,-0.0314539329004336,0.0578997040995169,-0.0098259454056316,272.89901200397765,24.0120260944729,234,487,4.0,1
4,8,3,12.5,Low,8,100.0,100.0,404.7064374899492,,0.2470926843175888,4,40.0,100.0,649.7102749708574,,0.0615659033586842,8,100.0,96.875,789.0615499636624,1578.8971000583842,0.1267328258544661,6.666666666666667,80.0,614.4927541414896,,0.1451304711769131,300.0152999999999,113.47700000000007,100.0,84.375,4,0,8,1,1,30.037000000000035,35.75,34.9670000000001,12.722999999999956,28.369250000000022,3.5249433805969463,5,1,7,4,4.0,1,0.1278821807034992,-0.0868339030465008,-0.0014452293881199,0.21471608375,-0.1033325137417411,0.0695065057034991,0.1278821807034992,0.0789627842034992,0.0914562444534991,-0.0743505330465008,-0.0868339030465008,-0.0805860992965008,-0.0518876430465008,0.0,0.0,0.0,0.0,0.14385703875,0.21471608375,0.1595488835,0.1433438875,-0.1391919571491343,-0.0359531493496242,-0.0452433797519542,-0.0055727024496494,312.7554514214028,25.16049233525084,249,461,4.0,1
10,1,0,0.0,Low,8,100.0,100.0,413.2961000141222,,0.2419572795305424,10,100.0,100.0,738.8993500149809,,0.1353364297829908,8,100.0,100.0,832.9409375146497,,0.1200565316172147,8.666666666666666,100.0,661.7121291812509,,0.1657834136435826,300.0045,169.0250000000001,75.0,68.75,3,1,3,0,0,42.87000000000012,38.500999999999976,15.807999999999993,23.40000000000009,30.144750000000045,2.4879954220884195,1,1,7,1,4.0,0,0.3588574125,-0.250749075,0.0424887720142738,0.6096064875,4.721974463286301,0.3241388624999999,0.1691603525,0.21726202125,0.2278933249999999,-0.250749075,-0.13744224625,-0.11253047625,-0.11733413625,0.0,0.0,0.0,0.0,0.5748879375,0.30660259875,0.3297924975,0.34522746125,1.5506891570930224,1.3118380152288418,0.5508853223607983,0.8616278313436538,374.5997695107783,27.13059466314319,229,432,4.0,0
10,2,0,0.0,Low,8,100.0,100.0,413.2961000141222,,0.2419572795305424,10,100.0,100.0,738.8993500149809,,0.1353364297829908,8,100.0,100.0,832.9409375146497,,0.1200565316172147,8.666666666666666,100.0,661.7121291812509,,0.1657834136435826,300.0045,92.92099999999982,75.0,68.75,3,1,4,1,0,28.15999999999985,27.248000000000047,25.673,31.45600000000013,28.13425000000001,2.6657899179825293,1,1,7,1,4.0,1,0.18690197375,-0.1553605125,0.0429297587583452,0.34226248625,3.971116085583161,0.18690197375,0.1761242787499999,0.18602736125,0.1309966562499999,-0.06441935675,-0.11779072375,-0.12868505375,-0.0377780346249999,0.0,0.0,0.0,0.0,0.2513213305,0.2939150024999999,0.314712415,0.1687746908749999,0.967410120818002,1.107583578546815,1.3041673529557407,0.6713683165500979,337.86884469696867,29.300485796003628,192,389,4.0,1
10,3,0,0.0,Low,8,100.0,100.0,413.2961000141222,,0.2419572795305424,10,100.0,100.0,738.8993500149809,,0.1353364297829908,8,100.0,100.0,832.9409375146497,,0.1200565316172147,8.666666666666666,100.0,661.7121291812509,,0.1657834136435826,300.0045,184.568,0.0,68.75,0,4,6,1,1,47.65599999999995,41.21499999999992,47.69700000000012,51.27999999999997,46.96199999999999,0.0,1,1,7,1,4.0,1,0.32394195,-0.1710173299999999,0.0418538663388457,0.49495928,7.607308742941736,0.32394195,0.19104694,0.2212735874999999,0.27928140125,-0.1710173299999999,-0.06341776625,-0.1173330225,-0.13242133,0.0,0.0,0.0,0.0,0.49495928,0.25446470625,0.33860661,0.41170273125,1.864823214728205,1.7325437781573003,1.9391557997421969,1.93689579858753,396.9147702893912,29.45446996925592,352,652,4.0,1
10,4,0,0.0,Low,8,100.0,100.0,413.2961000141222,,0.2419572795305424,10,100.0,100.0,738.8993500149809,,0.1353364297829908,8,100.0,100.0,832.9409375146497,,0.1200565316172147,8.666666666666666,100.0,661.7121291812509,,0.1657834136435826,300.0045,122.03199999999993,100.0,68.75,4,0,5,1,0,23.336000000000013,32.40499999999997,36.04999999999996,35.84999999999991,31.91024999999996,3.13378929967644,1,1,7,1,4.0,1,0.3247012599999999,-0.1682259374999999,0.0417294793274078,0.4929271974999999,5.186915132126575,0.21542569,0.1771391749999999,0.3247012599999999,0.14445008125,-0.1158470574999999,-0.1682259374999999,-0.09561973,-0.0818619975,0.0,0.0,0.0,0.0,0.3312727475,0.3453651124999999,0.4203209899999999,0.22631207875,0.6878555380132425,1.086634115020395,1.7924574312184314,1.3053499958870056,376.9698411016461,28.81780550835457,246,380,4.0,1
10,5,0,0.0,Low,8,100.0,100.0,413.2961000141222,,0.2419572795305424,10,100.0,100.0,738.8993500149809,,0.1353364297829908,8,100.0,100.0,832.9409375146497,,0.1200565316172147,8.666666666666666,100.0,661.7121291812509,,0.1657834136435826,300.0045,157.93900000000008,100.0,68.75,4,0,4,1,0,44.0110000000002,37.562999999999874,45.72900000000004,33.78899999999999,40.273000000000025,2.4830531621682006,1,1,7,1,4.0,1,0.4793777875,-0.3217113,0.0436334296619376,0.8010890875000001,6.543342346824396,0.19460601,0.3902511624999999,0.2852467425,0.1882249837499999,-0.1043127625,-0.0925452275,-0.3217113,-0.0744461057499999,0.0,0.0,0.0,0.0,0.2989187725,0.4827963899999999,0.6069580425000001,0.2626710894999999,1.988811633200116,1.5533349796689744,1.1118261920103352,1.2704322976450015,346.39197919549935,25.98444649828786,329,563,4.0,1
10,6,0,0.0,Low,8,100.0,100.0,413.2961000141222,,0.2419572795305424,10,100.0,100.0,738.8993500149809,,0.1353364297829908,8,100.0,100.0,832.9409375146497,,0.1200565316172147,8.666666666666666,100.0,661.7121291812509,,0.1657834136435826,300.0045,116.29199999999992,50.0,68.75,2,2,6,1,1,35.67399999999998,26.462999999999965,26.263000000000147,31.95899999999984,30.08974999999998,1.6616954278450315,1,1,7,1,4.0,1,0.26590386875,-0.165617845,0.0413932551306566,0.43152171375,5.000702198700581,0.26590386875,0.22851245875,0.133319995,0.1565456312499999,-0.110474805,-0.03806262125,-0.0553954399999999,-0.15640141375,0.0,0.0,0.0,0.0,0.37637867375,0.26657508,0.188715435,0.312947045,1.5320060494099117,1.312921761949523,0.7408937850712133,1.0565260915429513,338.04070089076305,29.31210825708516,237,504,4.0,1
10,7,0,0.0,Low,8,100.0,100.0,413.2961000141222,,0.2419572795305424,10,100.0,100.0,738.8993500149809,,0.1353364297829908,8,100.0,100.0,832.9409375146497,,0.1200565316172147,8.666666666666666,100.0,661.7121291812509,,0.1657834136435826,300.0045,104.90600000000018,75.0,68.75,3,1,3,0,0,23.70900000000006,18.713999999999945,31.99600000000009,33.69399999999996,27.02825000000001,2.774874436931728,1,1,7,1,4.0,0,0.3495028249999999,-0.157071925,0.041627811035756,0.50657475,4.315705316028192,0.3495028249999999,0.21485017,0.20653549625,0.17279971,-0.08357989625,-0.14519054725,-0.11679348625,-0.157071925,0.0,0.0,0.0,0.0,0.4330827212499999,0.36004071725,0.3233289825,0.329871635,0.9607832403888108,0.2694534873739432,1.3989616217076768,0.9603139454477292,303.7424715594572,29.772946791570988,229,511,4.0,0
10,8,0,0.0,Low,8,100.0,100.0,413.2961000141222,,0.2419572795305424,10,100.0,100.0,738.8993500149809,,0.1353364297829908,8,100.0,100.0,832.9409375146497,,0.1200565316172147,8.666666666666666,100.0,661.7121291812509,,0.1657834136435826,300.0045,138.31500000000003,75.0,68.75,3,1,4,1,0,26.8449999999998,26.14400000000024,47.68899999999985,37.63700000000017,34.578750000000014,2.1689621516104536,1,1,7,1,4.0,1,0.38838310125,-0.1772775049999999,0.0436958154277266,0.5656606062499999,5.62226923003717,0.18578899875,0.38838310125,0.2089543,0.1633271475,-0.06174361945,-0.051383342,-0.1772775049999999,-0.12558546125,0.0,0.0,0.0,0.0,0.2475326182,0.4397664432499999,0.386231805,0.28891260875,0.6406816220965508,1.1528621165440276,1.742083460942207,1.5429122141918763,285.9141925231818,28.30344433386233,318,673,4.0,1
15,1,0,0.0,Low,7,87.5,100.0,415.6692285822438,,0.2105039150923998,10,100.0,100.0,482.19574000686407,,0.2073846608403809,8,100.0,96.875,677.1924125059741,834.1540000401437,0.147668518065562,8.333333333333334,95.83333333333331,525.019127031694,,0.1885190313327809,300.00249999999994,174.07399999999984,75.0,62.5,3,1,7,0,0,50.61900000000014,18.80099999999993,39.91599999999994,37.21800000000008,36.63850000000002,2.0470270344037,2,1,6,3,3.5,1,0.1743711255188091,-0.1143837919097623,0.0010436548270408,0.2887549174285714,0.1562865865224966,0.0554056432759519,0.0477976090902376,0.0368586679473805,0.1743711255188091,-0.088168640624048,-0.0566447861954766,-0.0878262340526194,-0.1143837919097623,0.0,0.0,0.0,0.0,0.1435742839,0.1044423952857143,0.124684902,0.2887549174285714,0.1138735766186734,0.0193205675239725,0.1328803026437146,0.1090868709552915,322.8071149997895,25.023721170491985,293,716,3.5,1
15,2,0,0.0,Low,7,87.5,100.0,415.6692285822438,,0.2105039150923998,10,100.0,100.0,482.19574000686407,,0.2073846608403809,8,100.0,96.875,677.1924125059741,834.1540000401437,0.147668518065562,8.333333333333334,95.83333333333331,525.019127031694,,0.1885190313327809,300.00249999999994,105.14300000000004,50.0,62.5,2,2,8,0,0,50.08500000000004,13.327999999999976,17.103000000000065,32.16300000000001,28.169750000000025,1.7749536293364323,2,1,6,3,3.5,1,0.121267485118809,-0.0820268317526194,0.0006825446815333,0.2032943168714285,-0.0259415137564391,0.0384771726616662,0.0402145866616662,0.0570230393759519,0.121267485118809,-0.0820268317526194,-0.0586061297669052,-0.0661524083383337,-0.0550601561954766,0.0,0.0,0.0,0.0,0.1205040044142857,0.0988207164285714,0.1231754477142857,0.1763276413142857,0.0464947018008231,-0.0298542831506886,0.0283808675621812,-0.0732176068153686,260.7930448476889,24.27461129767433,268,619,3.5,1
15,3,0,0.0,Low,7,87.5,100.0,415.6692285822438,,0.2105039150923998,10,100.0,100.0,482.19574000686407,,0.2073846608403809,8,100.0,96.875,677.1924125059741,834.1540000401437,0.147668518065562,8.333333333333334,95.83333333333331,525.019127031694,,0.1885190313327809,300.00249999999994,167.7829999999999,75.0,62.5,3,1,9,1,1,47.26699999999983,31.154,43.05000000000018,50.22000000000003,42.92275000000001,1.7473251364369706,2,1,6,3,3.5,1,0.2025963769473804,-0.1152942284811909,0.0005018439398983,0.3178906054285714,0.1066627332358512,0.072238015518809,0.0364590789045233,0.093620735518809,0.2025963769473804,-0.0744566356097623,-0.045268635624048,-0.1071798453383337,-0.1152942284811909,0.0,0.0,0.0,0.0,0.1466946511285714,0.0817277145285714,0.2008005808571428,0.3178906054285714,0.065637210342303,-0.0227269789292574,0.0891828162163526,-0.0462460893429345,285.5386346477782,25.87915590030209,387,1041,3.5,1
15,4,0,0.0,Low,7,87.5,100.0,415.6692285822438,,0.2105039150923998,10,100.0,100.0,482.19574000686407,,0.2073846608403809,8,100.0,96.875,677.1924125059741,834.1540000401437,0.147668518065562,8.333333333333334,95.83333333333331,525.019127031694,,0.1885190313327809,300.00249999999994,127.3599999999999,100.0,62.5,4,0,7,0,0,39.221,42.19899999999984,31.20299999999997,19.10900000000015,32.93299999999999,3.036467980445147,2,1,6,3,3.5,1,0.1546174698045233,-0.0869568747669052,-0.0005425129642359,0.2415743445714285,-0.034605149957941,0.0979741240902376,0.0412136780902376,0.1546174698045233,0.0896798288045233,-0.0844359461954766,-0.0647954584811909,-0.0869568747669052,-0.080417967624048,0.0,0.0,0.0,0.0,0.1824100702857143,0.1060091365714285,0.2415743445714285,0.1700977964285714,-0.1547223982964814,-0.0399639653263173,0.1406158553402008,0.0440512536346546,291.8051565897961,26.38720291790762,284,705,3.5,1
15,5,0,0.0,Low,7,87.5,100.0,415.6692285822438,,0.2105039150923998,10,100.0,100.0,482.19574000686407,,0.2073846608403809,8,100.0,96.875,677.1924125059741,834.1540000401437,0.147668518065562,8.333333333333334,95.83333333333331,525.019127031694,,0.1885190313327809,300.00249999999994,151.72399999999993,75.0,62.5,3,1,9,1,1,50.23699999999985,32.53300000000013,31.15300000000002,40.89300000000003,38.70400000000001,1.9377842083505576,2,1,6,3,3.5,1,0.1824039940902376,-0.0820502820526194,0.0007724378990544,0.2644542761428571,0.1573764733165782,0.0519599330902376,0.0371104202330948,0.1824039940902376,0.0409044939473805,-0.0553720964811909,-0.0336614207669051,-0.0820502820526194,-0.0527695734811909,0.0,0.0,0.0,0.0,0.1073320295714285,0.070771841,0.2644542761428571,0.0936740674285714,-0.0076695886950644,-0.0617720201850599,0.1100895984601313,-0.0537903617389885,284.7138165105032,25.329495909119203,341,960,3.5,1
15,6,0,0.0,Low,7,87.5,100.0,415.6692285822438,,0.2105039150923998,10,100.0,100.0,482.19574000686407,,0.2073846608403809,8,100.0,96.875,677.1924125059741,834.1540000401437,0.147668518065562,8.333333333333334,95.83333333333331,525.019127031694,,0.1885190313327809,300.00249999999994,121.98799999999984,50.0,62.5,2,2,9,1,1,11.322999999999864,36.59899999999993,25.605999999999995,51.00300000000016,31.132749999999987,1.6060258088347483,2,1,6,3,3.5,1,0.0867287939473805,-0.079303284624048,-0.0007490082186925,0.1660320785714285,-0.0402070113393988,0.044525662518809,0.0867287939473805,0.0327382523759519,0.0281171220902376,-0.079303284624048,-0.0692688800811909,-0.0512623751811909,-0.0755323633383337,0.0,0.0,0.0,0.0,0.1238289471428571,0.1559976740285714,0.0840006275571428,0.1036494854285714,-0.1629425051996221,0.0231652847049379,0.0616946820362776,-0.0102013396181736,263.10103812359284,24.905679269319712,280,815,3.5,1
15,7,0,0.0,Low,7,87.5,100.0,415.6692285822438,,0.2105039150923998,10,100.0,100.0,482.19574000686407,,0.2073846608403809,8,100.0,96.875,677.1924125059741,834.1540000401437,0.147668518065562,8.333333333333334,95.83333333333331,525.019127031694,,0.1885190313327809,300.00249999999994,129.42499999999973,25.0,62.5,1,3,9,1,1,21.058,43.12699999999995,31.53800000000001,35.58100000000013,32.82600000000002,0.7615914214342285,2,1,6,3,3.5,1,0.2086708660902376,-0.1091915973383337,-0.0005975501549889,0.3178624634285714,0.1291611316048634,0.0576858216616662,0.2086708660902376,0.0448761730902376,0.0434195396616662,-0.0969921507669051,-0.0934884077669051,-0.1091915973383337,-0.0482248384383337,0.0,0.0,0.0,0.0,0.1546779724285714,0.3021592738571428,0.1540677704285714,0.0916443781,-0.020115790435636,0.2020734921790361,-0.1734339103523542,0.100356964417501,283.6046459559194,25.799513268782498,282,878,3.5,1
15,8,0,0.0,Low,7,87.5,100.0,415.6692285822438,,0.2105039150923998,10,100.0,100.0,482.19574000686407,,0.2073846608403809,8,100.0,96.875,677.1924125059741,834.1540000401437,0.147668518065562,8.333333333333334,95.83333333333331,525.019127031694,,0.1885190313327809,300.00249999999994,126.25599999999986,50.0,62.5,2,2,9,1,1,17.460999999999785,33.152000000000044,37.11299999999983,38.5300000000002,31.563999999999965,1.584083132682805,2,1,6,3,3.5,1,0.2173581340902376,-0.1404748429097623,0.0013506871611266,0.357832977,0.2242965631895694,0.2173581340902376,0.0270980320902376,0.0742677589473805,0.1536110526616662,-0.1404748429097623,-0.0261692839097623,-0.069108398624048,-0.1165223973383337,0.0,0.0,0.0,0.0,0.357832977,0.0532673159999999,0.1433761575714285,0.27013345,0.1336289518163743,0.0185885851482487,-0.0881891484018452,0.0142798051900166,277.8614147665926,25.472486320367608,284,795,3.5,1
16,1,9,37.5,Low,8,100.0,100.0,493.8367499999572,,0.2024960677795013,9,90.0,100.0,545.0597000000622,,0.1651195272737825,8,100.0,100.0,511.5786250000269,,0.1954733742051766,8.333333333333334,96.66666666666669,516.8250250000154,,0.1876963230861535,300.0060000000001,132.40499999999997,75.0,68.75,3,1,3,0,0,22.014000000000124,17.745999999999867,39.09300000000008,19.003999999999905,24.46425,3.0656979061283307,1,1,5,2,3.0,1,0.1272252582623208,-0.0808406117376791,0.000487053489259,0.20806587,0.0526710690970466,0.1072460182623208,0.0400737215956541,0.0690988312623208,0.1272252582623208,-0.0662114514043458,-0.0296626607543458,-0.0808406117376791,-0.0473179434043458,0.0,0.0,0.0,0.0,0.1734574696666666,0.06973638235,0.149939443,0.1745432016666666,0.020905854551897,0.0129698919367051,-0.1791337048731158,0.1292203286116911,356.28302983482,25.94190244412145,186,326,3.0,1
16,2,9,37.5,Low,8,100.0,100.0,493.8367499999572,,0.2024960677795013,9,90.0,100.0,545.0597000000622,,0.1651195272737825,8,100.0,100.0,511.5786250000269,,0.1954733742051766,8.333333333333334,96.66666666666669,516.8250250000154,,0.1876963230861535,300.0060000000001,54.61400000000003,100.0,68.75,4,0,2,0,0,20.013000000000147,9.212999999999964,12.410000000000082,17.60199999999986,14.809500000000014,6.752422431547311,1,1,5,2,3.0,0,0.1266213982623208,-0.0883915350710125,-0.0008050209844558,0.2150129333333333,-0.0577241015933853,0.1266213982623208,0.0379963155956541,0.0469285799289875,0.0310435732623208,-0.0883915350710125,-0.0650255100710125,-0.0345486317376791,-0.0395781367376791,0.0,0.0,0.0,0.0,0.2150129333333333,0.1030218256666666,0.0814772116666666,0.07062171,0.0331255231579807,-0.1051412076950776,0.0601000633388853,-0.0910343419330431,339.2019513574592,26.24643038617886,124,216,3.0,0
16,3,9,37.5,Low,8,100.0,100.0,493.8367499999572,,0.2024960677795013,9,90.0,100.0,545.0597000000622,,0.1651195272737825,8,100.0,100.0,511.5786250000269,,0.1954733742051766,8.333333333333334,96.66666666666669,516.8250250000154,,0.1876963230861535,300.0060000000001,72.32999999999993,75.0,68.75,3,1,3,0,0,11.91800000000012,23.13999999999988,26.42100000000005,13.89799999999991,18.844249999999988,3.979993897342693,1,1,5,2,3.0,1,0.0625172677623208,-0.0715688017376791,-0.0009211632646539,0.1340860695,-0.028650911405037,0.0625172677623208,0.0464492215956541,0.0467418932623208,0.0448432449289875,-0.0715688017376791,-0.0529939067376791,-0.0536467650710124,-0.0528055700710124,0.0,0.0,0.0,0.0,0.1340860695,0.0994431283333333,0.1003886583333333,0.097648815,-0.1468506563222384,0.0562823651688222,-0.0433384710149556,0.0205169538720161,309.6110540501218,26.34464035348148,172,264,3.0,1
16,4,9,37.5,Low,8,100.0,100.0,493.8367499999572,,0.2024960677795013,9,90.0,100.0,545.0597000000622,,0.1651195272737825,8,100.0,100.0,511.5786250000269,,0.1954733742051766,8.333333333333334,96.66666666666669,516.8250250000154,,0.1876963230861535,300.0060000000001,77.66500000000019,75.0,68.75,3,1,4,0,0,19.75500000000011,21.177999999999884,26.93700000000013,13.16599999999994,20.25900000000001,3.702058344439506,1,1,5,2,3.0,1,0.0627905715956541,-0.0549613089043458,0.0003285241977012,0.1177518804999999,0.0186597800616037,0.0449658982623208,0.0516211125956541,0.0627905715956541,0.0354492204289875,-0.0177582247376791,-0.0549613089043458,-0.0439972167376791,-0.0222830265710124,0.0,0.0,0.0,0.0,0.0627241229999999,0.1065824215,0.1067877883333333,0.0577322469999999,0.0474637198197001,-0.0287282063009825,-0.0201641382151163,-0.0056794637262535,359.0573164048306,25.161072494316027,165,237,3.0,1
16,5,9,37.5,Low,8,100.0,100.0,493.8367499999572,,0.2024960677795013,9,90.0,100.0,545.0597000000622,,0.1651195272737825,8,100.0,100.0,511.5786250000269,,0.1954733742051766,8.333333333333334,96.66666666666669,516.8250250000154,,0.1876963230861535,300.0060000000001,81.91300000000001,75.0,68.75,3,1,5,1,0,24.39100000000008,27.45299999999997,16.791999999999916,15.947000000000116,21.14575000000002,3.5468120071409115,1,1,5,2,3.0,1,0.0564906015956541,-0.0567386084043458,-0.0002748254690449,0.11322921,-0.0106422464434347,0.0564906015956541,0.0537084565956541,0.0331835265956541,0.0499002899289875,-0.0561602017376791,-0.0567386084043458,-0.0295310150710124,-0.0397544550710124,0.0,0.0,0.0,0.0,0.1126508033333333,0.110447065,0.0627145416666666,0.089654745,-0.0484409679732813,0.0480872146079722,-0.0032053065593709,-0.0024560489945795,384.0514013512297,26.07544311034877,183,293,3.0,1
16,6,9,37.5,Low,8,100.0,100.0,493.8367499999572,,0.2024960677795013,9,90.0,100.0,545.0597000000622,,0.1651195272737825,8,100.0,100.0,511.5786250000269,,0.1954733742051766,8.333333333333334,96.66666666666669,516.8250250000154,,0.1876963230861535,300.0060000000001,60.606,75.0,68.75,3,1,6,1,1,13.787000000000036,18.87699999999996,15.130999999999858,17.17600000000016,16.24275,4.617444706099644,1,1,5,2,3.0,1,0.0610634882623208,-0.0587694667376791,-0.0009596302278559,0.119832955,-0.0235888815953845,0.0213858823623208,0.0278261049289875,0.0417818815956541,0.0610634882623208,-0.0334085100710124,-0.0357547434043458,-0.0346867717376791,-0.0587694667376791,0.0,0.0,0.0,0.0,0.0547943924333333,0.0635808483333333,0.0764686533333333,0.119832955,-0.0539262706664379,-0.067396858272603,-0.0203362069633578,0.0518216901709861,320.3699054621946,25.22866096313233,140,273,3.0,1
16,7,9,37.5,Low,8,100.0,100.0,493.8367499999572,,0.2024960677795013,9,90.0,100.0,545.0597000000622,,0.1651195272737825,8,100.0,100.0,511.5786250000269,,0.1954733742051766,8.333333333333334,96.66666666666669,516.8250250000154,,0.1876963230861535,300.0060000000001,59.15099999999984,75.0,68.75,3,1,6,1,1,9.22199999999998,11.628999999999904,25.055000000000064,15.523999999999887,15.35749999999996,4.883607357968432,1,1,5,2,3.0,1,0.0743672697623208,-0.0796079850710124,-0.0004923791833845,0.1539752548333333,-0.0861422650165545,0.0624605345956541,0.0662648849289875,0.0541073615956541,0.0743672697623208,-0.0589570934043458,-0.0360507017376791,-0.0652670884043458,-0.0796079850710124,0.0,0.0,0.0,0.0,0.121417628,0.1023155866666666,0.11937445,0.1539752548333333,0.0880629101859179,0.0404081090224536,-0.0316843965751674,-0.0514435300810709,306.1715121972928,25.323109368971203,142,204,3.0,1
16,8,9,37.5,Low,8,100.0,100.0,493.8367499999572,,0.2024960677795013,9,90.0,100.0,545.0597000000622,,0.1651195272737825,8,100.0,100.0,511.5786250000269,,0.1954733742051766,8.333333333333334,96.66666666666669,516.8250250000154,,0.1876963230861535,300.0060000000001,61.825000000000045,0.0,68.75,0,4,7,1,1,23.922000000000025,4.207000000000107,9.218000000000076,24.47799999999984,15.456250000000011,0.0,1,1,5,2,3.0,1,0.1217762415956542,-0.1433009384043458,0.0012723816691415,0.26507718,-0.0419122916457702,0.1217762415956542,0.0110671744289875,0.0667362769289875,0.0910554849289875,-0.0731909049043458,-0.0155626358043458,-0.1433009384043458,-0.0855569467376791,0.0,0.0,0.0,0.0,0.1949671465,0.0266298102333333,0.2100372153333333,0.1766124316666666,0.0286122014751462,-0.0022579958580919,-0.0738989471198334,0.1237442933034997,276.337356321834,26.37751208486536,142,279,3.0,1
20,1,11,45.83,High,8,100.0,71.875,552.7621249998447,378.0111777776053,0.1809096453560889,9,90.0,100.0,470.9427555559766,,0.1911060292110227,4,50.0,96.875,882.4512749988571,1376.9506999997247,0.0566603521537942,7.0,80.0,635.3853851848928,,0.1428920089069686,300.00699999999995,184.24399999999991,75.0,75.0,3,1,4,1,0,24.55499999999984,35.677000000000135,46.909999999999854,28.27300000000014,33.85374999999999,2.2154118819923947,3,2,8,1,5.0,0,0.0786274553265858,-0.068349477788557,0.0017459595512176,0.1469769331151428,0.1186654790842689,0.0690182730408715,0.0360457137551572,0.0786274553265858,0.0427462421837286,-0.028157331530557,-0.0469131962448427,-0.068349477788557,-0.0528747312448427,0.0,0.0,0.0,0.0,0.0971756045714285,0.08295891,0.1469769331151428,0.0956209734285714,0.1409910869327804,0.0151850094090471,0.0614813577783815,0.0293649495073875,389.0205264901647,90.90238021873716,149,219,5.0,0
20,2,11,45.83,High,8,100.0,71.875,552.7621249998447,378.0111777776053,0.1809096453560889,9,90.0,100.0,470.9427555559766,,0.1911060292110227,4,50.0,96.875,882.4512749988571,1376.9506999997247,0.0566603521537942,7.0,80.0,635.3853851848928,,0.1428920089069686,300.00699999999995,124.048,100.0,75.0,4,0,4,1,0,29.365999999999985,30.412000000000035,22.423,44.83399999999983,31.758749999999964,3.1487385366237683,3,2,8,1,5.0,0,0.0397082958980143,-0.0413321558162713,0.0007273198172409,0.0810404517142857,0.0765464667837133,0.0397082958980143,0.0275922776408715,0.0225195678980143,0.0378675774694429,-0.0411279093876999,-0.0328026561019856,-0.021352461530557,-0.037133039530557,0.0,0.0,0.0,0.0,0.0808362052857142,0.0603949337428571,0.0438720294285714,0.075000617,0.0727241718052856,0.0600390453039124,-0.0626374394380051,0.0657739831897178,362.59174320857016,72.99994047619047,168,225,5.0,0
20,3,11,45.83,High,8,100.0,71.875,552.7621249998447,378.0111777776053,0.1809096453560889,9,90.0,100.0,470.9427555559766,,0.1911060292110227,4,50.0,96.875,882.4512749988571,1376.9506999997247,0.0566603521537942,7.0,80.0,635.3853851848928,,0.1428920089069686,300.00699999999995,122.94100000000005,75.0,75.0,3,1,4,1,0,31.18700000000013,30.44100000000003,30.20899999999984,33.39499999999998,31.308,2.3955538520505946,3,2,8,1,5.0,0,0.0692478416123,-0.0565964798162713,0.0002347346435464,0.1258443214285714,0.1166374072802836,0.0413027510408715,0.0692478416123,0.0243968011837286,0.0279571568980143,-0.0565964798162713,-0.0551301212448427,-0.0391011679591284,-0.0305114709591284,0.0,0.0,0.0,0.0,0.0978992308571428,0.1243779628571428,0.0634979691428571,0.0584686278571428,0.0359431947858715,0.0986632639007404,0.0693470809117654,0.0551872569249533,305.2890397358074,35.42147034252297,178,239,5.0,0
20,4,11,45.83,High,8,100.0,71.875,552.7621249998447,378.0111777776053,0.1809096453560889,9,90.0,100.0,470.9427555559766,,0.1911060292110227,4,50.0,96.875,882.4512749988571,1376.9506999997247,0.0566603521537942,7.0,80.0,635.3853851848928,,0.1428920089069686,300.00699999999995,109.7170000000001,75.0,75.0,3,1,4,1,0,43.7030000000002,20.47899999999981,31.25200000000018,16.144000000000005,27.89450000000005,2.688702073885528,3,2,8,1,5.0,0,0.0408695991837286,-0.0474934202448427,0.0016306169548428,0.0883630194285714,0.1760475122052321,0.0408695991837286,0.0257068276123,0.0318298306123,0.0334781501837286,-0.0220222703876999,-0.0415838038162713,-0.0457386022448427,-0.0474934202448427,0.0,0.0,0.0,0.0,0.0628918695714285,0.0672906314285714,0.0775684328571428,0.0809715704285714,0.1849584728359289,-0.0741655323463384,0.0980800574701786,0.0381452793643018,347.31684892948414,46.97172759248791,148,181,5.0,0
20,5,11,45.83,High,8,100.0,71.875,552.7621249998447,378.0111777776053,0.1809096453560889,9,90.0,100.0,470.9427555559766,,0.1911060292110227,4,50.0,96.875,882.4512749988571,1376.9506999997247,0.0566603521537942,7.0,80.0,635.3853851848928,,0.1428920089069686,300.00699999999995,121.19999999999982,50.0,75.0,2,2,5,1,1,35.299999999999955,21.322999999999865,22.478000000000065,43.90300000000002,30.750999999999976,1.6259633833046092,3,2,8,1,5.0,1,0.0385527500408715,-0.0471517392448427,0.0004375631326393,0.0857044892857142,0.0337915604503114,0.0310304840408715,0.0192945587980143,0.0385527500408715,0.0357628464694429,-0.0276523349591284,-0.0333302574734141,-0.0471517392448427,-0.0289112911019856,0.0,0.0,0.0,0.0,0.058682819,0.0526248162714285,0.0857044892857142,0.0646741375714285,0.0909771858753285,0.0030986638331844,-0.0561943381213806,0.0133596602428718,293.69731603468256,34.528774189475286,243,323,5.0,1
20,6,11,45.83,High,8,100.0,71.875,552.7621249998447,378.0111777776053,0.1809096453560889,9,90.0,100.0,470.9427555559766,,0.1911060292110227,4,50.0,96.875,882.4512749988571,1376.9506999997247,0.0566603521537942,7.0,80.0,635.3853851848928,,0.1428920089069686,300.00699999999995,95.93500000000016,50.0,75.0,2,2,5,1,1,17.26800000000003,29.154999999999973,19.53499999999985,31.60800000000017,24.391500000000008,2.049894430436832,3,2,8,1,5.0,1,0.0393661160408715,-0.0447858098162713,0.0006707714445457,0.0841519258571428,0.0938549608830906,0.0245423151837286,0.0314713593037286,0.0282245684694429,0.0393661160408715,-0.0365970643876999,-0.0362980856734141,-0.0228510861019856,-0.0365953002448427,0.0,0.0,0.0,0.0,0.0611393795714285,0.0677694449771428,0.0510756545714285,0.0759614162857142,0.0283421544186791,0.0427810699948366,0.0396095145344847,0.0783821594744796,298.59819138275645,52.5269916454733,157,222,5.0,1
20,7,11,45.83,High,8,100.0,71.875,552.7621249998447,378.0111777776053,0.1809096453560889,9,90.0,100.0,470.9427555559766,,0.1911060292110227,4,50.0,96.875,882.4512749988571,1376.9506999997247,0.0566603521537942,7.0,80.0,635.3853851848928,,0.1428920089069686,300.00699999999995,121.57999999999991,100.0,75.0,4,0,4,1,0,25.82900000000018,33.35699999999997,42.41300000000001,23.60999999999968,31.30224999999996,3.1946585309362785,3,2,8,1,5.0,0,0.0568538433265858,-0.053241965530557,0.001503221403983,0.1100958088571428,0.1726313882500073,0.0568538433265858,0.0156324787551572,0.0322578710408715,0.0385934077551572,-0.053241965530557,-0.0321028878162713,-0.0347449571019856,-0.0389145196734141,0.0,0.0,0.0,0.0,0.1100958088571428,0.0477353665714285,0.0670028281428571,0.0775079274285714,0.1346864146071168,-0.0351073592492701,0.0157665018732874,0.0989080486132147,291.9861611311213,39.27509971484177,228,299,5.0,0
20,8,11,45.83,High,8,100.0,71.875,552.7621249998447,378.0111777776053,0.1809096453560889,9,90.0,100.0,470.9427555559766,,0.1911060292110227,4,50.0,96.875,882.4512749988571,1376.9506999997247,0.0566603521537942,7.0,80.0,635.3853851848928,,0.1428920089069686,300.00699999999995,131.64000000000033,75.0,75.0,3,1,5,1,1,15.882000000000062,31.363000000000284,42.259000000000015,42.13599999999997,32.91000000000008,2.278942570647214,3,2,8,1,5.0,1,0.0581536316123,-0.067091914530557,0.0012907271243942,0.1252455461428571,0.1568204345602948,0.0497856907551572,0.0532298058980143,0.0365717851837286,0.0581536316123,-0.0403738463876999,-0.067091914530557,-0.0312083388162713,-0.0553330512448427,0.0,0.0,0.0,0.0,0.0901595371428571,0.1203217204285714,0.067780124,0.1134866828571428,0.0429363835073623,0.0837851385514709,0.0871222244651103,0.0151382224436311,256.03262141861404,43.40516156462585,226,325,5.0,1
21,1,14,58.33,High,8,100.0,100.0,467.1784250000997,,0.2140509806290362,9,90.0,100.0,378.0193999999331,,0.2380830190197009,8,100.0,93.75,488.4584750000158,443.8682000002245,0.2047256934174328,8.333333333333334,96.66666666666669,444.5521000000162,,0.2189532310220566,300.003,123.9090000000001,100.0,78.125,4,0,1,0,0,35.807000000000016,19.55600000000004,22.58199999999988,26.894999999999985,26.20999999999998,3.8153376573826816,1,1,6,1,3.5,0,0.0780390733251929,-0.083248589174807,-0.0009373200608806,0.1612876624999999,-0.2353309932692787,0.0444492532001929,0.0492346404501929,0.0780390733251929,0.0489328113251929,-0.064164199799807,-0.039058924424807,-0.083248589174807,-0.030144333674807,0.0,0.0,0.0,0.0,0.108613453,0.088293564875,0.1612876624999999,0.0790771449999999,-0.2007581420333525,-0.1332325376745989,-0.0376543871407926,0.0450914864444802,328.3921552648265,26.13433704756897,210,440,3.5,0
21,2,14,58.33,High,8,100.0,100.0,467.1784250000997,,0.2140509806290362,9,90.0,100.0,378.0193999999331,,0.2380830190197009,8,100.0,93.75,488.4584750000158,443.8682000002245,0.2047256934174328,8.333333333333334,96.66666666666669,444.5521000000162,,0.2189532310220566,300.003,89.47000000000003,100.0,78.125,4,0,2,0,0,26.93700000000013,26.644999999999985,17.867999999999938,21.16599999999994,23.154,4.318908180012094,1,1,6,1,3.5,0,0.0685836120751929,-0.117156516674807,-0.0006620069538474,0.18574012875,-0.0380164557615614,0.0435212781001929,0.0447522722001929,0.0685836120751929,0.0381817473251929,-0.030145942674807,-0.048931851674807,-0.117156516674807,-0.062827207924807,0.0,0.0,0.0,0.0,0.073667220775,0.093684123875,0.18574012875,0.10100895525,-0.0396728201635637,-0.0703105298152224,-0.0218560121805315,0.0230583722839681,321.1013368983981,24.55075901328273,178,448,3.5,0
21,3,14,58.33,High,8,100.0,100.0,467.1784250000997,,0.2140509806290362,9,90.0,100.0,378.0193999999331,,0.2380830190197009,8,100.0,93.75,488.4584750000158,443.8682000002245,0.2047256934174328,8.333333333333334,96.66666666666669,444.5521000000162,,0.2189532310220566,300.003,69.54300000000012,100.0,78.125,4,0,2,0,0,18.29899999999997,24.42700000000013,14.68899999999985,15.142000000000053,18.139250000000004,5.512907093733201,1,1,6,1,3.5,0,0.0893058108251929,-0.070332217424807,0.0011165604374592,0.15963802825,-0.0185654736758462,0.0893058108251929,0.0539052158251929,0.0393092712001929,0.0393708648251929,-0.070332217424807,-0.041134615174807,-0.026474063174807,-0.035868083924807,0.0,0.0,0.0,0.0,0.15963802825,0.0950398309999999,0.065783334375,0.07523894875,0.0401890959215529,-0.0103481760220676,0.0347874772065963,-0.0252261048481622,299.1604018631871,25.327032193259235,150,366,3.5,0
21,4,14,58.33,High,8,100.0,100.0,467.1784250000997,,0.2140509806290362,9,90.0,100.0,378.0193999999331,,0.2380830190197009,8,100.0,93.75,488.4584750000158,443.8682000002245,0.2047256934174328,8.333333333333334,96.66666666666669,444.5521000000162,,0.2189532310220566,300.003,73.78600000000006,75.0,78.125,3,1,2,0,0,17.798000000000002,22.692000000000007,17.623000000000047,18.0150000000001,19.03200000000004,3.940731399747785,1,1,6,1,3.5,0,0.0546136079501929,-0.058066919174807,-0.0005509508308637,0.1126805271249999,-0.0641532712654315,0.0498914370751929,0.0455681238251929,0.0546136079501929,0.0506334768251929,-0.058066919174807,-0.045790794174807,-0.030851699674807,-0.053965844424807,0.0,0.0,0.0,0.0,0.10795835625,0.091358918,0.085465307625,0.10459932125,-0.0320286057932055,-0.1506947697964377,0.0072851796158987,0.0885892224935309,328.36753555048983,26.824741466484586,142,384,3.5,0
21,5,14,58.33,High,8,100.0,100.0,467.1784250000997,,0.2140509806290362,9,90.0,100.0,378.0193999999331,,0.2380830190197009,8,100.0,93.75,488.4584750000158,443.8682000002245,0.2047256934174328,8.333333333333334,96.66666666666669,444.5521000000162,,0.2189532310220566,300.003,98.087,25.0,78.125,1,3,5,1,1,29.832999999999856,7.904999999999973,32.67399999999998,29.94100000000003,25.08824999999996,0.9964824170677524,1,1,6,1,3.5,1,0.0862465308251929,-0.145070857799807,-0.0017034165894067,0.2313173886249999,-0.1669775167442959,0.0482341668001929,0.0289542023251929,0.0469905645751929,0.0862465308251929,-0.036119786549807,-0.011328105862307,-0.062482664174807,-0.145070857799807,0.0,0.0,0.0,0.0,0.08435395335,0.0402823081875,0.10947322875,0.2313173886249999,-0.0208846721438177,0.0204402007051717,-0.1357920729190982,-0.1200518823032413,323.09859871101946,27.41662560646222,207,525,3.5,1
21,6,14,58.33,High,8,100.0,100.0,467.1784250000997,,0.2140509806290362,9,90.0,100.0,378.0193999999331,,0.2380830190197009,8,100.0,93.75,488.4584750000158,443.8682000002245,0.2047256934174328,8.333333333333334,96.66666666666669,444.5521000000162,,0.2189532310220566,300.003,73.02300000000014,75.0,78.125,3,1,5,1,1,17.30899999999997,18.77500000000009,18.162000000000035,20.64699999999993,18.723250000000007,4.005714819809594,1,1,6,1,3.5,1,0.0887393547001929,-0.113460431674807,-0.0003880364026619,0.202199786375,-0.0332275079057226,0.0887393547001929,0.0465354629501929,0.0478030250751929,0.0396759058251929,-0.113460431674807,-0.031679569549807,-0.040497418049807,-0.067500987924807,0.0,0.0,0.0,0.0,0.202199786375,0.0782150325,0.088300443125,0.10717689375,-0.0001645222259525,-0.0059598007900221,-0.0057183014502358,-0.1100646449281695,322.7146358543335,26.96521339575787,144,408,3.5,1
21,7,14,58.33,High,8,100.0,100.0,467.1784250000997,,0.2140509806290362,9,90.0,100.0,378.0193999999331,,0.2380830190197009,8,100.0,93.75,488.4584750000158,443.8682000002245,0.2047256934174328,8.333333333333334,96.66666666666669,444.5521000000162,,0.2189532310220566,300.003,74.52800000000002,100.0,78.125,4,0,4,1,0,13.200000000000044,19.91899999999987,20.81199999999989,24.162000000000265,19.52325000000002,5.122098011345442,1,1,6,1,3.5,1,0.0732142699501929,-0.065752464424807,-0.0002533897693977,0.1389667343749999,-0.0161241237804618,0.0731687483251929,0.0551924795751929,0.0459369500751929,0.0494342358251929,-0.065752464424807,-0.062336644174807,-0.037544737299807,-0.037278176924807,0.0,0.0,0.0,0.0,0.13892121275,0.11752912375,0.083481687375,0.08671241275,-0.0402770501407535,-0.0788726631534117,0.0210878448265036,0.0567164720639335,307.8287065236293,25.257567401960785,153,378,3.5,1
21,8,14,58.33,High,8,100.0,100.0,467.1784250000997,,0.2140509806290362,9,90.0,100.0,378.0193999999331,,0.2380830190197009,8,100.0,93.75,488.4584750000158,443.8682000002245,0.2047256934174328,8.333333333333334,96.66666666666669,444.5521000000162,,0.2189532310220566,300.003,90.41399999999976,50.0,78.125,2,2,7,1,1,20.74600000000009,24.799999999999727,20.95700000000033,23.910999999999603,22.60349999999994,2.21204680691044,1,1,6,1,3.5,1,0.1059011383251929,-0.100846326674807,0.0007858490498975,0.206747465,0.0341071535204872,0.1059011383251929,0.0343012545751929,0.0496304058251929,0.0467375094501929,-0.100846326674807,-0.039060698799807,-0.066137972924807,-0.028292567799807,0.0,0.0,0.0,0.0,0.206747465,0.073361953375,0.11576837875,0.07503007725,0.0243028595253798,0.0148245965880733,-0.0524737879068332,0.043690738916599,313.7505158581055,27.814436269944743,194,416,3.5,1
22,1,14,58.33,High,8,100.0,100.0,415.0930750001862,,0.2409098248626651,10,100.0,100.0,384.1954099996656,,0.2602842131822633,8,100.0,100.0,416.1763624997548,,0.2402827479180991,8.666666666666666,100.0,405.1549491665355,,0.2471589286543425,300.00800000000004,71.298,50.0,87.5,2,2,4,0,0,21.608999999999924,11.97199999999998,20.66300000000001,16.260999999999967,17.62624999999997,2.8366782497695247,1,2,5,1,3.5,1,0.1022804806495549,-0.0948980550647308,-0.0001340511254384,0.1971785357142857,0.0300408916294918,0.0778505792209834,0.1022804806495549,0.0569006349352691,0.0432723563638406,-0.0948980550647308,-0.0928479564933022,-0.066086219350445,0.0031081066495549,0.0,0.0,0.0,0.0,0.1727486342857143,0.1951284371428572,0.1229868542857142,0.0401642497142857,-0.237408282376043,0.2960846411656095,0.0339092914228636,0.1621551596373324,358.14716553286166,25.033121085114225,150,193,3.5,1
22,2,14,58.33,High,8,100.0,100.0,415.0930750001862,,0.2409098248626651,10,100.0,100.0,384.1954099996656,,0.2602842131822633,8,100.0,100.0,416.1763624997548,,0.2402827479180991,8.666666666666666,100.0,405.1549491665355,,0.2471589286543425,300.00800000000004,63.481,100.0,87.5,4,0,4,0,0,24.037000000000035,12.150000000000093,11.092999999999847,19.422000000000025,16.6755,5.996821684507212,1,2,5,1,3.5,1,0.0542389592209834,-0.0513751164933022,-0.0001066485292593,0.1056140757142857,0.0535350173622845,0.0542389592209834,0.021956623792412,0.0316651319352691,0.0327999663638406,-0.0340407922075879,-0.0367241493504451,-0.0430010450647308,-0.0513751164933022,0.0,0.0,0.0,0.0,0.0882797514285714,0.0586807731428571,0.074666177,0.0841750828571428,0.0882048082260144,-0.0982914378604647,0.0651963200989164,0.0038431654654843,348.1659589926581,23.17308344640434,161,181,3.5,1
22,3,14,58.33,High,8,100.0,100.0,415.0930750001862,,0.2409098248626651,10,100.0,100.0,384.1954099996656,,0.2602842131822633,8,100.0,100.0,416.1763624997548,,0.2402827479180991,8.666666666666666,100.0,405.1549491665355,,0.2471589286543425,300.00800000000004,74.90000000000009,100.0,87.5,4,0,4,0,0,17.079999999999927,25.624000000000024,19.03300000000013,16.74000000000001,19.619250000000022,5.097034800005091,1,2,5,1,3.5,1,0.0962411206495549,-0.0760323922075879,0.0002399078802185,0.1722735128571428,0.0201207240148323,0.0477711706495548,0.0962411206495549,0.0937850606495549,0.0305175906495549,-0.0524510607790165,-0.0760323922075879,-0.0657822364933022,-0.0204405690647308,0.0,0.0,0.0,0.0,0.1002222314285714,0.1722735128571428,0.1595672971428571,0.0509581597142857,0.0468780970575451,-0.1145884745496081,0.124912401152755,-0.0218228800130277,396.6511475534869,22.91299865439209,168,279,3.5,1
22,4,14,58.33,High,8,100.0,100.0,415.0930750001862,,0.2409098248626651,10,100.0,100.0,384.1954099996656,,0.2602842131822633,8,100.0,100.0,416.1763624997548,,0.2402827479180991,8.666666666666666,100.0,405.1549491665355,,0.2471589286543425,300.00800000000004,56.41599999999994,100.0,87.5,4,0,3,0,0,17.560999999999922,14.224999999999907,17.13500000000022,10.526999999999816,14.861999999999966,6.728569506123014,1,2,5,1,3.5,0,0.0550251795066977,-0.0397168064933022,0.0011999842839143,0.094741986,-0.0219776381073809,0.0484871892209834,0.0198993365095549,0.0283095075066977,0.0394032216495549,-0.0397168064933022,-0.0218608222075879,-0.0235172350647308,-0.0125646660647308,0.0,0.0,0.0,0.0,0.0882039957142857,0.0417601587171428,0.0518267425714285,0.0519678877142857,0.051502472016216,-0.0469418274853208,-0.030195093473019,0.0172625447018595,347.8274484739676,22.338309041501976,132,187,3.5,0
22,5,14,58.33,High,8,100.0,100.0,415.0930750001862,,0.2409098248626651,10,100.0,100.0,384.1954099996656,,0.2602842131822633,8,100.0,100.0,416.1763624997548,,0.2402827479180991,8.666666666666666,100.0,405.1549491665355,,0.2471589286543425,300.00800000000004,74.99099999999999,100.0,87.5,4,0,5,1,1,15.048000000000002,26.47900000000004,18.317000000000007,19.386999999999944,19.80775,5.048528984867034,1,2,5,1,3.5,1,0.083544497792412,-0.0551344636361593,-0.0017064895515201,0.1386789614285714,-0.0597444797662655,0.0625507349352691,0.083544497792412,0.059317537792412,0.0485205220781263,-0.0520799107790165,-0.0466899722075879,-0.0551344636361593,-0.0381613846361593,0.0,0.0,0.0,0.0,0.1146306457142857,0.13023447,0.1144520014285714,0.0866819067142857,-0.1447560357512945,-0.0207939876189578,0.1161642624416912,0.0379653721308543,333.4071662208974,23.97055563760785,189,295,3.5,1
22,6,14,58.33,High,8,100.0,100.0,415.0930750001862,,0.2409098248626651,10,100.0,100.0,384.1954099996656,,0.2602842131822633,8,100.0,100.0,416.1763624997548,,0.2402827479180991,8.666666666666666,100.0,405.1549491665355,,0.2471589286543425,300.00800000000004,65.97300000000018,75.0,87.5,3,1,5,1,1,9.151000000000067,22.21199999999999,22.583000000000084,19.44699999999989,18.348250000000007,4.08758328450942,1,2,5,1,3.5,1,0.0420425506495549,-0.0525926164933022,0.0009618671778423,0.0946351671428571,0.0660650238140601,0.0420425506495549,0.0313167920781263,0.0313569006495549,0.0130799746495549,-0.0011545589218736,-0.0266794526361593,-0.0525926164933022,-0.0203628522075879,0.0,0.0,0.0,0.0,0.0431971095714285,0.0579962447142857,0.0839495171428571,0.0334428268571428,0.1210328839796908,-0.0733372162946933,0.067618641377496,-0.0465126279171597,317.4654491997248,22.604118701243937,158,290,3.5,1
22,7,14,58.33,High,8,100.0,100.0,415.0930750001862,,0.2409098248626651,10,100.0,100.0,384.1954099996656,,0.2602842131822633,8,100.0,100.0,416.1763624997548,,0.2402827479180991,8.666666666666666,100.0,405.1549491665355,,0.2471589286543425,300.00800000000004,73.77700000000004,75.0,87.5,3,1,6,1,1,11.745000000000118,10.174999999999956,34.60400000000004,19.75800000000004,19.07050000000004,3.9327757531265486,1,2,5,1,3.5,1,0.0960337049352691,-0.0936405864933022,-0.0021937187806518,0.1896742914285714,-0.1222761220685743,0.0960337049352691,0.0453667363638406,0.0429392863638406,0.0502542396495549,-0.0936405864933022,-0.0380250407790165,-0.048322129350445,-0.0625918193504451,0.0,0.0,0.0,0.0,0.1896742914285714,0.0833917771428571,0.0912614157142857,0.112846059,-0.1953672762151946,0.0469300259993194,0.0606322521536629,-0.0137731957346671,286.95000000000005,24.89032681536919,180,400,3.5,1
22,8,14,58.33,High,8,100.0,100.0,415.0930750001862,,0.2409098248626651,10,100.0,100.0,384.1954099996656,,0.2602842131822633,8,100.0,100.0,416.1763624997548,,0.2402827479180991,8.666666666666666,100.0,405.1549491665355,,0.2471589286543425,300.00800000000004,87.13099999999986,100.0,87.5,4,0,5,1,1,17.56399999999985,18.06400000000008,20.67100000000005,30.83199999999988,21.782749999999965,4.590788582708803,1,2,5,1,3.5,1,0.075362857792412,-0.086035479350445,0.0026400339335921,0.1613983371428571,0.2258276879552648,0.0627073920781263,0.057122057792412,0.0738738452209834,0.075362857792412,-0.086035479350445,-0.0578928207790165,-0.0711716016361593,-0.0393044630647308,0.0,0.0,0.0,0.0,0.1487428714285714,0.1150148785714285,0.1450454468571428,0.1146673208571428,-0.0072116981305353,0.0707432928177736,-0.0710150303647859,0.2469065819852087,287.70210652602736,23.68587576453796,186,470,3.5,1
23,1,22,91.67,High,8,100.0,100.0,406.88449999970544,,0.2457699912384777,9,90.0,100.0,518.1873666660977,,0.1736823508049607,8,100.0,96.875,520.1505625013851,914.4311000018206,0.1922520270267586,8.333333333333334,96.66666666666669,481.7408097223961,,0.2039014563567323,300.00339999999994,112.83200000000012,75.0,84.375,3,1,3,0,0,48.192999999999984,16.947999999999865,16.980999999999995,17.60200000000009,24.930999999999983,3.0083029160482955,4,2,6,1,4.0,0,0.0853800407969072,-0.2294818384780928,-0.0008228763439743,0.314861879275,-0.067823901448576,0.0726740179219072,0.0853800407969072,0.0721895247969072,0.0623343940469072,-0.2019830783280927,-0.0460494558280927,-0.2294818384780928,-0.0196376447030927,0.0,0.0,0.0,0.0,0.27465709625,0.131429496625,0.301671363275,0.08197203875,-0.2569820172243557,-0.0208808512900685,-0.0731525547189609,0.0539642794951094,326.4860305179479,29.24972690251481,177,432,4.0,0
23,2,22,91.67,High,8,100.0,100.0,406.88449999970544,,0.2457699912384777,9,90.0,100.0,518.1873666660977,,0.1736823508049607,8,100.0,96.875,520.1505625013851,914.4311000018206,0.1922520270267586,8.333333333333334,96.66666666666669,481.7408097223961,,0.2039014563567323,300.00339999999994,54.565000000000055,100.0,84.375,4,0,3,0,0,16.94699999999989,15.912000000000036,7.578999999999951,20.166000000000167,15.15100000000001,6.600224407629855,4,2,6,1,4.0,0,0.0563733466719072,-0.0420102649530927,-0.0005696250917066,0.0983836116249999,-0.0088863309206292,0.0379678728144072,0.0563733466719072,0.0323847876719072,0.0403989657969072,-0.0310075484530927,-0.0350162817030927,-0.0420102649530927,-0.0358919347030927,0.0,0.0,0.0,0.0,0.0689754212675,0.091389628375,0.0743950526249999,0.0762909005,-0.0698316770763253,0.0213065230111042,-0.0259781151725977,0.039545085022862,277.00481791597144,29.83817401187963,124,301,4.0,0
23,3,22,91.67,High,8,100.0,100.0,406.88449999970544,,0.2457699912384777,9,90.0,100.0,518.1873666660977,,0.1736823508049607,8,100.0,96.875,520.1505625013851,914.4311000018206,0.1922520270267586,8.333333333333334,96.66666666666669,481.7408097223961,,0.2039014563567323,300.00339999999994,67.07199999999989,75.0,84.375,3,1,4,1,0,25.500999999999976,15.724999999999907,15.195000000000164,21.78499999999985,19.551499999999976,3.836022811548992,4,2,6,1,4.0,1,0.0693424304219072,-0.0545974070780927,-0.0004277417310712,0.1239398375,-0.0045899396047734,0.0693424304219072,0.0124097635469072,0.0445238079219072,0.0516975516719072,-0.0545974070780927,-0.0436771535780927,-0.0482632433280927,-0.0456859225780927,0.0,0.0,0.0,0.0,0.1239398375,0.0560869171249999,0.0927870512499999,0.0973834742499999,0.0567876202949105,-0.060977570313126,0.0113527887172441,-0.0798899153580114,324.06476109072,79.62934173911185,163,392,4.0,1
23,4,22,91.67,High,8,100.0,100.0,406.88449999970544,,0.2457699912384777,9,90.0,100.0,518.1873666660977,,0.1736823508049607,8,100.0,96.875,520.1505625013851,914.4311000018206,0.1922520270267586,8.333333333333334,96.66666666666669,481.7408097223961,,0.2039014563567323,300.00339999999994,62.587999999999965,100.0,84.375,4,0,4,1,0,18.174999999999955,13.855000000000018,18.291000000000167,17.395999999999958,16.929250000000025,5.906936219856158,4,2,6,1,4.0,1,0.0690373016719072,-0.0710180558280927,1.6853808825062492e-06,0.1400553574999999,-0.1224918968029155,0.0287327510469072,0.0343944169219072,0.0663904766719072,0.0413372691719072,-0.0329175482030927,-0.0495660295780927,-0.0710180558280927,-0.0487368408280927,0.0,0.0,0.0,0.0,0.06165029925,0.0839604465,0.1374085325,0.0900741099999999,-0.0523913488429648,-0.1337479157750593,-0.0049984598028958,-0.0894514301678463,262.4363919941137,28.96128701945541,148,328,4.0,1
23,5,22,91.67,High,8,100.0,100.0,406.88449999970544,,0.2457699912384777,9,90.0,100.0,518.1873666660977,,0.1736823508049607,8,100.0,96.875,520.1505625013851,914.4311000018206,0.1922520270267586,8.333333333333334,96.66666666666669,481.7408097223961,,0.2039014563567323,300.00339999999994,81.74800000000005,50.0,84.375,2,2,6,1,1,18.66599999999994,22.912000000000035,15.720000000000027,38.909999999999854,24.051999999999964,2.0788292033926523,4,2,6,1,4.0,1,0.0561451904219072,-0.0685357358280927,-0.0005159539146431,0.12468092625,0.0539922802183432,0.0321980729219072,0.0561451904219072,0.0456697359219072,0.0508027954219072,-0.0404029539530927,-0.0685357358280927,-0.0503698420780927,-0.0555134858280927,0.0,0.0,0.0,0.0,0.072601026875,0.12468092625,0.096039578,0.10631628125,0.0224029412149934,-0.0191535628931586,-0.0385186782151048,-0.0160188863680939,316.34381606951035,28.26816440264716,190,461,4.0,1
23,6,22,91.67,High,8,100.0,100.0,406.88449999970544,,0.2457699912384777,9,90.0,100.0,518.1873666660977,,0.1736823508049607,8,100.0,96.875,520.1505625013851,914.4311000018206,0.1922520270267586,8.333333333333334,96.66666666666669,481.7408097223961,,0.2039014563567323,300.00339999999994,61.03899999999999,100.0,84.375,4,0,4,1,0,14.960000000000036,12.22199999999998,15.298999999999978,24.76600000000008,16.811750000000018,5.948220738471599,4,2,6,1,4.0,1,0.0576421941719072,-0.0860952995780927,0.0010576010140848,0.14373749375,0.1313283729933561,0.0497805924219072,0.0490433941719072,0.0576421941719072,0.0486119716719072,-0.0860952995780927,-0.0321573347030927,-0.0359781605780927,-0.0447571320780927,0.0,0.0,0.0,0.0,0.135875892,0.081200728875,0.09362035475,0.09336910375,-0.0287294241240838,-0.0090726906411499,-0.0101762205792772,0.1000712739032928,258.8136500754002,29.6271756544312,148,336,4.0,1
23,7,22,91.67,High,8,100.0,100.0,406.88449999970544,,0.2457699912384777,9,90.0,100.0,518.1873666660977,,0.1736823508049607,8,100.0,96.875,520.1505625013851,914.4311000018206,0.1922520270267586,8.333333333333334,96.66666666666669,481.7408097223961,,0.2039014563567323,300.00339999999994,115.62799999999991,100.0,84.375,4,0,6,1,1,14.396999999999936,29.81600000000003,46.18100000000004,40.41300000000001,32.701750000000004,3.057940324294571,4,2,6,1,4.0,1,0.0866012429219072,-0.0611111045780927,0.0004384977423834,0.1477123475,0.0118212145902567,0.0717842829219072,0.0866012429219072,0.0405563224219072,0.0612187329219072,-0.0469554767030927,-0.0611111045780927,-0.0389180693280927,-0.0439933067030927,0.0,0.0,0.0,0.0,0.118739759625,0.1477123475,0.07947439175,0.105212039625,-0.0203371185478953,0.0296690958498428,-0.0687643587537923,0.0121917255137747,260.1071761666991,28.84613460665401,274,617,4.0,1
23,8,22,91.67,High,8,100.0,100.0,406.88449999970544,,0.2457699912384777,9,90.0,100.0,518.1873666660977,,0.1736823508049607,8,100.0,96.875,520.1505625013851,914.4311000018206,0.1922520270267586,8.333333333333334,96.66666666666669,481.7408097223961,,0.2039014563567323,300.00339999999994,90.53999999999996,75.0,84.375,3,1,7,1,1,21.394999999999985,10.560999999999922,20.50300000000016,38.080999999999904,22.63499999999999,3.3134526176275694,4,2,6,1,4.0,1,0.0833055777969072,-0.0597547845780927,-0.0008306360090843,0.1430603623749999,-0.0964273861466505,0.0601629166719072,0.0538992591719072,0.0722653004219072,0.0439350329219072,-0.0522816683280927,-0.0597547845780927,-0.0475410943280927,-0.0476247533280927,0.0,0.0,0.0,0.0,0.112444585,0.1136540437499999,0.11980639475,0.09155978625,-0.017177378315913,-0.1726125661564513,0.031372073306966,-0.0737923600938244,239.39641118686,30.81574257841688,216,526,4.0,1
24,1,12,50.0,High,8,100.0,96.875,440.2261874993201,441.9396000012057,0.2271559549150048,9,90.0,100.0,516.1156777782404,,0.1743795119486184,7,87.5,96.875,669.2694142839173,1414.0589000016917,0.130739576816939,8.0,92.5,541.8704265204925,,0.1774250145601874,300.01060000000007,86.75599999999986,75.0,90.625,3,1,4,0,0,38.09099999999989,12.911000000000058,14.187999999999874,27.71000000000004,23.22499999999997,3.229278794402588,3,1,6,3,3.5,1,0.1458591077722977,-0.1578278297277023,0.0005955695943796,0.3036869375,-0.1554069996162273,0.1060566315222977,0.1041446640222977,0.0655877015222977,0.0950641065222977,-0.1578278297277023,-0.1320752347277022,-0.0977642997277022,-0.0143877678527022,0.0,0.0,0.0,0.0,0.26388446125,0.23621989875,0.16335200125,0.1094518743749999,-0.1690247271104401,-0.2428098117426894,-0.1734705232370501,0.0683861359749554,296.7479949954138,22.62647705709849,179,344,3.5,1
24,2,12,50.0,High,8,100.0,96.875,440.2261874993201,441.9396000012057,0.2271559549150048,9,90.0,100.0,516.1156777782404,,0.1743795119486184,7,87.5,96.875,669.2694142839173,1414.0589000016917,0.130739576816939,8.0,92.5,541.8704265204925,,0.1774250145601874,300.01060000000007,56.184999999999945,100.0,90.625,4,0,3,0,0,15.942000000000007,11.67100000000005,15.698000000000093,17.116999999999962,15.107000000000028,6.619447938041956,3,1,6,3,3.5,0,0.0842150040222977,-0.1060217147277022,-0.0024901402080928,0.19023671875,-0.1638859278852403,0.0842150040222977,0.0601023265222977,0.0421171841472977,0.0431368390222977,-0.1060217147277022,-0.0669269659777022,-0.0473408984777022,-0.0672527522277022,0.0,0.0,0.0,0.0,0.19023671875,0.1270292925,0.0894580826249999,0.11038959125,-0.0223066482651814,-0.0185976130240482,-0.128887570974559,-0.1101695965396991,234.4150793650768,22.629123243587102,148,289,3.5,0
24,3,12,50.0,High,8,100.0,96.875,440.2261874993201,441.9396000012057,0.2271559549150048,9,90.0,100.0,516.1156777782404,,0.1743795119486184,7,87.5,96.875,669.2694142839173,1414.0589000016917,0.130739576816939,8.0,92.5,541.8704265204925,,0.1774250145601874,300.01060000000007,71.42499999999995,100.0,90.625,4,0,4,0,0,24.781999999999925,25.595000000000027,11.316000000000033,14.782999999999902,19.11899999999997,5.23039907944977,3,1,6,3,3.5,1,0.1538863990222977,-0.0973920572277022,0.0001770749859535,0.25127845625,-0.0419803660104393,0.1188988902722977,0.0692244877722977,0.1538863990222977,0.0232097238972977,-0.0973920572277022,-0.0736806147277022,-0.0875022284777022,-0.0529245972277022,0.0,0.0,0.0,0.0,0.2162909475,0.1429051025,0.2413886275,0.076134321125,0.0884755915783024,-0.1280610883759517,0.1703434866120416,-0.1246957313891436,228.33788142979384,22.80740394665165,197,391,3.5,1
24,4,12,50.0,High,8,100.0,96.875,440.2261874993201,441.9396000012057,0.2271559549150048,9,90.0,100.0,516.1156777782404,,0.1743795119486184,7,87.5,96.875,669.2694142839173,1414.0589000016917,0.130739576816939,8.0,92.5,541.8704265204925,,0.1774250145601874,300.01060000000007,76.05799999999999,75.0,90.625,3,1,5,1,1,19.24700000000007,19.058,23.057000000000016,18.644999999999985,20.00175000000001,3.749671903708423,3,1,6,3,3.5,1,0.1672896227722977,-0.0869604709777022,-0.0001814168452793,0.25425009375,-0.0911723727753074,0.0487204740222977,0.1672896227722977,0.0968717216472977,0.0281750626472977,-0.0484356872277022,-0.0869604709777022,-0.0809283984777022,-0.0627447384777022,0.0,0.0,0.0,0.0,0.09715616125,0.25425009375,0.177800120125,0.090919801125,-0.0099604322216025,-0.0410948123957462,-0.140484702027208,-0.2224683946291509,261.1232026901398,24.13313263838965,201,361,3.5,1
24,5,12,50.0,High,8,100.0,96.875,440.2261874993201,441.9396000012057,0.2271559549150048,9,90.0,100.0,516.1156777782404,,0.1743795119486184,7,87.5,96.875,669.2694142839173,1414.0589000016917,0.130739576816939,8.0,92.5,541.8704265204925,,0.1774250145601874,300.01060000000007,84.27800000000002,100.0,90.625,4,0,5,1,1,18.452,23.11799999999993,21.35699999999997,24.550000000000185,21.869250000000022,4.572630520022401,3,1,6,3,3.5,1,0.1104650952722977,-0.1027666534777022,0.0004362048371093,0.21323174875,-0.0647915080647445,0.0909126377722977,0.1104650952722977,0.0995184702722977,0.0957609002722977,-0.1027666534777022,-0.0716837993527022,-0.0957807309777022,-0.0752806734777022,0.0,0.0,0.0,0.0,0.19367929125,0.182148894625,0.19529920125,0.17104157375,-0.1117809941098411,0.0574796965115458,-0.014995077658058,-0.1019875123368139,289.3432270273013,22.74637526318087,197,449,3.5,1
24,6,12,50.0,High,8,100.0,96.875,440.2261874993201,441.9396000012057,0.2271559549150048,9,90.0,100.0,516.1156777782404,,0.1743795119486184,7,87.5,96.875,669.2694142839173,1414.0589000016917,0.130739576816939,8.0,92.5,541.8704265204925,,0.1774250145601874,300.01060000000007,68.54599999999982,75.0,90.625,3,1,5,1,1,17.357999999999947,21.04099999999994,12.6099999999999,21.031000000000176,18.00999999999999,4.164353137146032,3,1,6,3,3.5,1,0.1839285265222977,-0.1060006422277022,0.0035027549988359,0.2899291687499999,0.019076095958445,0.1839285265222977,0.0790616615222977,0.0934988445222977,0.0821495715222977,-0.1060006422277022,-0.0841944922277022,-0.1001550734777022,-0.1025228372277023,0.0,0.0,0.0,0.0,0.2899291687499999,0.16325615375,0.1936539179999999,0.18467240875,0.0657663854548807,-0.1904655733338693,-0.1752100865590657,-0.0877641920028453,265.1901397515537,24.26266971912593,175,334,3.5,1
24,7,12,50.0,High,8,100.0,96.875,440.2261874993201,441.9396000012057,0.2271559549150048,9,90.0,100.0,516.1156777782404,,0.1743795119486184,7,87.5,96.875,669.2694142839173,1414.0589000016917,0.130739576816939,8.0,92.5,541.8704265204925,,0.1774250145601874,300.01060000000007,102.39699999999992,100.0,90.625,4,0,5,1,1,29.625,21.52199999999993,32.358999999999924,23.888000000000147,26.8485,3.7246028642196025,3,1,6,3,3.5,1,0.2397425552722977,-0.1704497322277022,0.0021821614339814,0.4101922875,0.1268209121534328,0.1124416515222977,0.0978209165222977,0.2397425552722977,0.0478599090222977,-0.0675352819777022,-0.1704497322277022,-0.0713114547277022,-0.0733651459777022,0.0,0.0,0.0,0.0,0.1799769335,0.26827064875,0.31105401,0.121225055,0.1810422857061171,-0.2327538314655724,0.1126513467226828,0.028299904295815,247.54985221373943,23.67932613571168,273,549,3.5,1
24,8,12,50.0,High,8,100.0,96.875,440.2261874993201,441.9396000012057,0.2271559549150048,9,90.0,100.0,516.1156777782404,,0.1743795119486184,7,87.5,96.875,669.2694142839173,1414.0589000016917,0.130739576816939,8.0,92.5,541.8704265204925,,0.1774250145601874,300.01060000000007,96.82600000000002,100.0,90.625,4,0,5,1,1,18.31899999999996,22.406999999999925,28.093000000000075,28.007000000000065,24.206500000000005,4.131121806126452,3,1,6,3,3.5,1,0.0695630301472977,-0.1076524097277022,0.0025100491863164,0.177215439875,0.2376997367621652,0.0643775327722977,0.0505984515222977,0.0695630301472977,0.0649827440222977,-0.0464323509777022,-0.0234511594777022,-0.0684983772277022,-0.1076524097277022,0.0,0.0,0.0,0.0,0.1108098837499999,0.074049611,0.138061407375,0.17263515375,0.1302896750031155,0.09813911099174,-0.0381913413540019,-0.0516852098849836,249.6121744316732,23.292344064135705,249,530,3.5,1
25,1,6,25.0,Low,8,100.0,100.0,447.39968750036496,,0.2235137904514482,10,100.0,100.0,539.3050499995297,,0.1854238153343589,8,100.0,93.75,691.9474874994194,813.4975000029955,0.1445196374097447,8.666666666666666,100.0,559.5507416664381,,0.1844857477318506,300.0051000000001,70.14399999999989,75.0,84.375,3,1,6,0,0,14.17599999999993,9.767000000000053,13.956000000000133,14.092999999999847,12.99799999999999,5.770118479766122,1,1,6,2,3.5,1,0.3472304814154003,-0.3108474702512663,-0.0010944600340431,0.6580779516666666,0.5082885941397817,0.276080568082067,0.1982157714154003,0.184547586082067,0.275340298082067,-0.2659347235845997,-0.1151446885845996,-0.2237902969179329,-0.3091513835845996,0.0,0.0,0.0,0.0,0.5420152916666667,0.31336046,0.4083378829999999,0.5844916816666667,0.0683709720109456,0.4286598788059602,-0.58697511655274,0.021319626377154,374.7524350649452,25.465234778121776,89,187,3.5,1
25,2,6,25.0,Low,8,100.0,100.0,447.39968750036496,,0.2235137904514482,10,100.0,100.0,539.3050499995297,,0.1854238153343589,8,100.0,93.75,691.9474874994194,813.4975000029955,0.1445196374097447,8.666666666666666,100.0,559.5507416664381,,0.1844857477318506,300.0051000000001,90.673,100.0,84.375,4,0,6,0,0,28.50999999999999,21.02300000000014,13.971000000000004,31.39099999999985,23.723749999999995,4.2151852046999325,1,1,6,2,3.5,1,0.4729463414154003,-0.3650037485845996,-0.0108045270923682,0.83795009,-0.976126433298604,0.1825268080820669,0.3909005147487336,0.3509496014154003,0.4729463414154003,-0.255682486917933,-0.157583276917933,-0.2853322469179329,-0.3650037485845996,0.0,0.0,0.0,0.0,0.438209295,0.5484837916666667,0.6362818483333332,0.83795009,-0.987685109046482,0.3780786614514272,-0.7463123786119275,0.4143008153264318,376.5706070889669,25.41901058428091,168,431,3.5,1
25,3,6,25.0,Low,8,100.0,100.0,447.39968750036496,,0.2235137904514482,10,100.0,100.0,539.3050499995297,,0.1854238153343589,8,100.0,93.75,691.9474874994194,813.4975000029955,0.1445196374097447,8.666666666666666,100.0,559.5507416664381,,0.1844857477318506,300.0051000000001,110.54500000000009,100.0,84.375,4,0,7,1,1,24.28500000000008,23.86699999999996,40.57899999999995,24.736000000000104,28.366750000000025,3.525254038619155,1,1,6,2,3.5,1,0.5061048697487336,-0.3457849685845997,-0.0061232055716572,0.8518898383333333,-0.3772707746089306,0.3675445514154002,0.1199051030820669,0.5061048697487336,0.2462033364154003,-0.3457849685845997,-0.210301721917933,-0.292235723417933,-0.1901560635845997,0.0,0.0,0.0,0.0,0.7133295199999999,0.330206825,0.7983405931666666,0.4363593999999999,-0.0570396758271315,-0.260651454561962,0.1689775498764674,-0.098680715441639,380.13482142856367,30.951799105252107,204,523,3.5,1
25,4,6,25.0,Low,8,100.0,100.0,447.39968750036496,,0.2235137904514482,10,100.0,100.0,539.3050499995297,,0.1854238153343589,8,100.0,93.75,691.9474874994194,813.4975000029955,0.1445196374097447,8.666666666666666,100.0,559.5507416664381,,0.1844857477318506,300.0051000000001,67.96299999999997,100.0,84.375,4,0,5,0,0,15.667999999999893,10.230999999999996,33.96199999999999,13.578000000000202,18.35975000000002,5.446697258949599,1,1,6,2,3.5,1,0.5973427747487337,-0.5278287845745997,-0.0132816529947352,1.1251715593233331,0.474891245118103,0.156150593082067,0.5973427747487337,0.5624908880820669,0.411647943082067,-0.1933147652512663,-0.5278287845745997,-0.2775384952512664,-0.2683783085845997,0.0,0.0,0.0,0.0,0.3494653583333333,1.1251715593233331,0.8400293833333333,0.6800262516666667,-0.5303128911297484,-0.9054774803650552,0.3718343669750395,0.2843817730025391,322.6427616500944,24.870171404682274,139,289,3.5,1
25,5,6,25.0,Low,8,100.0,100.0,447.39968750036496,,0.2235137904514482,10,100.0,100.0,539.3050499995297,,0.1854238153343589,8,100.0,93.75,691.9474874994194,813.4975000029955,0.1445196374097447,8.666666666666666,100.0,559.5507416664381,,0.1844857477318506,300.0051000000001,61.66099999999983,75.0,84.375,3,1,7,1,1,7.519000000000005,13.005999999999858,14.303000000000113,30.89799999999991,16.43149999999997,4.5644037367252,1,1,6,2,3.5,1,0.471771515582067,-0.3693895557512663,-0.0121773922639095,0.8411610713333333,-0.4444019962607971,-0.0017964085845996,0.4454426494154003,0.471771515582067,0.2021490097487336,-0.3389706519179329,-0.222669041917933,-0.3693895557512663,-0.1961471635845996,0.0,0.0,0.0,0.0,0.3371742433333333,0.6681116913333334,0.8411610713333333,0.3982961733333332,-0.52118796172063,0.0668112765118583,-0.1443306857300836,-0.369080934050481,289.16689882698705,25.81102604114348,137,281,3.5,1
25,6,6,25.0,Low,8,100.0,100.0,447.39968750036496,,0.2235137904514482,10,100.0,100.0,539.3050499995297,,0.1854238153343589,8,100.0,93.75,691.9474874994194,813.4975000029955,0.1445196374097447,8.666666666666666,100.0,559.5507416664381,,0.1844857477318506,300.0051000000001,84.54999999999995,100.0,84.375,4,0,5,0,0,12.259999999999993,23.058,15.65800000000013,39.9699999999998,22.73649999999997,4.39821432498406,1,1,6,2,3.5,1,0.373061803082067,-0.4460261652512664,-0.0085088341191243,0.8190879683333334,0.0746593771101114,0.2178970172487336,0.3188826014154003,0.2007686414154003,0.373061803082067,-0.4460261652512664,-0.1675828252512663,-0.2998183152512663,-0.2260017802512663,0.0,0.0,0.0,0.0,0.6639231825,0.4864654266666666,0.5005869566666666,0.5990635833333333,-0.5422521920045458,0.1435545110405701,-0.1989342766544505,0.3555799509466831,376.7057309941664,27.388249467120925,157,355,3.5,1
25,7,6,25.0,Low,8,100.0,100.0,447.39968750036496,,0.2235137904514482,10,100.0,100.0,539.3050499995297,,0.1854238153343589,8,100.0,93.75,691.9474874994194,813.4975000029955,0.1445196374097447,8.666666666666666,100.0,559.5507416664381,,0.1844857477318506,300.0051000000001,61.8280000000002,75.0,84.375,3,1,7,1,1,9.512000000000173,15.567999999999984,20.182000000000016,19.73000000000001,16.248000000000047,4.615952732644004,1,1,6,2,3.5,1,0.4071556964154003,-0.2328349002512663,-0.004066200622788,0.6399905966666666,0.1629018894384078,0.1055098247487336,0.3039403597487336,0.224217668082067,0.4071556964154003,-0.2016402785845996,-0.1974022052512663,-0.218658466917933,-0.2279015485845996,0.0,0.0,0.0,0.0,0.3071501033333333,0.501342565,0.442876135,0.6350572449999999,-0.1083558959312692,0.3336368319127324,-0.4480027073829001,0.2256220893945058,322.8183317907563,24.97733763820863,127,298,3.5,1
25,8,6,25.0,Low,8,100.0,100.0,447.39968750036496,,0.2235137904514482,10,100.0,100.0,539.3050499995297,,0.1854238153343589,8,100.0,93.75,691.9474874994194,813.4975000029955,0.1445196374097447,8.666666666666666,100.0,559.5507416664381,,0.1844857477318506,300.0051000000001,57.35299999999984,50.0,84.375,2,2,8,1,1,12.799999999999956,10.722999999999956,14.461000000000013,19.368999999999915,14.33824999999996,3.48717591058882,1,1,6,2,3.5,1,0.4636584164154003,-0.3943033095845996,0.0083768471439251,0.857961726,0.6428982776924125,0.2598367667487337,0.128444596082067,0.395778263082067,0.4636584164154003,-0.2277447902512663,-0.0390063037512663,-0.3306928585845997,-0.3943033095845996,0.0,0.0,0.0,0.0,0.487581557,0.1674508998333333,0.7264711216666666,0.857961726,-0.2118548485183643,0.5735994924204924,-0.7468935571429223,1.2064485799720517,318.08636716881017,26.14050947836548,119,251,3.5,1
26,1,3,12.5,Low,5,62.5,96.875,850.3046999976505,681.4744000002975,0.0735030630786501,1,10.0,96.66666666666669,522.8372999990825,707.8523999953177,0.0191264089230388,1,12.5,93.75,601.3781000074232,529.6898000015062,0.0207855922918471,2.333333333333333,28.33333333333333,658.173366668052,639.6721999990405,0.0378050214311787,300.00520000000006,92.70800000000008,50.0,59.375,2,2,5,1,0,15.444999999999936,9.338999999999942,26.188000000000105,15.071999999999887,16.510999999999967,3.028284174186912,6,2,8,9,5.0,1,0.0361080261666666,-0.0207123736666666,0.0099212792505683,0.0568203998333333,0.5976041572313385,0.0296851241666666,0.0262338180833333,0.0361080261666666,0.0327390433333333,-0.0051221288333333,-0.0147739606666666,-0.0114890515,-0.0027036556666666,0.0,0.0,0.0,0.0,0.0348072529999999,0.04100777875,0.0475970776666666,0.035442699,0.1087359612077451,0.0753197322520135,0.2494192479809472,0.0952076150668674,291.72696095081875,26.44985638269709,146,241,5.0,1
26,2,3,12.5,Low,5,62.5,96.875,850.3046999976505,681.4744000002975,0.0735030630786501,1,10.0,96.66666666666669,522.8372999990825,707.8523999953177,0.0191264089230388,1,12.5,93.75,601.3781000074232,529.6898000015062,0.0207855922918471,2.333333333333333,28.33333333333333,658.173366668052,639.6721999990405,0.0378050214311787,300.00520000000006,36.30400000000009,75.0,59.375,3,1,4,0,0,12.517000000000053,7.150000000000091,9.916999999999916,11.24499999999989,10.207249999999988,7.34771853339539,6,2,8,9,5.0,0,0.0534862718333333,-0.0388732481666666,0.0099870767689206,0.09235952,0.3131159030515942,0.0534862718333333,0.0258650768333333,0.0362308363333333,0.0186400088333333,-0.0143564543333333,0.0057738413333333,-0.0365627998333333,0.00542955625,0.0,0.0,0.0,0.0,0.0678427261666666,0.0200912355,0.0727936361666666,0.0132104525833333,0.0646144806391653,0.0866827217826011,0.0739947653277214,0.0649257273337751,406.00151515151816,24.1889338731444,94,116,5.0,0
26,3,3,12.5,Low,5,62.5,96.875,850.3046999976505,681.4744000002975,0.0735030630786501,1,10.0,96.66666666666669,522.8372999990825,707.8523999953177,0.0191264089230388,1,12.5,93.75,601.3781000074232,529.6898000015062,0.0207855922918471,2.333333333333333,28.33333333333333,658.173366668052,639.6721999990405,0.0378050214311787,300.00520000000006,20.73000000000001,100.0,59.375,4,0,2,0,0,7.371000000000095,4.400000000000091,4.44399999999996,11.039999999999964,6.813750000000027,14.67620620069706,6,2,8,9,5.0,0,0.0304662104999999,-0.03350284285,0.0101259575859437,0.06396905335,0.164511496319008,0.0304662104999999,0.0201379329166666,0.0296992755,0.015405268,-0.0064708281666666,0.0072504033333333,-0.03350284285,0.0110986912183333,0.0,0.0,0.0,0.0,0.0369370386666666,0.0128875295833333,0.06320211835,0.0043065767816666,0.0654803482445339,0.0368583142393333,0.0036014182000672,0.0282977491730749,326.503184014062,23.92953296703297,53,70,5.0,0
26,4,3,12.5,Low,5,62.5,96.875,850.3046999976505,681.4744000002975,0.0735030630786501,1,10.0,96.66666666666669,522.8372999990825,707.8523999953177,0.0191264089230388,1,12.5,93.75,601.3781000074232,529.6898000015062,0.0207855922918471,2.333333333333333,28.33333333333333,658.173366668052,639.6721999990405,0.0378050214311787,300.00520000000006,29.748000000000047,50.0,59.375,2,2,6,1,1,11.088999999999942,3.3220000000001164,6.789999999999964,13.038000000000013,8.559750000000008,5.841292093811146,6,2,8,9,5.0,1,0.0281035713333333,-0.0063593358166666,0.0093851840887696,0.03446290715,0.2501175283150122,0.025418384,0.0164010785,0.0281035713333333,0.0119102536666666,-0.0063593358166666,0.00889807745,0.00359872885,-0.0015620743666666,0.0,0.0,0.0,0.0,0.0317777198166666,0.0075030010499999,0.0245048424833333,0.0134723280333333,0.0683944639279454,0.0159077855090673,0.0794872056722667,0.0304016079227337,330.4298076923519,24.0781297009812,71,93,5.0,1
26,5,3,12.5,Low,5,62.5,96.875,850.3046999976505,681.4744000002975,0.0735030630786501,1,10.0,96.66666666666669,522.8372999990825,707.8523999953177,0.0191264089230388,1,12.5,93.75,601.3781000074232,529.6898000015062,0.0207855922918471,2.333333333333333,28.33333333333333,658.173366668052,639.6721999990405,0.0378050214311787,300.00520000000006,19.57899999999995,50.0,59.375,2,2,7,1,1,6.714999999999918,4.009000000000015,2.910000000000082,14.692000000000007,7.0815000000000055,7.060650992021459,6,2,8,9,5.0,1,0.0285347233333333,0.0001865581666666,0.0105391764212707,0.0283481651666666,0.1957329574824191,0.0216143056666666,0.0074811042783333,0.0063172075,0.0285347233333333,0.00540689595,0.0027729664999999,0.0048954106666666,0.0097079323833333,0.0,0.0,0.0,0.0,0.0162074097166666,0.0047081377783333,0.0014217968333333,0.01882679095,0.0622342403028196,0.0106626836452003,0.0043655862299998,0.0777203243370657,303.1083333333236,24.847420634920635,42,63,5.0,1
26,6,3,12.5,Low,5,62.5,96.875,850.3046999976505,681.4744000002975,0.0735030630786501,1,10.0,96.66666666666669,522.8372999990825,707.8523999953177,0.0191264089230388,1,12.5,93.75,601.3781000074232,529.6898000015062,0.0207855922918471,2.333333333333333,28.33333333333333,658.173366668052,639.6721999990405,0.0378050214311787,300.00520000000006,35.20699999999988,25.0,59.375,1,3,6,1,1,21.10699999999997,5.097999999999956,4.248000000000047,8.98700000000008,9.860000000000014,2.535496957403648,6,2,8,9,5.0,1,0.0434362738333333,-0.027536211,0.0111448414898401,0.0709724848333333,0.3733970604222345,0.0227697898333333,0.0074469294166666,0.0434362738333333,0.0167449691666666,-0.027536211,-0.014593582,0.0240792371666666,0.0046079179999999,0.0,0.0,0.0,0.0,0.0503060008333333,0.0220405114166666,0.0193570366666666,0.0121370511666666,0.2107437749398983,-0.0165500169443333,0.0792783322533351,0.0260086886249982,290.05343660968225,25.20627990430622,90,157,5.0,1
26,7,3,12.5,Low,5,62.5,96.875,850.3046999976505,681.4744000002975,0.0735030630786501,1,10.0,96.66666666666669,522.8372999990825,707.8523999953177,0.0191264089230388,1,12.5,93.75,601.3781000074232,529.6898000015062,0.0207855922918471,2.333333333333333,28.33333333333333,658.173366668052,639.6721999990405,0.0378050214311787,300.00520000000006,24.67599999999993,75.0,59.375,3,1,4,0,0,9.685999999999922,2.9449999999999363,7.858999999999924,7.319000000000187,6.952249999999992,10.787874429141658,6,2,8,9,5.0,0,0.0265413585,-0.0441697595666666,0.0092826491460241,0.0707111180666666,0.2054113462573405,0.0265413585,0.0018099111666666,0.0259015728333333,-0.0059688211666666,0.0037082043166666,-0.0441224411666666,0.00872842535,-0.0124218048333333,0.0,0.0,0.0,0.0,0.0228331541833333,0.0459323523333333,0.0171731474833333,0.0064529836666666,0.1444986316140405,-0.0182968513760009,0.0942140596142995,-0.0214072154933344,323.6035714285724,34.6877468487395,64,89,5.0,0
26,8,3,12.5,Low,5,62.5,96.875,850.3046999976505,681.4744000002975,0.0735030630786501,1,10.0,96.66666666666669,522.8372999990825,707.8523999953177,0.0191264089230388,1,12.5,93.75,601.3781000074232,529.6898000015062,0.0207855922918471,2.333333333333333,28.33333333333333,658.173366668052,639.6721999990405,0.0378050214311787,300.00520000000006,17.028999999999996,50.0,59.375,2,2,5,1,0,7.155999999999949,3.0429999999998927,3.421000000000049,3.409000000000105,4.257249999999999,11.744670855599274,6,2,8,9,5.0,1,0.0504470633333333,-0.0997505031666666,0.0015303642466666,0.1501975665,0.2324627600225332,0.0504470633333333,0.037918399,0.0197914301666666,-0.0573628015,0.0089482059166666,0.0355509813633333,-0.0037839470833333,-0.0830342848333333,0.0,0.0,0.0,0.0,0.0414988574166666,0.0023674176366666,0.0235753772499999,0.0256714833333333,0.1927421887015961,0.0278926693715997,0.0120641948561974,-0.0849157697333364,666.8921568626863,22.298423423423426,25,43,5.0,1
27,1,7,29.17,Low,8,100.0,100.0,378.0146999997669,,0.2645399768846599,10,100.0,96.66666666666669,513.5161499987589,507.3592999833636,0.1947358422909224,7,87.5,87.5,625.7309999990476,1049.2891750036506,0.139836447291461,8.333333333333334,95.83333333333331,505.7539499991911,,0.1997040888223478,300.00290000000007,95.71799999999983,75.0,90.625,3,1,4,0,0,27.794999999999845,19.93600000000015,27.14300000000003,15.983999999999924,22.714499999999987,3.301855642871296,3,2,5,2,3.5,1,0.3688638375470524,-0.1983451593279475,0.0011267280488199,0.5672089968749999,-0.2209389954589542,0.2110781006720524,0.2842911381720525,0.2230867620470524,0.3688638375470524,-0.1983451593279475,-0.1764805768279475,-0.1787010560779475,-0.0699581534529475,0.0,0.0,0.0,0.0,0.4094232599999999,0.460771715,0.401787818125,0.4388219909999999,-0.2866209428840165,0.0624484934034659,-0.5062093375209233,0.496917842838912,382.6804050116592,23.94014123009866,158,366,3.5,1
27,2,7,29.17,Low,8,100.0,100.0,378.0146999997669,,0.2645399768846599,10,100.0,96.66666666666669,513.5161499987589,507.3592999833636,0.1947358422909224,7,87.5,87.5,625.7309999990476,1049.2891750036506,0.139836447291461,8.333333333333334,95.83333333333331,505.7539499991911,,0.1997040888223478,300.00290000000007,124.80700000000002,100.0,90.625,4,0,5,0,0,21.276000000000067,27.736999999999853,43.875,38.932000000000016,32.954999999999984,3.034440904263391,3,2,5,2,3.5,1,0.3182741594220524,-0.2831729803279476,0.0017756885693938,0.6014471397500001,0.0172063906512329,0.3182741594220524,0.2630001256720525,0.2994178781720524,0.1372446369220524,-0.1761421534529475,-0.1651528705779475,-0.2831729803279476,-0.1645257220779475,0.0,0.0,0.0,0.0,0.494416312875,0.42815299625,0.5825908585,0.301770359,0.1679595362185718,-0.1498848830767417,0.1934348157041537,-0.1628084991902939,411.3746933156687,24.166084606893648,219,517,3.5,1
27,3,7,29.17,Low,8,100.0,100.0,378.0146999997669,,0.2645399768846599,10,100.0,96.66666666666669,513.5161499987589,507.3592999833636,0.1947358422909224,7,87.5,87.5,625.7309999990476,1049.2891750036506,0.139836447291461,8.333333333333334,95.83333333333331,505.7539499991911,,0.1997040888223478,300.00290000000007,142.36300000000006,100.0,90.625,4,0,6,1,0,50.31600000000003,31.962999999999965,23.256000000000085,40.281999999999925,36.45425,2.7431643772673966,3,2,5,2,3.5,1,0.3331319631720524,-0.1728190114529476,0.0005688948055693,0.5059509746249999,-0.1902556414725109,0.2856566406720524,0.2476898144220524,0.3331319631720524,0.1065998544220524,-0.1728190114529476,-0.1372816343279475,-0.1016573118279475,-0.1416583380779475,0.0,0.0,0.0,0.0,0.458475652125,0.38497144875,0.434789275,0.2482581924999999,-0.134262042668127,-0.0760844027760916,0.2887268054291017,-0.0313465429261248,385.7243874409613,26.77683355832896,268,640,3.5,1
27,4,7,29.17,Low,8,100.0,100.0,378.0146999997669,,0.2645399768846599,10,100.0,96.66666666666669,513.5161499987589,507.3592999833636,0.1947358422909224,7,87.5,87.5,625.7309999990476,1049.2891750036506,0.139836447291461,8.333333333333334,95.83333333333331,505.7539499991911,,0.1997040888223478,300.00290000000007,98.53300000000011,75.0,90.625,3,1,6,1,0,19.207000000000107,39.65599999999995,22.88799999999992,20.024000000000115,25.443750000000023,2.947678703021368,3,2,5,2,3.5,1,0.6039237406720525,-0.2130665605779475,0.0006508939470813,0.81699030125,-0.2948086215546913,0.2181419269220524,0.4719157519220524,0.6039237406720525,0.2868186806720524,-0.2130665605779475,-0.1503533068279475,-0.2008997955779476,-0.1593414905779475,0.0,0.0,0.0,0.0,0.4312084875,0.6222690587499999,0.80482353625,0.44616017125,-0.0411979018353518,-0.0296293478954147,0.1952210399276249,-0.1241295035827065,340.7803951367766,25.698835364099903,188,450,3.5,1
27,5,7,29.17,Low,8,100.0,100.0,378.0146999997669,,0.2645399768846599,10,100.0,96.66666666666669,513.5161499987589,507.3592999833636,0.1947358422909224,7,87.5,87.5,625.7309999990476,1049.2891750036506,0.139836447291461,8.333333333333334,95.83333333333331,505.7539499991911,,0.1997040888223478,300.00290000000007,126.40899999999988,100.0,90.625,4,0,6,1,0,20.34699999999998,36.975999999999885,27.616000000000213,44.41299999999978,32.337999999999965,3.0923371884470314,3,2,5,2,3.5,1,0.3476531377970525,-0.2089539880779475,-0.0026898871224044,0.556607125875,-0.6668653860959849,0.1514538472970524,0.1209520627970524,0.3476531377970525,0.1068871869220524,-0.1457134693279475,-0.1516651130779475,-0.2089539880779475,-0.0816797943279475,0.0,0.0,0.0,0.0,0.2971673166249999,0.272617175875,0.556607125875,0.18856698125,-0.2852283320512168,-0.247210021679731,-0.0207314076610222,0.0005597744236058,356.2510019007522,24.14380765360016,248,543,3.5,1
27,6,7,29.17,Low,8,100.0,100.0,378.0146999997669,,0.2645399768846599,10,100.0,96.66666666666669,513.5161499987589,507.3592999833636,0.1947358422909224,7,87.5,87.5,625.7309999990476,1049.2891750036506,0.139836447291461,8.333333333333334,95.83333333333331,505.7539499991911,,0.1997040888223478,300.00290000000007,115.32500000000005,75.0,90.625,3,1,6,1,0,28.220000000000027,37.30000000000018,19.187999999999874,34.49800000000005,29.80150000000004,2.5166518463835685,3,2,5,2,3.5,1,0.3111554510470524,-0.1393040239529475,-0.0008043472246451,0.450459475,-0.1801950814170701,0.3111554510470524,0.0788950635470524,0.1939343144220524,0.1056744144220524,-0.1393040239529475,-0.0589961880779475,-0.1169421993279475,-0.0713510743279475,0.0,0.0,0.0,0.0,0.450459475,0.137891251625,0.3108765137499999,0.17702548875,0.0949424911915116,-0.1822080131296837,-0.0965883911879421,-0.0902583644383329,393.686203800438,23.032314190612816,217,450,3.5,1
