square,location,corrAns,trials_0.thisRepN,trials_0.thisTrialN,trials_0.thisN,trials_0.thisIndex,trials_1.thisRepN,trials_1.thisTrialN,trials_1.thisN,trials_1.thisIndex,trials_2.thisRepN,trials_2.thisTrialN,trials_2.thisN,trials_2.thisIndex,thisRow.t,notes,Instructions.started,instructions.started,key_resp.started,inst_sq11.started,Instructions.stopped,key_resp.keys,key_resp.rt,key_resp.duration,All.started,sq_1.started,sq_2.started,sq_3.started,sq_4.started,sq_5.started,sq_6.started,sq_7.started,sq_8.started,sq_9.started,sq_10.started,sq_11.started,sq_12.started,All.stopped,Fixation.started,fixation_3.started,fixation_3.stopped,Fixation.stopped,N_back_0_Trial.started,target_square_0.started,response_0.started,fixation_0.started,target_square_0.stopped,fixation_0.stopped,N_back_0_Trial.stopped,response_0.keys,response_0.corr,response_0.rt,response_0.duration,Instructions_1.started,instructions_1.started,key_resp_1.started,Instructions_1.stopped,key_resp_1.keys,key_resp_1.rt,key_resp_1.duration,N_back_1_Trial.started,target_square_1.started,response_1.started,fixation_1.started,target_square_1.stopped,fixation_1.stopped,N_back_1_Trial.stopped,response_1.keys,response_1.corr,response_1.rt,response_1.duration,Instructions_2.started,instructions_2.started,key_resp_2.started,Instructions_2.stopped,key_resp_2.keys,key_resp_2.rt,key_resp_2.duration,N_back_2_trials.started,target_square_2.started,response_2.started,target_square_2.stopped,fixation_2.started,fixation_2.stopped,response_2.stopped,N_back_2_trials.stopped,response_2.keys,response_2.corr,response_2.rt,response_2.duration,End.started,thank_you.started,thank_you.stopped,End.stopped,participant,session,date,expName,psychopyVersion,frameRate,expStart,
,,,,,,,,,,,,,,,,,0.0014044999988982454,0.004042799992021173,0.004042799992021173,0.004042799992021173,1731.9007499,space,1731.8946042999887,None,,,,,,,,,,,,,,,,,,,,,,,,,,,,,,,,,,,,,,,,,,,,,,,,,,,,,,,,,,,,,,,,,,,,,,,nback45,001,2024-01-09_09h56.25.408,untitled,2023.2.3,60.01676868883973,2024-01-09 10h10.53.792646 -0500,
6,"[-0.3, 0]",None,0,0,0,0,,,,,,,,,1733.9191816999955,,,,,,,,,,1731.9008071999997,1731.914645500001,1731.914645500001,1731.914645500001,1731.914645500001,1731.914645500001,1731.914645500001,1731.914645500001,1731.914645500001,1731.914645500001,1731.914645500001,1731.914645500001,1731.914645500001,1732.8989170999994,1732.8989412999945,1732.9148981999897,1733.9191816999955,1733.8989491999964,1733.9171649999917,1733.9191816999955,1733.9191816999955,1734.3980766999885,1734.4314115999878,1736.8979538999993,1736.9149139999936,None,1,,,,,,,,,,,,,,,,,,,,,,,,,,,,,,,,,,,,,,,,,,,,nback45,001,2024-01-09_09h56.25.408,untitled,2023.2.3,60.01676868883973,2024-01-09 10h10.53.792646 -0500,
10,"[0, -0.2]",None,0,1,1,1,,,,,,,,,1736.931439299995,,,,,,,,,,,,,,,,,,,,,,,,,,,,1736.9159521999973,1736.931439299995,1736.931439299995,1737.3979675999872,1737.4313101000007,1739.8980310999905,1739.9149782999884,None,1,,,,,,,,,,,,,,,,,,,,,,,,,,,,,,,,,,,,,,,,,,,,nback45,001,2024-01-09_09h56.25.408,untitled,2023.2.3,60.01676868883973,2024-01-09 10h10.53.792646 -0500,
11,"[-0.64, -0.4]",space,0,2,2,2,,,,,,,,,1739.9314009999944,,,,,,,,,,,,,,,,,,,,,,,,,,,,1739.9157836999948,1739.9314009999944,1739.9314009999944,1740.41461349999,1740.4313154999982,1742.9146363999898,1742.9148037999985,space,1,0.42575390001002233,None,,,,,,,,,,,,,,,,,,,,,,,,,,,,,,,,,,,,,,,,,,nback45,001,2024-01-09_09h56.25.408,untitled,2023.2.3,60.01676868883973,2024-01-09 10h10.53.792646 -0500,
12,"[0.64, -0.4]",None,0,3,3,3,,,,,,,,,1742.9313344999973,,,,,,,,,,,,,,,,,,,,,,,,,,,,1742.915763500001,1742.9313344999973,1742.9313344999973,1743.3977245999995,1743.4312827999966,1745.898055499987,1745.9148052999954,None,1,,,,,,,,,,,,,,,,,,,,,,,,,,,,,,,,,,,,,,,,,,,,nback45,001,2024-01-09_09h56.25.408,untitled,2023.2.3,60.01676868883973,2024-01-09 10h10.53.792646 -0500,
1,"[-0.64, 0.4]",None,0,4,4,4,,,,,,,,,1745.931304599988,,,,,,,,,,,,,,,,,,,,,,,,,,,,1745.9155997999915,1745.931304599988,1745.931304599988,1746.4145487999922,1746.4311517999886,1748.914299199998,1748.9143894000008,None,1,,,,,,,,,,,,,,,,,,,,,,,,,,,,,,,,,,,,,,,,,,,,nback45,001,2024-01-09_09h56.25.408,untitled,2023.2.3,60.01676868883973,2024-01-09 10h10.53.792646 -0500,
1,"[-0.64, 0.4]",None,0,5,5,5,,,,,,,,,1748.931021299999,,,,,,,,,,,,,,,,,,,,,,,,,,,,1748.9147540999984,1748.931021299999,1748.931021299999,1749.4145034999965,1749.4310112999956,1751.914454400001,1751.9146509999991,None,1,,,,,,,,,,,,,,,,,,,,,,,,,,,,,,,,,,,,,,,,,,,,nback45,001,2024-01-09_09h56.25.408,untitled,2023.2.3,60.01676868883973,2024-01-09 10h10.53.792646 -0500,
4,"[-0.2, 0.1]",None,0,6,6,6,,,,,,,,,1751.931141299996,,,,,,,,,,,,,,,,,,,,,,,,,,,,1751.9154472999944,1751.931141299996,1751.931141299996,1752.414374999993,1752.4309904999973,1754.91447969999,1754.9146665000007,None,1,,,,,,,,,,,,,,,,,,,,,,,,,,,,,,,,,,,,,,,,,,,,nback45,001,2024-01-09_09h56.25.408,untitled,2023.2.3,60.01676868883973,2024-01-09 10h10.53.792646 -0500,
5,"[0.2, 0.1]",None,0,7,7,7,,,,,,,,,1754.9310414999927,,,,,,,,,,,,,,,,,,,,,,,,,,,,1754.915350299998,1754.9310414999927,1754.9310414999927,1755.4144192999956,1755.4311745999876,1757.9146036999882,1757.9148156999872,None,1,,,,,,,,,,,,,,,,,,,,,,,,,,,,,,,,,,,,,,,,,,,,nback45,001,2024-01-09_09h56.25.408,untitled,2023.2.3,60.01676868883973,2024-01-09 10h10.53.792646 -0500,
11,"[-0.64, -0.4]",space,0,8,8,8,,,,,,,,,1757.9311075999867,,,,,,,,,,,,,,,,,,,,,,,,,,,,1757.9156641000009,1757.9311075999867,1757.9311075999867,1758.4142811999918,1758.4308610000007,1760.9143008999963,1760.9144574999955,space,1,0.398292500001844,None,,,,,,,,,,,,,,,,,,,,,,,,,,,,,,,,,,,,,,,,,,nback45,001,2024-01-09_09h56.25.408,untitled,2023.2.3,60.01676868883973,2024-01-09 10h10.53.792646 -0500,
9,"[0.2, -0.1]",None,0,9,9,9,,,,,,,,,1760.9309591999918,,,,,,,,,,,,,,,,,,,,,,,,,,,,1760.9152440999896,1760.9309591999918,1760.9309591999918,1761.4142269999866,1761.4308771999931,1763.9144102999999,1763.9146142999962,None,1,,,,,,,,,,,,,,,,,,,,,,,,,,,,,,,,,,,,,,,,,,,,nback45,001,2024-01-09_09h56.25.408,untitled,2023.2.3,60.01676868883973,2024-01-09 10h10.53.792646 -0500,
8,"[-0.2, -0.1]",None,0,10,10,10,,,,,,,,,1763.9309802999924,,,,,,,,,,,,,,,,,,,,,,,,,,,,1763.9153953999921,1763.9309802999924,1763.9309802999924,1764.4142766999867,1764.4308290999907,1766.914432999998,1766.914648799997,None,1,,,,,,,,,,,,,,,,,,,,,,,,,,,,,,,,,,,,,,,,,,,,nback45,001,2024-01-09_09h56.25.408,untitled,2023.2.3,60.01676868883973,2024-01-09 10h10.53.792646 -0500,
9,"[0.2, -0.1]",None,0,11,11,11,,,,,,,,,1766.930956199998,,,,,,,,,,,,,,,,,,,,,,,,,,,,1766.9155604999978,1766.930956199998,1766.930956199998,1767.4141971999925,1767.4308509999973,1769.9142588999966,1769.9144873999903,None,1,,,,,,,,,,,,,,,,,,,,,,,,,,,,,,,,,,,,,,,,,,,,nback45,001,2024-01-09_09h56.25.408,untitled,2023.2.3,60.01676868883973,2024-01-09 10h10.53.792646 -0500,
6,"[-0.3, 0]",None,0,12,12,12,,,,,,,,,1769.930892599994,,,,,,,,,,,,,,,,,,,,,,,,,,,,1769.9152160999947,1769.930892599994,1769.930892599994,1770.414151399993,1770.4307655999874,1772.9141906999866,1772.9143794999982,None,1,,,,,,,,,,,,,,,,,,,,,,,,,,,,,,,,,,,,,,,,,,,,nback45,001,2024-01-09_09h56.25.408,untitled,2023.2.3,60.01676868883973,2024-01-09 10h10.53.792646 -0500,
9,"[0.2, -0.1]",None,0,13,13,13,,,,,,,,,1772.9308613999892,,,,,,,,,,,,,,,,,,,,,,,,,,,,1772.9151461000001,1772.9308613999892,1772.9308613999892,1773.4141658000008,1773.4307980999874,1775.914189099989,1775.9143847999949,None,1,,,,,,,,,,,,,,,,,,,,,,,,,,,,,,,,,,,,,,,,,,,,nback45,001,2024-01-09_09h56.25.408,untitled,2023.2.3,60.01676868883973,2024-01-09 10h10.53.792646 -0500,
7,"[0.3, 0]",None,0,14,14,14,,,,,,,,,1775.9307052999939,,,,,,,,,,,,,,,,,,,,,,,,,,,,1775.9151949999941,1775.9307052999939,1775.9307052999939,1776.413947299996,1776.4307850999903,1778.91404589999,1778.9142327000009,None,1,,,,,,,,,,,,,,,,,,,,,,,,,,,,,,,,,,,,,,,,,,,,nback45,001,2024-01-09_09h56.25.408,untitled,2023.2.3,60.01676868883973,2024-01-09 10h10.53.792646 -0500,
2,"[0.64, 0.4]",None,0,15,15,15,,,,,,,,,1778.930934899996,,,,,,,,,,,,,,,,,,,,,,,,,,,,1778.9149663999997,1778.930934899996,1778.930934899996,1779.4139638999914,1779.430692599999,1781.9141515999945,1781.9143398999877,None,1,,,,,,,,,,,,,,,,,,,,,,,,,,,,,,,,,,,,,,,,,,,,nback45,001,2024-01-09_09h56.25.408,untitled,2023.2.3,60.01676868883973,2024-01-09 10h10.53.792646 -0500,
2,"[0.64, 0.4]",None,0,16,16,16,,,,,,,,,1781.930667099994,,,,,,,,,,,,,,,,,,,,,,,,,,,,1781.9151041999867,1781.930667099994,1781.930667099994,1782.4139121999906,1782.4307695999887,1784.9140404999926,1784.9142401999998,None,1,,,,,,,,,,,,,,,,,,,,,,,,,,,,,,,,,,,,,,,,,,,,nback45,001,2024-01-09_09h56.25.408,untitled,2023.2.3,60.01676868883973,2024-01-09 10h10.53.792646 -0500,
11,"[-0.64, -0.4]",space,0,17,17,17,,,,,,,,,1784.9305793999956,,,,,,,,,,,,,,,,,,,,,,,,,,,,1784.9150636999984,1784.9305793999956,1784.9305793999956,1785.4140252999932,1785.4305154999893,1787.9137276999973,1787.9138712999993,space,1,0.4635539000009885,None,,,,,,,,,,,,,,,,,,,,,,,,,,,,,,,,,,,,,,,,,,nback45,001,2024-01-09_09h56.25.408,untitled,2023.2.3,60.01676868883973,2024-01-09 10h10.53.792646 -0500,
11,"[-0.64, -0.4]",space,0,18,18,18,,,,,,,,,1787.9304231999995,,,,,,,,,,,,,,,,,,,,,,,,,,,,1787.9146082999941,1787.9304231999995,1787.9304231999995,1788.4140711999935,1788.4306254999974,1790.9139637999906,1790.91416819999,space,1,0.5189835999917705,None,,,,,,,,,,,,,,,,,,,,,,,,,,,,,,,,,,,,,,,,,,nback45,001,2024-01-09_09h56.25.408,untitled,2023.2.3,60.01676868883973,2024-01-09 10h10.53.792646 -0500,
7,"[0.3, 0]",None,0,19,19,19,,,,,,,,,1790.9305700999976,,,,,,,,,,,,,,,,,,,,,,,,,,,,1790.9151173999999,1790.9305700999976,1790.9305700999976,1791.4137230999913,1791.4304496999976,1793.913799899994,1793.9139878999995,None,1,,,,,,,,,,,,,,,,,,,,,,,,,,,,,,,,,,,,,,,,,,,,nback45,001,2024-01-09_09h56.25.408,untitled,2023.2.3,60.01676868883973,2024-01-09 10h10.53.792646 -0500,
3,"[0, 0.2]",None,0,20,20,20,,,,,,,,,1793.9304115999985,,,,,,,,,,,,,,,,,,,,,,,,,,,,1793.9147213999968,1793.9304115999985,1793.9304115999985,1794.4137413999997,1794.430600199994,1796.9138548999908,1796.9140565999987,None,1,,,,,,,,,,,,,,,,,,,,,,,,,,,,,,,,,,,,,,,,,,,,nback45,001,2024-01-09_09h56.25.408,untitled,2023.2.3,60.01676868883973,2024-01-09 10h10.53.792646 -0500,
10,"[0, -0.2]",None,0,21,21,21,,,,,,,,,1796.9303450000007,,,,,,,,,,,,,,,,,,,,,,,,,,,,1796.9148079999868,1796.9303450000007,1796.9303450000007,1797.4138257999875,1797.4303609999915,1799.913791599989,1799.913996999996,None,1,,,,,,,,,,,,,,,,,,,,,,,,,,,,,,,,,,,,,,,,,,,,nback45,001,2024-01-09_09h56.25.408,untitled,2023.2.3,60.01676868883973,2024-01-09 10h10.53.792646 -0500,
1,"[-0.64, 0.4]",None,0,22,22,22,,,,,,,,,1799.9305779999995,,,,,,,,,,,,,,,,,,,,,,,,,,,,1799.914806899993,1799.9305779999995,1799.9305779999995,1800.4137243000005,1800.430348599999,1802.913638099999,1802.913799499991,None,1,,,,,,,,,,,,,,,,,,,,,,,,,,,,,,,,,,,,,,,,,,,,nback45,001,2024-01-09_09h56.25.408,untitled,2023.2.3,60.01676868883973,2024-01-09 10h10.53.792646 -0500,
2,"[0.64, 0.4]",None,0,23,23,23,,,,,,,,,1802.9302904999931,,,,,,,,,,,,,,,,,,,,,,,,,,,,1802.9144925,1802.9302904999931,1802.9302904999931,1803.4135867000005,1803.4303789999976,1805.9136765000003,1805.9138422999968,None,1,,,,,,,,,,,,,,,,,,,,,,,,,,,,,,,,,,,,,,,,,,,,nback45,001,2024-01-09_09h56.25.408,untitled,2023.2.3,60.01676868883973,2024-01-09 10h10.53.792646 -0500,
6,"[-0.3, 0]",None,0,24,24,24,,,,,,,,,1805.9303484999982,,,,,,,,,,,,,,,,,,,,,,,,,,,,1805.9145700999943,1805.9303484999982,1805.9303484999982,1806.4134295999975,1806.4301873999939,1808.9135003999982,1808.9136515999999,None,1,,,,,,,,,,,,,,,,,,,,,,,,,,,,,,,,,,,,,,,,,,,,nback45,001,2024-01-09_09h56.25.408,untitled,2023.2.3,60.01676868883973,2024-01-09 10h10.53.792646 -0500,
3,"[0, 0.2]",None,0,25,25,25,,,,,,,,,1808.9302963999944,,,,,,,,,,,,,,,,,,,,,,,,,,,,1808.9142569999967,1808.9302963999944,1808.9302963999944,1809.4136855999968,1809.4304398999957,1811.9134658999974,1811.9136490999954,None,1,,,,,,,,,,,,,,,,,,,,,,,,,,,,,,,,,,,,,,,,,,,,nback45,001,2024-01-09_09h56.25.408,untitled,2023.2.3,60.01676868883973,2024-01-09 10h10.53.792646 -0500,
11,"[-0.64, -0.4]",space,0,26,26,26,,,,,,,,,1811.9300622999872,,,,,,,,,,,,,,,,,,,,,,,,,,,,1811.9143505999964,1811.9300622999872,1811.9300622999872,1812.4135427,1812.4300625999895,1814.9134755999985,1814.9136643999955,space,1,0.43783629999961704,None,,,,,,,,,,,,,,,,,,,,,,,,,,,,,,,,,,,,,,,,,,nback45,001,2024-01-09_09h56.25.408,untitled,2023.2.3,60.01676868883973,2024-01-09 10h10.53.792646 -0500,
1,"[-0.64, 0.4]",None,0,27,27,27,,,,,,,,,1814.9300933999912,,,,,,,,,,,,,,,,,,,,,,,,,,,,1814.9145471999946,1814.9300933999912,1814.9300933999912,1815.4135537999973,1815.4301125999918,1817.9134653999936,1817.913644299988,None,1,,,,,,,,,,,,,,,,,,,,,,,,,,,,,,,,,,,,,,,,,,,,nback45,001,2024-01-09_09h56.25.408,untitled,2023.2.3,60.01676868883973,2024-01-09 10h10.53.792646 -0500,
3,"[0, 0.2]",None,0,28,28,28,,,,,,,,,1817.9300207999913,,,,,,,,,,,,,,,,,,,,,,,,,,,,1817.9143370999955,1817.9300207999913,1817.9300207999913,1818.4132829999871,1818.429978199987,1820.913506500001,1820.9136609999987,None,1,,,,,,,,,,,,,,,,,,,,,,,,,,,,,,,,,,,,,,,,,,,,nback45,001,2024-01-09_09h56.25.408,untitled,2023.2.3,60.01676868883973,2024-01-09 10h10.53.792646 -0500,
9,"[0.2, -0.1]",None,0,29,29,29,,,,,,,,,1820.930024699992,,,,,,,,,,,,,,,,,,,,,,,,,,,,1820.9143380999885,1820.930024699992,1820.930024699992,1821.413326599999,1821.429946999997,1823.9133830999926,1823.913572999998,None,1,,,,,,,,,,,,,,,,,,,,,,,,,,,,,,,,,,,,,,,,,,,,nback45,001,2024-01-09_09h56.25.408,untitled,2023.2.3,60.01676868883973,2024-01-09 10h10.53.792646 -0500,
8,"[-0.2, -0.1]",None,0,30,30,30,,,,,,,,,1823.9300122999994,,,,,,,,,,,,,,,,,,,,,,,,,,,,1823.914323399993,1823.9300122999994,1823.9300122999994,1824.4132820999948,1824.4299445999932,1826.9131900999928,1826.9133506999933,None,1,,,,,,,,,,,,,,,,,,,,,,,,,,,,,,,,,,,,,,,,,,,,nback45,001,2024-01-09_09h56.25.408,untitled,2023.2.3,60.01676868883973,2024-01-09 10h10.53.792646 -0500,
12,"[0.64, -0.4]",None,0,31,31,31,,,,,,,,,1826.929978699991,,,,,,,,,,,,,,,,,,,,,,,,,,,,1826.9140008999966,1826.929978699991,1826.929978699991,1827.413420699988,1827.4299652999907,1829.913337799997,1829.9135161999875,None,1,,,,,,,,,,,,,,,,,,,,,,,,,,,,,,,,,,,,,,,,,,,,nback45,001,2024-01-09_09h56.25.408,untitled,2023.2.3,60.01676868883973,2024-01-09 10h10.53.792646 -0500,
9,"[0.2, -0.1]",None,0,32,32,32,,,,,,,,,1829.9300484999985,,,,,,,,,,,,,,,,,,,,,,,,,,,,1829.914243399995,1829.9300484999985,1829.9300484999985,1830.4132998999994,1830.4299646,1832.9131678999984,1832.9133316999942,None,1,,,,,,,,,,,,,,,,,,,,,,,,,,,,,,,,,,,,,,,,,,,,nback45,001,2024-01-09_09h56.25.408,untitled,2023.2.3,60.01676868883973,2024-01-09 10h10.53.792646 -0500,
11,"[-0.64, -0.4]",space,0,33,33,33,,,,,,,,,1832.9299948999978,,,,,,,,,,,,,,,,,,,,,,,,,,,,1832.9140780999878,1832.9299948999978,1832.9299948999978,1833.4130401000002,1833.4299355999974,1835.9132911999914,1835.9134901999932,space,1,0.47392829999444075,None,,,,,,,,,,,,,,,,,,,,,,,,,,,,,,,,,,,,,,,,,,nback45,001,2024-01-09_09h56.25.408,untitled,2023.2.3,60.01676868883973,2024-01-09 10h10.53.792646 -0500,
7,"[0.3, 0]",None,0,34,34,34,,,,,,,,,1835.9297459999943,,,,,,,,,,,,,,,,,,,,,,,,,,,,1835.9144591999939,1835.9297459999943,1835.9297459999943,1836.4130474999984,1836.4296929999982,1838.913091800001,1838.9132604999904,None,1,,,,,,,,,,,,,,,,,,,,,,,,,,,,,,,,,,,,,,,,,,,,nback45,001,2024-01-09_09h56.25.408,untitled,2023.2.3,60.01676868883973,2024-01-09 10h10.53.792646 -0500,
11,"[-0.64, -0.4]",space,0,35,35,35,,,,,,,,,1838.929555499999,,,,,,,,,,,,,,,,,,,,,,,,,,,,1838.9139423999877,1838.929555499999,1838.929555499999,1839.4129828999867,1839.4296258999966,1841.913098399993,1841.913294099999,space,1,0.40078949999588076,None,,,,,,,,,,,,,,,,,,,,,,,,,,,,,,,,,,,,,,,,,,nback45,001,2024-01-09_09h56.25.408,untitled,2023.2.3,60.01676868883973,2024-01-09 10h10.53.792646 -0500,
4,"[-0.2, 0.1]",None,0,36,36,36,,,,,,,,,1841.9296591999882,,,,,,,,,,,,,,,,,,,,,,,,,,,,1841.9141155999969,1841.9296591999882,1841.9296591999882,1842.4129828999867,1842.429701000001,1844.9130436999985,1844.9132431999897,None,1,,,,,,,,,,,,,,,,,,,,,,,,,,,,,,,,,,,,,,,,,,,,nback45,001,2024-01-09_09h56.25.408,untitled,2023.2.3,60.01676868883973,2024-01-09 10h10.53.792646 -0500,
5,"[0.2, 0.1]",None,0,37,37,37,,,,,,,,,1844.9297159999987,,,,,,,,,,,,,,,,,,,,,,,,,,,,1844.9140540999942,1844.9297159999987,1844.9297159999987,1845.4129740999924,1845.4297510999895,1847.913021100001,1847.9132092999935,None,1,,,,,,,,,,,,,,,,,,,,,,,,,,,,,,,,,,,,,,,,,,,,nback45,001,2024-01-09_09h56.25.408,untitled,2023.2.3,60.01676868883973,2024-01-09 10h10.53.792646 -0500,
6,"[-0.3, 0]",None,0,38,38,38,,,,,,,,,1847.9296705999877,,,,,,,,,,,,,,,,,,,,,,,,,,,,1847.9140198999958,1847.9296705999877,1847.9296705999877,1848.4129004999995,1848.4296543999953,1850.9129348999995,1850.9131038999913,None,1,,,,,,,,,,,,,,,,,,,,,,,,,,,,,,,,,,,,,,,,,,,,nback45,001,2024-01-09_09h56.25.408,untitled,2023.2.3,60.01676868883973,2024-01-09 10h10.53.792646 -0500,
11,"[-0.64, -0.4]",space,0,39,39,39,,,,,,,,,1850.9295408999897,,,,,,,,,,,,,,,,,,,,,,,,,,,,1850.9137593999912,1850.9295408999897,1850.9295408999897,1851.4128675999964,1851.4295076999988,1853.912890599997,1853.9130611,space,1,0.644473200009088,None,,,,,,,,,,,,,,,,,,,,,,,,,,,,,,,,,,,,,,,,,,nback45,001,2024-01-09_09h56.25.408,untitled,2023.2.3,60.01676868883973,2024-01-09 10h10.53.792646 -0500,
,,,,,,,,,,,,,,,,,,,,,,,,,,,,,,,,,,,,,,,,,,,,,,,,,,,,,,1853.9136673999892,1853.9297090999899,1853.9297090999899,1869.2140210999933,space,15.272814399999334,None,,,,,,,,,,,,,,,,,,,,,,,,,,,,,,,,,,,nback45,001,2024-01-09_09h56.25.408,untitled,2023.2.3,60.01676868883973,2024-01-09 10h10.53.792646 -0500,
10,"[0, -0.2]",None,,,,,0,0,0,0,,,,,1870.2308458999905,,,,,,,,,,,,,,,,,,,,,,,,1869.2140591999923,1869.2292543999938,1870.2308458999905,1870.2138057999982,,,,,,,,,,,,,,,,,,,1870.228885599994,1870.2308458999905,1870.2308458999905,1870.7292985999957,1870.7460300999956,1873.2291423999995,1873.2293130999897,None,1,,,,,,,,,,,,,,,,,,,,,,,,,,nback45,001,2024-01-09_09h56.25.408,untitled,2023.2.3,60.01676868883973,2024-01-09 10h10.53.792646 -0500,
5,"[0.2, 0.1]",None,,,,,0,1,1,1,,,,,1873.2457369999902,,,,,,,,,,,,,,,,,,,,,,,,,,,,,,,,,,,,,,,,,,,,,,1873.230152899996,1873.2457369999902,1873.2457369999902,1873.7293863999948,1873.745867599995,1876.2291671999992,1876.2293681999872,None,1,,,,,,,,,,,,,,,,,,,,,,,,,,nback45,001,2024-01-09_09h56.25.408,untitled,2023.2.3,60.01676868883973,2024-01-09 10h10.53.792646 -0500,
6,"[-0.3, 0]",None,,,,,0,2,2,2,,,,,1876.245860799987,,,,,,,,,,,,,,,,,,,,,,,,,,,,,,,,,,,,,,,,,,,,,,1876.2302031,1876.245860799987,1876.245860799987,1876.7292761999997,1876.7457173000003,1879.2292582999944,1879.2294440999976,None,1,,,,,,,,,,,,,,,,,,,,,,,,,,nback45,001,2024-01-09_09h56.25.408,untitled,2023.2.3,60.01676868883973,2024-01-09 10h10.53.792646 -0500,
6,"[-0.3, 0]",space,,,,,0,3,3,3,,,,,1879.2456434999913,,,,,,,,,,,,,,,,,,,,,,,,,,,,,,,,,,,,,,,,,,,,,,1879.23023809999,1879.2456434999913,1879.2456434999913,1879.7291553999967,1879.7457840999996,1882.2291553999967,1882.2293273999967,None,0,,,,,,,,,,,,,,,,,,,,,,,,,,nback45,001,2024-01-09_09h56.25.408,untitled,2023.2.3,60.01676868883973,2024-01-09 10h10.53.792646 -0500,
12,"[0.64, -0.4]",None,,,,,0,4,4,4,,,,,1882.245763599989,,,,,,,,,,,,,,,,,,,,,,,,,,,,,,,,,,,,,,,,,,,,,,1882.230026499994,1882.245763599989,1882.245763599989,1882.7290532999905,1882.7455752999958,1885.228996699996,1885.2291646999947,None,1,,,,,,,,,,,,,,,,,,,,,,,,,,nback45,001,2024-01-09_09h56.25.408,untitled,2023.2.3,60.01676868883973,2024-01-09 10h10.53.792646 -0500,
10,"[0, -0.2]",None,,,,,0,5,5,5,,,,,1885.2456797999912,,,,,,,,,,,,,,,,,,,,,,,,,,,,,,,,,,,,,,,,,,,,,,1885.229747999998,1885.2456797999912,1885.2456797999912,1885.729007499991,1885.7455835,1888.2290614999947,1888.229213300001,None,1,,,,,,,,,,,,,,,,,,,,,,,,,,nback45,001,2024-01-09_09h56.25.408,untitled,2023.2.3,60.01676868883973,2024-01-09 10h10.53.792646 -0500,
2,"[0.64, 0.4]",None,,,,,0,6,6,6,,,,,1888.2455591999897,,,,,,,,,,,,,,,,,,,,,,,,,,,,,,,,,,,,,,,,,,,,,,1888.2298190000001,1888.2455591999897,1888.2455591999897,1888.7290088000009,1888.7457385999878,1891.2290543999989,1891.2292394999968,None,1,,,,,,,,,,,,,,,,,,,,,,,,,,nback45,001,2024-01-09_09h56.25.408,untitled,2023.2.3,60.01676868883973,2024-01-09 10h10.53.792646 -0500,
9,"[0.2, -0.1]",None,,,,,0,7,7,7,,,,,1891.2455618999957,,,,,,,,,,,,,,,,,,,,,,,,,,,,,,,,,,,,,,,,,,,,,,1891.2299719000002,1891.2455618999957,1891.2455618999957,1891.729087899992,1891.7454614999879,1894.2289710999903,1894.2291632999986,None,1,,,,,,,,,,,,,,,,,,,,,,,,,,nback45,001,2024-01-09_09h56.25.408,untitled,2023.2.3,60.01676868883973,2024-01-09 10h10.53.792646 -0500,
9,"[0.2, -0.1]",space,,,,,0,8,8,8,,,,,1894.2455289999925,,,,,,,,,,,,,,,,,,,,,,,,,,,,,,,,,,,,,,,,,,,,,,1894.2298998999904,1894.2455289999925,1894.2455289999925,1894.7289132000005,1894.7454689999868,1897.228822399993,1897.2289984999952,None,0,,,,,,,,,,,,,,,,,,,,,,,,,,nback45,001,2024-01-09_09h56.25.408,untitled,2023.2.3,60.01676868883973,2024-01-09 10h10.53.792646 -0500,
6,"[-0.3, 0]",None,,,,,0,9,9,9,,,,,1897.2456138999987,,,,,,,,,,,,,,,,,,,,,,,,,,,,,,,,,,,,,,,,,,,,,,1897.2296960999956,1897.2456138999987,1897.2456138999987,1897.728961899993,1897.7455902999936,1900.2287501999963,1900.2289219999948,None,1,,,,,,,,,,,,,,,,,,,,,,,,,,nback45,001,2024-01-09_09h56.25.408,untitled,2023.2.3,60.01676868883973,2024-01-09 10h10.53.792646 -0500,
11,"[-0.64, -0.4]",None,,,,,0,10,10,10,,,,,1900.2454555999866,,,,,,,,,,,,,,,,,,,,,,,,,,,,,,,,,,,,,,,,,,,,,,1900.229729899991,1900.2454555999866,1900.2454555999866,1900.728658699998,1900.745539999989,1903.2286595999904,1903.228846099999,None,1,,,,,,,,,,,,,,,,,,,,,,,,,,nback45,001,2024-01-09_09h56.25.408,untitled,2023.2.3,60.01676868883973,2024-01-09 10h10.53.792646 -0500,
11,"[-0.64, -0.4]",space,,,,,0,11,11,11,,,,,1903.2455862999923,,,,,,,,,,,,,,,,,,,,,,,,,,,,,,,,,,,,,,,,,,,,,,1903.2295903999911,1903.2455862999923,1903.2455862999923,1903.7286941999919,1903.7453043999994,1906.2288112999959,1906.2289959999907,space,1,0.8513326999964193,None,,,,,,,,,,,,,,,,,,,,,,,,nback45,001,2024-01-09_09h56.25.408,untitled,2023.2.3,60.01676868883973,2024-01-09 10h10.53.792646 -0500,
4,"[-0.2, 0.1]",None,,,,,0,12,12,12,,,,,1906.2451797999965,,,,,,,,,,,,,,,,,,,,,,,,,,,,,,,,,,,,,,,,,,,,,,1906.2302849999978,1906.2451797999965,1906.2451797999965,1906.7285881999996,1906.7452835999866,1909.22866529999,1909.2288423999998,None,1,,,,,,,,,,,,,,,,,,,,,,,,,,nback45,001,2024-01-09_09h56.25.408,untitled,2023.2.3,60.01676868883973,2024-01-09 10h10.53.792646 -0500,
3,"[0, 0.2]",None,,,,,0,13,13,13,,,,,1909.2452401999908,,,,,,,,,,,,,,,,,,,,,,,,,,,,,,,,,,,,,,,,,,,,,,1909.229537799998,1909.2452401999908,1909.2452401999908,1909.728667999996,1909.745317199995,1912.2286603999964,1912.2288211999985,None,1,,,,,,,,,,,,,,,,,,,,,,,,,,nback45,001,2024-01-09_09h56.25.408,untitled,2023.2.3,60.01676868883973,2024-01-09 10h10.53.792646 -0500,
3,"[0, 0.2]",space,,,,,0,14,14,14,,,,,1912.2452727999917,,,,,,,,,,,,,,,,,,,,,,,,,,,,,,,,,,,,,,,,,,,,,,1912.2294469999906,1912.2452727999917,1912.2452727999917,1912.7286479999893,1912.7454206999973,1915.228611899991,1915.2288008999894,None,0,,,,,,,,,,,,,,,,,,,,,,,,,,nback45,001,2024-01-09_09h56.25.408,untitled,2023.2.3,60.01676868883973,2024-01-09 10h10.53.792646 -0500,
8,"[-0.2, -0.1]",None,,,,,0,15,15,15,,,,,1915.2452466999966,,,,,,,,,,,,,,,,,,,,,,,,,,,,,,,,,,,,,,,,,,,,,,1915.2295615999901,1915.2452466999966,1915.2452466999966,1915.728494199997,1915.7452067999984,1918.2284692999965,1918.2286450999964,None,1,,,,,,,,,,,,,,,,,,,,,,,,,,nback45,001,2024-01-09_09h56.25.408,untitled,2023.2.3,60.01676868883973,2024-01-09 10h10.53.792646 -0500,
1,"[-0.64, 0.4]",None,,,,,0,16,16,16,,,,,1918.2452329999942,,,,,,,,,,,,,,,,,,,,,,,,,,,,,,,,,,,,,,,,,,,,,,1918.2293401999923,1918.2452329999942,1918.2452329999942,1918.7284701999888,1918.7450781999942,1921.2285858999967,1921.2288100999867,None,1,,,,,,,,,,,,,,,,,,,,,,,,,,nback45,001,2024-01-09_09h56.25.408,untitled,2023.2.3,60.01676868883973,2024-01-09 10h10.53.792646 -0500,
2,"[0.64, 0.4]",None,,,,,0,17,17,17,,,,,1921.245018799993,,,,,,,,,,,,,,,,,,,,,,,,,,,,,,,,,,,,,,,,,,,,,,1921.229672299989,1921.245018799993,1921.245018799993,1921.7286778999987,1921.745044899988,1924.2284303999913,1924.228594699991,None,1,,,,,,,,,,,,,,,,,,,,,,,,,,nback45,001,2024-01-09_09h56.25.408,untitled,2023.2.3,60.01676868883973,2024-01-09 10h10.53.792646 -0500,
4,"[-0.2, 0.1]",None,,,,,0,18,18,18,,,,,1924.244979199997,,,,,,,,,,,,,,,,,,,,,,,,,,,,,,,,,,,,,,,,,,,,,,1924.2292815999972,1924.244979199997,1924.244979199997,1924.7284337999881,1924.7450919999974,1927.228316599998,1927.228478799996,None,1,,,,,,,,,,,,,,,,,,,,,,,,,,nback45,001,2024-01-09_09h56.25.408,untitled,2023.2.3,60.01676868883973,2024-01-09 10h10.53.792646 -0500,
4,"[-0.2, 0.1]",space,,,,,0,19,19,19,,,,,1927.2448446999915,,,,,,,,,,,,,,,,,,,,,,,,,,,,,,,,,,,,,,,,,,,,,,1927.2291314999893,1927.2448446999915,1927.2448446999915,1927.728434699995,1927.7449751999957,1930.2283617999929,1930.2285250999994,None,0,,,,,,,,,,,,,,,,,,,,,,,,,,nback45,001,2024-01-09_09h56.25.408,untitled,2023.2.3,60.01676868883973,2024-01-09 10h10.53.792646 -0500,
8,"[-0.2, -0.1]",None,,,,,0,20,20,20,,,,,1930.245003899996,,,,,,,,,,,,,,,,,,,,,,,,,,,,,,,,,,,,,,,,,,,,,,1930.2292108999973,1930.245003899996,1930.245003899996,1930.7283736999962,1930.7450922999997,1933.2282116999995,1933.228365899995,None,1,,,,,,,,,,,,,,,,,,,,,,,,,,nback45,001,2024-01-09_09h56.25.408,untitled,2023.2.3,60.01676868883973,2024-01-09 10h10.53.792646 -0500,
5,"[0.2, 0.1]",None,,,,,0,21,21,21,,,,,1933.244890099988,,,,,,,,,,,,,,,,,,,,,,,,,,,,,,,,,,,,,,,,,,,,,,1933.2289673999912,1933.244890099988,1933.244890099988,1933.7284305999929,1933.7449863999936,1936.2281903999974,1936.228371499994,None,1,,,,,,,,,,,,,,,,,,,,,,,,,,nback45,001,2024-01-09_09h56.25.408,untitled,2023.2.3,60.01676868883973,2024-01-09 10h10.53.792646 -0500,
5,"[0.2, 0.1]",space,,,,,0,22,22,22,,,,,1936.244701699994,,,,,,,,,,,,,,,,,,,,,,,,,,,,,,,,,,,,,,,,,,,,,,1936.2291056999966,1936.244701699994,1936.244701699994,1936.7282507999917,1936.7449583999987,1939.2282637999888,1939.2284778999892,None,0,,,,,,,,,,,,,,,,,,,,,,,,,,nback45,001,2024-01-09_09h56.25.408,untitled,2023.2.3,60.01676868883973,2024-01-09 10h10.53.792646 -0500,
1,"[-0.64, 0.4]",None,,,,,0,23,23,23,,,,,1939.2449597999948,,,,,,,,,,,,,,,,,,,,,,,,,,,,,,,,,,,,,,,,,,,,,,1939.2293611999921,1939.2449597999948,1939.2449597999948,1939.7282044999884,1939.7449389999965,1942.2281950999895,1942.2283915000007,None,1,,,,,,,,,,,,,,,,,,,,,,,,,,nback45,001,2024-01-09_09h56.25.408,untitled,2023.2.3,60.01676868883973,2024-01-09 10h10.53.792646 -0500,
3,"[0, 0.2]",None,,,,,0,24,24,24,,,,,1942.2448924999917,,,,,,,,,,,,,,,,,,,,,,,,,,,,,,,,,,,,,,,,,,,,,,1942.2291936999973,1942.2448924999917,1942.2448924999917,1942.728119099993,1942.7447916999954,1945.2280838000006,1945.2282941999874,None,1,,,,,,,,,,,,,,,,,,,,,,,,,,nback45,001,2024-01-09_09h56.25.408,untitled,2023.2.3,60.01676868883973,2024-01-09 10h10.53.792646 -0500,
6,"[-0.3, 0]",None,,,,,0,25,25,25,,,,,1945.2447850999888,,,,,,,,,,,,,,,,,,,,,,,,,,,,,,,,,,,,,,,,,,,,,,1945.229160899995,1945.2447850999888,1945.2447850999888,1945.728138999999,1945.744869199989,1948.2280270999909,1948.2282073999959,None,1,,,,,,,,,,,,,,,,,,,,,,,,,,nback45,001,2024-01-09_09h56.25.408,untitled,2023.2.3,60.01676868883973,2024-01-09 10h10.53.792646 -0500,
1,"[-0.64, 0.4]",None,,,,,0,26,26,26,,,,,1948.2444811999885,,,,,,,,,,,,,,,,,,,,,,,,,,,,,,,,,,,,,,,,,,,,,,1948.2289667000005,1948.2444811999885,1948.2444811999885,1948.7280729999911,1948.7445485999924,1951.2279988999944,1951.2281787999964,None,1,,,,,,,,,,,,,,,,,,,,,,,,,,nback45,001,2024-01-09_09h56.25.408,untitled,2023.2.3,60.01676868883973,2024-01-09 10h10.53.792646 -0500,
1,"[-0.64, 0.4]",space,,,,,0,27,27,27,,,,,1951.2448544999934,,,,,,,,,,,,,,,,,,,,,,,,,,,,,,,,,,,,,,,,,,,,,,1951.2288991999958,1951.2448544999934,1951.2448544999934,1951.72791039999,1951.744703999997,1954.2279482999875,1954.2282707999984,None,0,,,,,,,,,,,,,,,,,,,,,,,,,,nback45,001,2024-01-09_09h56.25.408,untitled,2023.2.3,60.01676868883973,2024-01-09 10h10.53.792646 -0500,
1,"[-0.64, 0.4]",space,,,,,0,28,28,28,,,,,1954.244672899993,,,,,,,,,,,,,,,,,,,,,,,,,,,,,,,,,,,,,,,,,,,,,,1954.2289071999985,1954.244672899993,1954.244672899993,1954.7281011999876,1954.744366599989,1957.228053599989,1957.2282594999997,None,0,,,,,,,,,,,,,,,,,,,,,,,,,,nback45,001,2024-01-09_09h56.25.408,untitled,2023.2.3,60.01676868883973,2024-01-09 10h10.53.792646 -0500,
3,"[0, 0.2]",None,,,,,0,29,29,29,,,,,1957.2445889999944,,,,,,,,,,,,,,,,,,,,,,,,,,,,,,,,,,,,,,,,,,,,,,1957.229085999992,1957.2445889999944,1957.2445889999944,1957.727970699998,1957.744525599992,1960.2279444999876,1960.2281293999986,None,1,,,,,,,,,,,,,,,,,,,,,,,,,,nback45,001,2024-01-09_09h56.25.408,untitled,2023.2.3,60.01676868883973,2024-01-09 10h10.53.792646 -0500,
12,"[0.64, -0.4]",None,,,,,0,30,30,30,,,,,1960.2444159999868,,,,,,,,,,,,,,,,,,,,,,,,,,,,,,,,,,,,,,,,,,,,,,1960.2288187999948,1960.2444159999868,1960.2444159999868,1960.7278492999903,1960.7444584999903,1963.2278530999902,1963.2280528999981,None,1,,,,,,,,,,,,,,,,,,,,,,,,,,nback45,001,2024-01-09_09h56.25.408,untitled,2023.2.3,60.01676868883973,2024-01-09 10h10.53.792646 -0500,
12,"[0.64, -0.4]",space,,,,,0,31,31,31,,,,,1963.244535699996,,,,,,,,,,,,,,,,,,,,,,,,,,,,,,,,,,,,,,,,,,,,,,1963.2288829999889,1963.244535699996,1963.244535699996,1963.727948899992,1963.7444812999893,1966.2277450999973,1966.2279388999887,None,0,,,,,,,,,,,,,,,,,,,,,,,,,,nback45,001,2024-01-09_09h56.25.408,untitled,2023.2.3,60.01676868883973,2024-01-09 10h10.53.792646 -0500,
2,"[0.64, 0.4]",None,,,,,0,32,32,32,,,,,1966.244251799988,,,,,,,,,,,,,,,,,,,,,,,,,,,,,,,,,,,,,,,,,,,,,,1966.2285971999954,1966.244251799988,1966.244251799988,1966.7276264999964,1966.7442879999871,1969.227706199992,1969.227868099988,None,1,,,,,,,,,,,,,,,,,,,,,,,,,,nback45,001,2024-01-09_09h56.25.408,untitled,2023.2.3,60.01676868883973,2024-01-09 10h10.53.792646 -0500,
1,"[-0.64, 0.4]",None,,,,,0,33,33,33,,,,,1969.2443585,,,,,,,,,,,,,,,,,,,,,,,,,,,,,,,,,,,,,,,,,,,,,,1969.2285134999984,1969.2443585,1969.2443585,1969.7277283999865,1969.7442300999974,1972.2276450999925,1972.2278341999918,None,1,,,,,,,,,,,,,,,,,,,,,,,,,,nback45,001,2024-01-09_09h56.25.408,untitled,2023.2.3,60.01676868883973,2024-01-09 10h10.53.792646 -0500,
7,"[0.3, 0]",None,,,,,0,34,34,34,,,,,1972.2442917000008,,,,,,,,,,,,,,,,,,,,,,,,,,,,,,,,,,,,,,,,,,,,,,1972.2285924999887,1972.2442917000008,1972.2442917000008,1972.7275617999985,1972.7442936000007,1975.2277022999915,1975.2278922999976,None,1,,,,,,,,,,,,,,,,,,,,,,,,,,nback45,001,2024-01-09_09h56.25.408,untitled,2023.2.3,60.01676868883973,2024-01-09 10h10.53.792646 -0500,
7,"[0.3, 0]",space,,,,,0,35,35,35,,,,,1975.2442493999988,,,,,,,,,,,,,,,,,,,,,,,,,,,,,,,,,,,,,,,,,,,,,,1975.228641499998,1975.2442493999988,1975.2442493999988,1975.7276184999937,1975.7444270999986,1978.2274846999935,1978.227648999993,space,1,1.9177147000009427,None,,,,,,,,,,,,,,,,,,,,,,,,nback45,001,2024-01-09_09h56.25.408,untitled,2023.2.3,60.01676868883973,2024-01-09 10h10.53.792646 -0500,
11,"[-0.64, -0.4]",None,,,,,0,36,36,36,,,,,1978.2441732000007,,,,,,,,,,,,,,,,,,,,,,,,,,,,,,,,,,,,,,,,,,,,,,1978.2284352999995,1978.2441732000007,1978.2441732000007,1978.7274741,1978.7440033999883,1981.227591399991,1981.2277941999928,None,1,,,,,,,,,,,,,,,,,,,,,,,,,,nback45,001,2024-01-09_09h56.25.408,untitled,2023.2.3,60.01676868883973,2024-01-09 10h10.53.792646 -0500,
2,"[0.64, 0.4]",None,,,,,0,37,37,37,,,,,1981.2441923000006,,,,,,,,,,,,,,,,,,,,,,,,,,,,,,,,,,,,,,,,,,,,,,1981.2285940000002,1981.2441923000006,1981.2441923000006,1981.727573600001,1981.7440515999915,1984.2275492999906,1984.227729499995,None,1,,,,,,,,,,,,,,,,,,,,,,,,,,nback45,001,2024-01-09_09h56.25.408,untitled,2023.2.3,60.01676868883973,2024-01-09 10h10.53.792646 -0500,
6,"[-0.3, 0]",None,,,,,0,38,38,38,,,,,1984.2441984999896,,,,,,,,,,,,,,,,,,,,,,,,,,,,,,,,,,,,,,,,,,,,,,1984.2284336999874,1984.2441984999896,1984.2441984999896,1984.7275223999895,1984.7441738999914,1987.22745939999,1987.2276385999867,None,1,,,,,,,,,,,,,,,,,,,,,,,,,,nback45,001,2024-01-09_09h56.25.408,untitled,2023.2.3,60.01676868883973,2024-01-09 10h10.53.792646 -0500,
10,"[0, -0.2]",None,,,,,0,39,39,39,,,,,1987.2440095999918,,,,,,,,,,,,,,,,,,,,,,,,,,,,,,,,,,,,,,,,,,,,,,1987.2283251999906,1987.2440095999918,1987.2440095999918,1987.7273927999922,1987.7440736999997,1990.227313899988,1990.227476,None,1,,,,,,,,,,,,,,,,,,,,,,,,,,nback45,001,2024-01-09_09h56.25.408,untitled,2023.2.3,60.01676868883973,2024-01-09 10h10.53.792646 -0500,
,,,,,,,,,,,,,,,,,,,,,,,,,,,,,,,,,,,,,,,,,,,,,,,,,,,,,,,,,,,,,,,,,,,,,,,,1990.227941899997,1990.2441136999987,1990.2441136999987,2021.5449091999908,space,31.297929499996826,None,,,,,,,,,,,,,,,,,nback45,001,2024-01-09_09h56.25.408,untitled,2023.2.3,60.01676868883973,2024-01-09 10h10.53.792646 -0500,
,"[0.2, 0.1]",None,,,,,,,,,0,0,0,0,2022.5603425000008,,,,,,,,,,,,,,,,,,,,,,,,2021.5449483999982,2021.5601757999975,2022.5603425000008,2022.5441738999943,,,,,,,,,,,,,,,,,,,,,,,,,,,,,,,,,,,,,2022.5585672999878,2022.5603425000008,2022.5603425000008,2023.0601651999896,2023.0601651999896,2025.5602680999873,2025.5602680999873,2025.5445355999982,None,1,,,,,,,nback45,001,2024-01-09_09h56.25.408,untitled,2023.2.3,60.01676868883973,2024-01-09 10h10.53.792646 -0500,
,"[0.64, 0.4]",None,,,,,,,,,0,1,1,1,2025.5602680999873,,,,,,,,,,,,,,,,,,,,,,,,,,,,,,,,,,,,,,,,,,,,,,,,,,,,,,,,,,,,,,,,2025.5455856999906,2025.5602680999873,2025.5602680999873,2026.0602114999929,2026.0602114999929,2028.5600806000002,2028.5600806000002,2028.5441179999907,None,1,,,,,,,nback45,001,2024-01-09_09h56.25.408,untitled,2023.2.3,60.01676868883973,2024-01-09 10h10.53.792646 -0500,
,"[-0.3, 0]",None,,,,,,,,,0,2,2,2,2028.5600806000002,,,,,,,,,,,,,,,,,,,,,,,,,,,,,,,,,,,,,,,,,,,,,,,,,,,,,,,,,,,,,,,,2028.5446978999971,2028.5600806000002,2028.5600806000002,2029.060080899988,2029.060080899988,2031.5600345999992,2031.5600345999992,2031.5439590999886,None,1,,,,,,,nback45,001,2024-01-09_09h56.25.408,untitled,2023.2.3,60.01676868883973,2024-01-09 10h10.53.792646 -0500,
,"[0.2, -0.1]",None,,,,,,,,,0,3,3,3,2031.5600345999992,,,,,,,,,,,,,,,,,,,,,,,,,,,,,,,,,,,,,,,,,,,,,,,,,,,,,,,,,,,,,,,,2031.5445728999912,2031.5600345999992,2031.5600345999992,2032.0601361000008,2032.0601361000008,2034.5599259999872,2034.5599259999872,2034.5440653999976,None,1,,,,,,,nback45,001,2024-01-09_09h56.25.408,untitled,2023.2.3,60.01676868883973,2024-01-09 10h10.53.792646 -0500,
,"[0, 0.2]",None,,,,,,,,,0,4,4,4,2034.5599259999872,,,,,,,,,,,,,,,,,,,,,,,,,,,,,,,,,,,,,,,,,,,,,,,,,,,,,,,,,,,,,,,,2034.5446532999922,2034.5599259999872,2034.5599259999872,2035.0599584999873,2035.0599584999873,2037.5598535999889,2037.5598535999889,2037.5440342999937,None,1,,,,,,,nback45,001,2024-01-09_09h56.25.408,untitled,2023.2.3,60.01676868883973,2024-01-09 10h10.53.792646 -0500,
,"[0.2, -0.1]",space,,,,,,,,,0,5,5,5,2037.5598535999889,,,,,,,,,,,,,,,,,,,,,,,,,,,,,,,,,,,,,,,,,,,,,,,,,,,,,,,,,,,,,,,,2037.5447155000002,2037.5598535999889,2037.5598535999889,2038.059843199997,2038.059843199997,2040.5599201000005,2040.5599201000005,2040.54377389999,space,1,0.4155343000020366,None,,,,,nback45,001,2024-01-09_09h56.25.408,untitled,2023.2.3,60.01676868883973,2024-01-09 10h10.53.792646 -0500,
,"[0, -0.2]",None,,,,,,,,,0,6,6,6,2040.5599201000005,,,,,,,,,,,,,,,,,,,,,,,,,,,,,,,,,,,,,,,,,,,,,,,,,,,,,,,,,,,,,,,,2040.5446125999879,2040.5599201000005,2040.5599201000005,2041.0599766999949,2041.0599766999949,2043.5597945999907,2043.5597945999907,2043.5438219999924,None,1,,,,,,,nback45,001,2024-01-09_09h56.25.408,untitled,2023.2.3,60.01676868883973,2024-01-09 10h10.53.792646 -0500,
,"[0.64, -0.4]",None,,,,,,,,,0,7,7,7,2043.5597945999907,,,,,,,,,,,,,,,,,,,,,,,,,,,,,,,,,,,,,,,,,,,,,,,,,,,,,,,,,,,,,,,,2043.5445038999896,2043.5597945999907,2043.5597945999907,2044.0601400999876,2044.0601400999876,2046.559614999991,2046.559614999991,2046.5433712999948,None,1,,,,,,,nback45,001,2024-01-09_09h56.25.408,untitled,2023.2.3,60.01676868883973,2024-01-09 10h10.53.792646 -0500,
,"[0.3, 0]",None,,,,,,,,,0,8,8,8,2046.559614999991,,,,,,,,,,,,,,,,,,,,,,,,,,,,,,,,,,,,,,,,,,,,,,,,,,,,,,,,,,,,,,,,2046.543692799998,2046.559614999991,2046.559614999991,2047.0599546999874,2047.0599546999874,2049.559729399989,2049.559729399989,2049.543682299991,None,1,,,,,,,nback45,001,2024-01-09_09h56.25.408,untitled,2023.2.3,60.01676868883973,2024-01-09 10h10.53.792646 -0500,
,"[0.64, -0.4]",space,,,,,,,,,0,9,9,9,2049.559729399989,,,,,,,,,,,,,,,,,,,,,,,,,,,,,,,,,,,,,,,,,,,,,,,,,,,,,,,,,,,,,,,,2049.544236899994,2049.559729399989,2049.559729399989,2050.0597132999974,2050.0597132999974,2052.5597520999872,2052.5597520999872,2052.5438070999953,space,1,0.3980592000007164,None,,,,,nback45,001,2024-01-09_09h56.25.408,untitled,2023.2.3,60.01676868883973,2024-01-09 10h10.53.792646 -0500,
,"[-0.64, 0.4]",None,,,,,,,,,0,10,10,10,2052.5597520999872,,,,,,,,,,,,,,,,,,,,,,,,,,,,,,,,,,,,,,,,,,,,,,,,,,,,,,,,,,,,,,,,2052.544541700001,2052.5597520999872,2052.5597520999872,2053.0599071999895,2053.0599071999895,2055.559819999995,2055.559819999995,2055.54382549999,None,1,,,,,,,nback45,001,2024-01-09_09h56.25.408,untitled,2023.2.3,60.01676868883973,2024-01-09 10h10.53.792646 -0500,
,"[0.2, 0.1]",None,,,,,,,,,0,11,11,11,2055.559819999995,,,,,,,,,,,,,,,,,,,,,,,,,,,,,,,,,,,,,,,,,,,,,,,,,,,,,,,,,,,,,,,,2055.544499399999,2055.559819999995,2055.559819999995,2056.059773099987,2056.059773099987,2058.5596834999888,2058.5596834999888,2058.5436873,None,1,,,,,,,nback45,001,2024-01-09_09h56.25.408,untitled,2023.2.3,60.01676868883973,2024-01-09 10h10.53.792646 -0500,
,"[0.3, 0]",None,,,,,,,,,0,12,12,12,2058.5596834999888,,,,,,,,,,,,,,,,,,,,,,,,,,,,,,,,,,,,,,,,,,,,,,,,,,,,,,,,,,,,,,,,2058.54431859999,2058.5596834999888,2058.5596834999888,2059.059666699992,2059.059666699992,2061.5597326999996,2061.5597326999996,2061.543946699996,None,1,,,,,,,nback45,001,2024-01-09_09h56.25.408,untitled,2023.2.3,60.01676868883973,2024-01-09 10h10.53.792646 -0500,
,"[0.2, 0.1]",space,,,,,,,,,0,13,13,13,2061.5597326999996,,,,,,,,,,,,,,,,,,,,,,,,,,,,,,,,,,,,,,,,,,,,,,,,,,,,,,,,,,,,,,,,2061.5447349999886,2061.5597326999996,2061.5597326999996,2062.059670399991,2062.059670399991,2064.559608999989,2064.559608999989,2064.5436746999912,space,1,0.4475687999947695,None,,,,,nback45,001,2024-01-09_09h56.25.408,untitled,2023.2.3,60.01676868883973,2024-01-09 10h10.53.792646 -0500,
,"[-0.3, 0]",None,,,,,,,,,0,14,14,14,2064.559608999989,,,,,,,,,,,,,,,,,,,,,,,,,,,,,,,,,,,,,,,,,,,,,,,,,,,,,,,,,,,,,,,,2064.544464099992,2064.559608999989,2064.559608999989,2065.0596481999964,2065.0596481999964,2067.5594555999996,2067.5594555999996,2067.5437971999927,None,1,,,,,,,nback45,001,2024-01-09_09h56.25.408,untitled,2023.2.3,60.01676868883973,2024-01-09 10h10.53.792646 -0500,
,"[0, 0.2]",None,,,,,,,,,0,15,15,15,2067.5594555999996,,,,,,,,,,,,,,,,,,,,,,,,,,,,,,,,,,,,,,,,,,,,,,,,,,,,,,,,,,,,,,,,2067.5445550999866,2067.5594555999996,2067.5594555999996,2068.0595742999867,2068.0595742999867,2070.5595746999898,2070.5595746999898,2070.54341269999,None,1,,,,,,,nback45,001,2024-01-09_09h56.25.408,untitled,2023.2.3,60.01676868883973,2024-01-09 10h10.53.792646 -0500,
,"[-0.3, 0]",space,,,,,,,,,0,16,16,16,2070.5595746999898,,,,,,,,,,,,,,,,,,,,,,,,,,,,,,,,,,,,,,,,,,,,,,,,,,,,,,,,,,,,,,,,2070.5441420999996,2070.5595746999898,2070.5595746999898,2071.059427299988,2071.059427299988,2073.55944859999,2073.55944859999,2073.5436057999905,space,1,0.3842772999923909,None,,,,,nback45,001,2024-01-09_09h56.25.408,untitled,2023.2.3,60.01676868883973,2024-01-09 10h10.53.792646 -0500,
,"[-0.64, -0.4]",None,,,,,,,,,0,17,17,17,2073.55944859999,,,,,,,,,,,,,,,,,,,,,,,,,,,,,,,,,,,,,,,,,,,,,,,,,,,,,,,,,,,,,,,,2073.544452999995,2073.55944859999,2073.55944859999,2074.059473299989,2074.059473299989,2076.559322999994,2076.559322999994,2076.5432195999892,None,1,,,,,,,nback45,001,2024-01-09_09h56.25.408,untitled,2023.2.3,60.01676868883973,2024-01-09 10h10.53.792646 -0500,
,"[-0.2, -0.1]",None,,,,,,,,,0,18,18,18,2076.559322999994,,,,,,,,,,,,,,,,,,,,,,,,,,,,,,,,,,,,,,,,,,,,,,,,,,,,,,,,,,,,,,,,2076.5437995999964,2076.559322999994,2076.559322999994,2077.059460999997,2077.059460999997,2079.559253799991,2079.559253799991,2079.5432769999898,None,1,,,,,,,nback45,001,2024-01-09_09h56.25.408,untitled,2023.2.3,60.01676868883973,2024-01-09 10h10.53.792646 -0500,
,"[0.2, -0.1]",None,,,,,,,,,0,19,19,19,2079.559253799991,,,,,,,,,,,,,,,,,,,,,,,,,,,,,,,,,,,,,,,,,,,,,,,,,,,,,,,,,,,,,,,,2079.5438279999944,2079.559253799991,2079.559253799991,2080.059237099995,2080.059237099995,2082.5595315999963,2082.5595315999963,2082.5436345999915,None,1,,,,,,,nback45,001,2024-01-09_09h56.25.408,untitled,2023.2.3,60.01676868883973,2024-01-09 10h10.53.792646 -0500,
,"[0.2, -0.1]",None,,,,,,,,,0,20,20,20,2082.5595315999963,,,,,,,,,,,,,,,,,,,,,,,,,,,,,,,,,,,,,,,,,,,,,,,,,,,,,,,,,,,,,,,,2082.5444174999866,2082.5595315999963,2082.5595315999963,2083.059415699987,2083.059415699987,2085.5592038999894,2085.5592038999894,2085.543280999991,None,1,,,,,,,nback45,001,2024-01-09_09h56.25.408,untitled,2023.2.3,60.01676868883973,2024-01-09 10h10.53.792646 -0500,
,"[-0.64, 0.4]",None,,,,,,,,,0,21,21,21,2085.5592038999894,,,,,,,,,,,,,,,,,,,,,,,,,,,,,,,,,,,,,,,,,,,,,,,,,,,,,,,,,,,,,,,,2085.543956900001,2085.5592038999894,2085.5592038999894,2086.0592916999885,2086.0592916999885,2088.55918869999,2088.55918869999,2088.543363799996,None,1,,,,,,,nback45,001,2024-01-09_09h56.25.408,untitled,2023.2.3,60.01676868883973,2024-01-09 10h10.53.792646 -0500,
,"[0, 0.2]",None,,,,,,,,,0,22,22,22,2088.55918869999,,,,,,,,,,,,,,,,,,,,,,,,,,,,,,,,,,,,,,,,,,,,,,,,,,,,,,,,,,,,,,,,2088.544140999991,2088.55918869999,2088.55918869999,2089.059146799991,2089.059146799991,2091.5589777999994,2091.5589777999994,2091.543135899992,None,1,,,,,,,nback45,001,2024-01-09_09h56.25.408,untitled,2023.2.3,60.01676868883973,2024-01-09 10h10.53.792646 -0500,
,"[0.64, -0.4]",None,,,,,,,,,0,23,23,23,2091.5589777999994,,,,,,,,,,,,,,,,,,,,,,,,,,,,,,,,,,,,,,,,,,,,,,,,,,,,,,,,,,,,,,,,2091.543792599987,2091.5589777999994,2091.5589777999994,2092.05913899999,2092.05913899999,2094.5591334999917,2094.5591334999917,2094.5429641999945,None,1,,,,,,,nback45,001,2024-01-09_09h56.25.408,untitled,2023.2.3,60.01676868883973,2024-01-09 10h10.53.792646 -0500,
,"[0, 0.2]",space,,,,,,,,,0,24,24,24,2094.5591334999917,,,,,,,,,,,,,,,,,,,,,,,,,,,,,,,,,,,,,,,,,,,,,,,,,,,,,,,,,,,,,,,,2094.5435739999957,2094.5591334999917,2094.5591334999917,2095.0591810999904,2095.0591810999904,2097.558982699993,2097.558982699993,2097.543162999995,space,1,0.3807846999989124,None,,,,,nback45,001,2024-01-09_09h56.25.408,untitled,2023.2.3,60.01676868883973,2024-01-09 10h10.53.792646 -0500,
,"[-0.2, 0.1]",None,,,,,,,,,0,25,25,25,2097.558982699993,,,,,,,,,,,,,,,,,,,,,,,,,,,,,,,,,,,,,,,,,,,,,,,,,,,,,,,,,,,,,,,,2097.543976999994,2097.558982699993,2097.558982699993,2098.0590716000006,2098.0590716000006,2100.558870699999,2100.558870699999,2100.5430175999936,None,1,,,,,,,nback45,001,2024-01-09_09h56.25.408,untitled,2023.2.3,60.01676868883973,2024-01-09 10h10.53.792646 -0500,
,"[0.3, 0]",None,,,,,,,,,0,26,26,26,2100.558870699999,,,,,,,,,,,,,,,,,,,,,,,,,,,,,,,,,,,,,,,,,,,,,,,,,,,,,,,,,,,,,,,,2100.5435774999933,2100.558870699999,2100.558870699999,2101.0590257000003,2101.0590257000003,2103.5587926000007,2103.5587926000007,2103.5426703999983,None,1,,,,,,,nback45,001,2024-01-09_09h56.25.408,untitled,2023.2.3,60.01676868883973,2024-01-09 10h10.53.792646 -0500,
,"[-0.2, 0.1]",space,,,,,,,,,0,27,27,27,2103.5587926000007,,,,,,,,,,,,,,,,,,,,,,,,,,,,,,,,,,,,,,,,,,,,,,,,,,,,,,,,,,,,,,,,2103.5431194999983,2103.5587926000007,2103.5587926000007,2104.058935299996,2104.058935299996,2106.558822299994,2106.558822299994,2106.5425806999992,space,1,0.38421559998823795,None,,,,,nback45,001,2024-01-09_09h56.25.408,untitled,2023.2.3,60.01676868883973,2024-01-09 10h10.53.792646 -0500,
,"[-0.2, 0.1]",None,,,,,,,,,0,28,28,28,2106.558822299994,,,,,,,,,,,,,,,,,,,,,,,,,,,,,,,,,,,,,,,,,,,,,,,,,,,,,,,,,,,,,,,,2106.5429753999924,2106.558822299994,2106.558822299994,2107.0589051999996,2107.0589051999996,2109.558850299989,2109.558850299989,2109.543157799999,space,0,1.8723699999973178,None,,,,,nback45,001,2024-01-09_09h56.25.408,untitled,2023.2.3,60.01676868883973,2024-01-09 10h10.53.792646 -0500,
,"[0.2, 0.1]",None,,,,,,,,,0,29,29,29,2109.558850299989,,,,,,,,,,,,,,,,,,,,,,,,,,,,,,,,,,,,,,,,,,,,,,,,,,,,,,,,,,,,,,,,2109.544090899988,2109.558850299989,2109.558850299989,2110.0589438999887,2110.0589438999887,2112.558980499991,2112.558980499991,2112.5428440999967,None,1,,,,,,,nback45,001,2024-01-09_09h56.25.408,untitled,2023.2.3,60.01676868883973,2024-01-09 10h10.53.792646 -0500,
,"[-0.64, -0.4]",None,,,,,,,,,0,30,30,30,2112.558980499991,,,,,,,,,,,,,,,,,,,,,,,,,,,,,,,,,,,,,,,,,,,,,,,,,,,,,,,,,,,,,,,,2112.543523100001,2112.558980499991,2112.558980499991,2113.0588610999985,2113.0588610999985,2115.5588082999893,2115.5588082999893,2115.542840199996,None,1,,,,,,,nback45,001,2024-01-09_09h56.25.408,untitled,2023.2.3,60.01676868883973,2024-01-09 10h10.53.792646 -0500,
,"[0, -0.2]",None,,,,,,,,,0,31,31,31,2115.5588082999893,,,,,,,,,,,,,,,,,,,,,,,,,,,,,,,,,,,,,,,,,,,,,,,,,,,,,,,,,,,,,,,,2115.543530799987,2115.5588082999893,2115.5588082999893,2116.058705299991,2116.058705299991,2118.5587085000006,2118.5587085000006,2118.5431697999884,None,1,,,,,,,nback45,001,2024-01-09_09h56.25.408,untitled,2023.2.3,60.01676868883973,2024-01-09 10h10.53.792646 -0500,
,"[-0.64, -0.4]",space,,,,,,,,,0,32,32,32,2118.5587085000006,,,,,,,,,,,,,,,,,,,,,,,,,,,,,,,,,,,,,,,,,,,,,,,,,,,,,,,,,,,,,,,,2118.543958299997,2118.5587085000006,2118.5587085000006,2119.0585962999903,2119.0585962999903,2121.5586681999994,2121.5586681999994,2121.5426527999953,space,1,0.4207190000015544,None,,,,,nback45,001,2024-01-09_09h56.25.408,untitled,2023.2.3,60.01676868883973,2024-01-09 10h10.53.792646 -0500,
,"[0.64, 0.4]",None,,,,,,,,,0,33,33,33,2121.5586681999994,,,,,,,,,,,,,,,,,,,,,,,,,,,,,,,,,,,,,,,,,,,,,,,,,,,,,,,,,,,,,,,,2121.543432999999,2121.5586681999994,2121.5586681999994,2122.058631599997,2122.058631599997,2124.5586871999985,2124.5586871999985,2124.542871599988,None,1,,,,,,,nback45,001,2024-01-09_09h56.25.408,untitled,2023.2.3,60.01676868883973,2024-01-09 10h10.53.792646 -0500,
,"[-0.3, 0]",None,,,,,,,,,0,34,34,34,2124.5586871999985,,,,,,,,,,,,,,,,,,,,,,,,,,,,,,,,,,,,,,,,,,,,,,,,,,,,,,,,,,,,,,,,2124.5436116999917,2124.5586871999985,2124.5586871999985,2125.058807499998,2125.058807499998,2127.5587806999974,2127.5587806999974,2127.5428386999993,None,1,,,,,,,nback45,001,2024-01-09_09h56.25.408,untitled,2023.2.3,60.01676868883973,2024-01-09 10h10.53.792646 -0500,
,"[0.3, 0]",None,,,,,,,,,0,35,35,35,2127.5587806999974,,,,,,,,,,,,,,,,,,,,,,,,,,,,,,,,,,,,,,,,,,,,,,,,,,,,,,,,,,,,,,,,2127.5436829999962,2127.5587806999974,2127.5587806999974,2128.0587963,2128.0587963,2130.558461599998,2130.558461599998,2130.5427800999896,None,1,,,,,,,nback45,001,2024-01-09_09h56.25.408,untitled,2023.2.3,60.01676868883973,2024-01-09 10h10.53.792646 -0500,
,"[-0.3, 0]",space,,,,,,,,,0,36,36,36,2130.558461599998,,,,,,,,,,,,,,,,,,,,,,,,,,,,,,,,,,,,,,,,,,,,,,,,,,,,,,,,,,,,,,,,2130.543505099995,2130.558461599998,2130.558461599998,2131.058541499995,2131.058541499995,2133.5584186999913,2133.5584186999913,2133.5424282999884,space,1,0.38567439999314956,None,,,,,nback45,001,2024-01-09_09h56.25.408,untitled,2023.2.3,60.01676868883973,2024-01-09 10h10.53.792646 -0500,
,"[0, -0.2]",None,,,,,,,,,0,37,37,37,2133.5584186999913,,,,,,,,,,,,,,,,,,,,,,,,,,,,,,,,,,,,,,,,,,,,,,,,,,,,,,,,,,,,,,,,2133.543134899999,2133.5584186999913,2133.5584186999913,2134.058445699993,2134.058445699993,2136.5585992999986,2136.5585992999986,2136.542717199991,None,1,,,,,,,nback45,001,2024-01-09_09h56.25.408,untitled,2023.2.3,60.01676868883973,2024-01-09 10h10.53.792646 -0500,
,"[0.3, 0]",None,,,,,,,,,0,38,38,38,2136.5585992999986,,,,,,,,,,,,,,,,,,,,,,,,,,,,,,,,,,,,,,,,,,,,,,,,,,,,,,,,,,,,,,,,2136.543622199999,2136.5585992999986,2136.5585992999986,2137.0583700999996,2137.0583700999996,2139.5584175999975,2139.5584175999975,2139.5425949999917,None,1,,,,,,,nback45,001,2024-01-09_09h56.25.408,untitled,2023.2.3,60.01676868883973,2024-01-09 10h10.53.792646 -0500,
,"[0.2, 0.1]",None,,,,,,,,,0,39,39,39,2139.5584175999975,,,,,,,,,,,,,,,,,,,,,,,,,,,,,,,,,,,,,,,,,,,,,,,,,,,,,,,,,,,,,,,,2139.543221899992,2139.5584175999975,2139.5584175999975,2140.0583352999965,2140.0583352999965,2142.558274199997,2142.558274199997,2142.542411599992,None,1,,,,,,,nback45,001,2024-01-09_09h56.25.408,untitled,2023.2.3,60.01676868883973,2024-01-09 10h10.53.792646 -0500,
,,,,,,,,,,,,,,,,,,,,,,,,,,,,,,,,,,,,,,,,,,,,,,,,,,,,,,,,,,,,,,,,,,,,,,,,,,,,,,,,,,,,,,,,,,,2142.5428643999912,2142.558274199997,2145.558186299997,2145.54277439999,,,,,,,,
