square,location,corrAns,trials_0.thisRepN,trials_0.thisTrialN,trials_0.thisN,trials_0.thisIndex,trials_1.thisRepN,trials_1.thisTrialN,trials_1.thisN,trials_1.thisIndex,trials_2.thisRepN,trials_2.thisTrialN,trials_2.thisN,trials_2.thisIndex,thisRow.t,notes,Instructions.started,instructions.started,key_resp.started,inst_sq11.started,Instructions.stopped,key_resp.keys,key_resp.rt,key_resp.duration,All.started,sq_1.started,sq_2.started,sq_3.started,sq_4.started,sq_5.started,sq_6.started,sq_7.started,sq_8.started,sq_9.started,sq_10.started,sq_11.started,sq_12.started,All.stopped,Fixation.started,fixation_3.started,fixation_3.stopped,Fixation.stopped,N_back_0_Trial.started,target_square_0.started,response_0.started,fixation_0.started,target_square_0.stopped,fixation_0.stopped,N_back_0_Trial.stopped,response_0.keys,response_0.corr,response_0.rt,response_0.duration,Instructions_1.started,instructions_1.started,key_resp_1.started,Instructions_1.stopped,key_resp_1.keys,key_resp_1.rt,key_resp_1.duration,N_back_1_Trial.started,target_square_1.started,response_1.started,target_square_1.stopped,fixation_1.started,fixation_1.stopped,response_1.stopped,N_back_1_Trial.stopped,response_1.keys,response_1.corr,response_1.rt,response_1.duration,Instructions_2.started,instructions_2.started,key_resp_2.started,Instructions_2.stopped,key_resp_2.keys,key_resp_2.rt,key_resp_2.duration,N_back_2_trials.started,target_square_2.started,response_2.started,fixation_2.started,target_square_2.stopped,fixation_2.stopped,N_back_2_trials.stopped,response_2.keys,response_2.corr,response_2.rt,response_2.duration,End.started,thank_you.started,End.stopped,participant,session,date,expName,psychopyVersion,frameRate,expStart,Unnamed: 101
,,,,,,,,,,,,,,,,,0.0015644999803043,0.004527599987341,0.004527599987341,0.004527599987341,1867.3655384999877,space,1867.346274600015,None,,,,,,,,,,,,,,,,,,,,,,,,,,,,,,,,,,,,,,,,,,,,,,,,,,,,,,,,,,,,,,,,,,,,,,nback47,1.0,2024-01-10_17h27.02.843,untitled,2023.2.3,59.95703478279254,2024-01-10 17h50.51.614914 -0500,
6.0,"[-0.3, 0]",None,0.0,0.0,0.0,0.0,,,,,,,,,1869.3868599999987,,,,,,,,,,1867.3655791000056,1867.3806354999836,1867.3806354999836,1867.3806354999836,1867.3806354999836,1867.3806354999836,1867.3806354999836,1867.3806354999836,1867.3806354999836,1867.3806354999836,1867.3806354999836,1867.3806354999836,1867.3806354999836,1868.3646876999992,1868.364703600004,1868.3805086000064,1869.3868599999987,1869.3647153000056,1869.384867799992,1869.3868599999987,1869.3868599999987,1869.863999699999,1869.897307599982,1872.364059899992,1872.3809419999889,None,1.0,,,,,,,,,,,,,,,,,,,,,,,,,,,,,,,,,,,,,,,,,,,nback47,1.0,2024-01-10_17h27.02.843,untitled,2023.2.3,59.95703478279254,2024-01-10 17h50.51.614914 -0500,
10.0,"[0, -0.2]",None,0.0,1.0,1.0,1.0,,,,,,,,,1872.3973355999915,,,,,,,,,,,,,,,,,,,,,,,,,,,,1872.382022100006,1872.3973355999915,1872.3973355999915,1872.8639338999928,1872.8974520000047,1875.3638789999825,1875.380754599988,None,1.0,,,,,,,,,,,,,,,,,,,,,,,,,,,,,,,,,,,,,,,,,,,nback47,1.0,2024-01-10_17h27.02.843,untitled,2023.2.3,59.95703478279254,2024-01-10 17h50.51.614914 -0500,
11.0,"[-0.64, -0.4]",space,0.0,2.0,2.0,2.0,,,,,,,,,1875.397420399997,,,,,,,,,,,,,,,,,,,,,,,,,,,,1875.3814416999808,1875.397420399997,1875.397420399997,1875.863910299988,1875.8973002999849,1878.3639813000043,1878.3807222000032,space,1.0,0.5866978999983985,None,,,,,,,,,,,,,,,,,,,,,,,,,,,,,,,,,,,,,,,,,nback47,1.0,2024-01-10_17h27.02.843,untitled,2023.2.3,59.95703478279254,2024-01-10 17h50.51.614914 -0500,
12.0,"[0.64, -0.4]",None,0.0,3.0,3.0,3.0,,,,,,,,,1878.3970401999832,,,,,,,,,,,,,,,,,,,,,,,,,,,,1878.3818103999947,1878.3970401999832,1878.3970401999832,1878.863806199981,1878.8970910999924,1881.3640260999964,1881.3808252000017,None,1.0,,,,,,,,,,,,,,,,,,,,,,,,,,,,,,,,,,,,,,,,,,,nback47,1.0,2024-01-10_17h27.02.843,untitled,2023.2.3,59.95703478279254,2024-01-10 17h50.51.614914 -0500,
1.0,"[-0.64, 0.4]",None,0.0,4.0,4.0,4.0,,,,,,,,,1881.3970914999957,,,,,,,,,,,,,,,,,,,,,,,,,,,,1881.3815445000075,1881.3970914999957,1881.3970914999957,1881.8637644999835,1881.89706649998,1884.3639916999964,1884.3807688999805,None,1.0,,,,,,,,,,,,,,,,,,,,,,,,,,,,,,,,,,,,,,,,,,,nback47,1.0,2024-01-10_17h27.02.843,untitled,2023.2.3,59.95703478279254,2024-01-10 17h50.51.614914 -0500,
1.0,"[-0.64, 0.4]",None,0.0,5.0,5.0,5.0,,,,,,,,,1884.397079599992,,,,,,,,,,,,,,,,,,,,,,,,,,,,1884.3815728999907,1884.397079599992,1884.397079599992,1884.8638121999973,1884.897029499989,1887.3637676000071,1887.3806652000055,None,1.0,,,,,,,,,,,,,,,,,,,,,,,,,,,,,,,,,,,,,,,,,,,nback47,1.0,2024-01-10_17h27.02.843,untitled,2023.2.3,59.95703478279254,2024-01-10 17h50.51.614914 -0500,
4.0,"[-0.2, 0.1]",None,0.0,6.0,6.0,6.0,,,,,,,,,1887.397096400004,,,,,,,,,,,,,,,,,,,,,,,,,,,,1887.3814863000007,1887.397096400004,1887.397096400004,1887.880343500001,1887.8970891000065,1890.380529099988,1890.380688300007,None,1.0,,,,,,,,,,,,,,,,,,,,,,,,,,,,,,,,,,,,,,,,,,,nback47,1.0,2024-01-10_17h27.02.843,untitled,2023.2.3,59.95703478279254,2024-01-10 17h50.51.614914 -0500,
5.0,"[0.2, 0.1]",None,0.0,7.0,7.0,7.0,,,,,,,,,1890.396924800007,,,,,,,,,,,,,,,,,,,,,,,,,,,,1890.3813036000065,1890.396924800007,1890.396924800007,1890.880216599995,1890.8968844999908,1893.380387699988,1893.380556199991,None,1.0,,,,,,,,,,,,,,,,,,,,,,,,,,,,,,,,,,,,,,,,,,,nback47,1.0,2024-01-10_17h27.02.843,untitled,2023.2.3,59.95703478279254,2024-01-10 17h50.51.614914 -0500,
11.0,"[-0.64, -0.4]",space,0.0,8.0,8.0,8.0,,,,,,,,,1893.396752700006,,,,,,,,,,,,,,,,,,,,,,,,,,,,1893.3812186,1893.396752700006,1893.396752700006,1893.86373729998,1893.897080499999,1896.363625099999,1896.3803961999947,space,1.0,0.424952100001974,None,,,,,,,,,,,,,,,,,,,,,,,,,,,,,,,,,,,,,,,,,nback47,1.0,2024-01-10_17h27.02.843,untitled,2023.2.3,59.95703478279254,2024-01-10 17h50.51.614914 -0500,
9.0,"[0.2, -0.1]",None,0.0,9.0,9.0,9.0,,,,,,,,,1896.396884099988,,,,,,,,,,,,,,,,,,,,,,,,,,,,1896.3812169999876,1896.396884099988,1896.396884099988,1896.8801355999892,1896.8968664999995,1899.380239099992,1899.380412700004,None,1.0,,,,,,,,,,,,,,,,,,,,,,,,,,,,,,,,,,,,,,,,,,,nback47,1.0,2024-01-10_17h27.02.843,untitled,2023.2.3,59.95703478279254,2024-01-10 17h50.51.614914 -0500,
8.0,"[-0.2, -0.1]",None,0.0,10.0,10.0,10.0,,,,,,,,,1899.3969616999968,,,,,,,,,,,,,,,,,,,,,,,,,,,,1899.3813036000065,1899.3969616999968,1899.3969616999968,1899.8802784,1899.8968475,1902.3801378000064,1902.3802935999995,None,1.0,,,,,,,,,,,,,,,,,,,,,,,,,,,,,,,,,,,,,,,,,,,nback47,1.0,2024-01-10_17h27.02.843,untitled,2023.2.3,59.95703478279254,2024-01-10 17h50.51.614914 -0500,
9.0,"[0.2, -0.1]",None,0.0,11.0,11.0,11.0,,,,,,,,,1902.396778299997,,,,,,,,,,,,,,,,,,,,,,,,,,,,1902.3808989999816,1902.396778299997,1902.396778299997,1902.8802275999917,1902.8968384999896,1905.38012039999,1905.380363000004,None,1.0,,,,,,,,,,,,,,,,,,,,,,,,,,,,,,,,,,,,,,,,,,,nback47,1.0,2024-01-10_17h27.02.843,untitled,2023.2.3,59.95703478279254,2024-01-10 17h50.51.614914 -0500,
6.0,"[-0.3, 0]",None,0.0,12.0,12.0,12.0,,,,,,,,,1905.3967953999816,,,,,,,,,,,,,,,,,,,,,,,,,,,,1905.381063699984,1905.3967953999816,1905.3967953999816,1905.880337199982,1905.8968115999887,1908.3801923999852,1908.3804285999795,None,1.0,,,,,,,,,,,,,,,,,,,,,,,,,,,,,,,,,,,,,,,,,,,nback47,1.0,2024-01-10_17h27.02.843,untitled,2023.2.3,59.95703478279254,2024-01-10 17h50.51.614914 -0500,
9.0,"[0.2, -0.1]",None,0.0,13.0,13.0,13.0,,,,,,,,,1908.3966708999944,,,,,,,,,,,,,,,,,,,,,,,,,,,,1908.381145599997,1908.3966708999944,1908.3966708999944,1908.8802685999835,1908.8965372999955,1911.3800754999972,1911.3802493999829,None,1.0,,,,,,,,,,,,,,,,,,,,,,,,,,,,,,,,,,,,,,,,,,,nback47,1.0,2024-01-10_17h27.02.843,untitled,2023.2.3,59.95703478279254,2024-01-10 17h50.51.614914 -0500,
7.0,"[0.3, 0]",None,0.0,14.0,14.0,14.0,,,,,,,,,1911.39676839998,,,,,,,,,,,,,,,,,,,,,,,,,,,,1911.3809405000063,1911.39676839998,1911.39676839998,1911.879916100006,1911.896620599989,1914.3800755999985,1914.3802479000003,None,1.0,,,,,,,,,,,,,,,,,,,,,,,,,,,,,,,,,,,,,,,,,,,nback47,1.0,2024-01-10_17h27.02.843,untitled,2023.2.3,59.95703478279254,2024-01-10 17h50.51.614914 -0500,
2.0,"[0.64, 0.4]",None,0.0,15.0,15.0,15.0,,,,,,,,,1914.3966306000077,,,,,,,,,,,,,,,,,,,,,,,,,,,,1914.3810025999849,1914.3966306000077,1914.3966306000077,1914.8799582000065,1914.8965197999787,1917.3798466000007,1917.3799224999968,None,1.0,,,,,,,,,,,,,,,,,,,,,,,,,,,,,,,,,,,,,,,,,,,nback47,1.0,2024-01-10_17h27.02.843,untitled,2023.2.3,59.95703478279254,2024-01-10 17h50.51.614914 -0500,
2.0,"[0.64, 0.4]",None,0.0,16.0,16.0,16.0,,,,,,,,,1917.396410199988,,,,,,,,,,,,,,,,,,,,,,,,,,,,1917.3802475999985,1917.396410199988,1917.396410199988,1917.8797621999984,1917.8963706000068,1920.3798488999887,1920.3799547999809,None,1.0,,,,,,,,,,,,,,,,,,,,,,,,,,,,,,,,,,,,,,,,,,,nback47,1.0,2024-01-10_17h27.02.843,untitled,2023.2.3,59.95703478279254,2024-01-10 17h50.51.614914 -0500,
11.0,"[-0.64, -0.4]",space,0.0,17.0,17.0,17.0,,,,,,,,,1920.3963652999955,,,,,,,,,,,,,,,,,,,,,,,,,,,,1920.3804102999857,1920.3963652999955,1920.3963652999955,1920.8799792999928,1920.896525899996,1923.379991099995,1923.380250599992,space,1.0,0.4642782999726478,None,,,,,,,,,,,,,,,,,,,,,,,,,,,,,,,,,,,,,,,,,nback47,1.0,2024-01-10_17h27.02.843,untitled,2023.2.3,59.95703478279254,2024-01-10 17h50.51.614914 -0500,
11.0,"[-0.64, -0.4]",space,0.0,18.0,18.0,18.0,,,,,,,,,1923.396535799984,,,,,,,,,,,,,,,,,,,,,,,,,,,,1923.3811813000063,1923.396535799984,1923.396535799984,1923.8798905999863,1923.896512799984,1926.379814299988,1926.379983599996,space,1.0,0.6545587000146043,None,,,,,,,,,,,,,,,,,,,,,,,,,,,,,,,,,,,,,,,,,nback47,1.0,2024-01-10_17h27.02.843,untitled,2023.2.3,59.95703478279254,2024-01-10 17h50.51.614914 -0500,
7.0,"[0.3, 0]",None,0.0,19.0,19.0,19.0,,,,,,,,,1926.396348999988,,,,,,,,,,,,,,,,,,,,,,,,,,,,1926.3807815999896,1926.396348999988,1926.396348999988,1926.8797228999904,1926.896427600004,1929.379694899981,1929.37984519999,None,1.0,,,,,,,,,,,,,,,,,,,,,,,,,,,,,,,,,,,,,,,,,,,nback47,1.0,2024-01-10_17h27.02.843,untitled,2023.2.3,59.95703478279254,2024-01-10 17h50.51.614914 -0500,
3.0,"[0, 0.2]",None,0.0,20.0,20.0,20.0,,,,,,,,,1929.3963287999795,,,,,,,,,,,,,,,,,,,,,,,,,,,,1929.3804786999824,1929.3963287999795,1929.3963287999795,1929.8798560999855,1929.896398199984,1932.3796555000008,1932.3798308999976,None,1.0,,,,,,,,,,,,,,,,,,,,,,,,,,,,,,,,,,,,,,,,,,,nback47,1.0,2024-01-10_17h27.02.843,untitled,2023.2.3,59.95703478279254,2024-01-10 17h50.51.614914 -0500,
10.0,"[0, -0.2]",None,0.0,21.0,21.0,21.0,,,,,,,,,1932.3962352999952,,,,,,,,,,,,,,,,,,,,,,,,,,,,1932.380582199985,1932.3962352999952,1932.3962352999952,1932.879592099984,1932.8962943999795,1935.379645899986,1935.379811599996,None,1.0,,,,,,,,,,,,,,,,,,,,,,,,,,,,,,,,,,,,,,,,,,,nback47,1.0,2024-01-10_17h27.02.843,untitled,2023.2.3,59.95703478279254,2024-01-10 17h50.51.614914 -0500,
1.0,"[-0.64, 0.4]",None,0.0,22.0,22.0,22.0,,,,,,,,,1935.3965232000048,,,,,,,,,,,,,,,,,,,,,,,,,,,,1935.380456499988,1935.3965232000048,1935.3965232000048,1935.879783499986,1935.896241099981,1938.379735099996,1938.379866400006,None,1.0,,,,,,,,,,,,,,,,,,,,,,,,,,,,,,,,,,,,,,,,,,,nback47,1.0,2024-01-10_17h27.02.843,untitled,2023.2.3,59.95703478279254,2024-01-10 17h50.51.614914 -0500,
2.0,"[0.64, 0.4]",None,0.0,23.0,23.0,23.0,,,,,,,,,1938.3961066000047,,,,,,,,,,,,,,,,,,,,,,,,,,,,1938.3803145999848,1938.3961066000047,1938.3961066000047,1938.879645399982,1938.8961990999812,1941.379570399993,1941.3797326000056,None,1.0,,,,,,,,,,,,,,,,,,,,,,,,,,,,,,,,,,,,,,,,,,,nback47,1.0,2024-01-10_17h27.02.843,untitled,2023.2.3,59.95703478279254,2024-01-10 17h50.51.614914 -0500,
6.0,"[-0.3, 0]",None,0.0,24.0,24.0,24.0,,,,,,,,,1941.39615299998,,,,,,,,,,,,,,,,,,,,,,,,,,,,1941.3803860000044,1941.39615299998,1941.39615299998,1941.879511599982,1941.8962633000049,1944.379538599984,1944.3797221999848,None,1.0,,,,,,,,,,,,,,,,,,,,,,,,,,,,,,,,,,,,,,,,,,,nback47,1.0,2024-01-10_17h27.02.843,untitled,2023.2.3,59.95703478279254,2024-01-10 17h50.51.614914 -0500,
3.0,"[0, 0.2]",None,0.0,25.0,25.0,25.0,,,,,,,,,1944.3961477999983,,,,,,,,,,,,,,,,,,,,,,,,,,,,1944.380509199982,1944.3961477999983,1944.3961477999983,1944.879661999992,1944.8962268999892,1947.379404799984,1947.3795727999825,None,1.0,,,,,,,,,,,,,,,,,,,,,,,,,,,,,,,,,,,,,,,,,,,nback47,1.0,2024-01-10_17h27.02.843,untitled,2023.2.3,59.95703478279254,2024-01-10 17h50.51.614914 -0500,
11.0,"[-0.64, -0.4]",space,0.0,26.0,26.0,26.0,,,,,,,,,1947.396045300004,,,,,,,,,,,,,,,,,,,,,,,,,,,,1947.380153599981,1947.396045300004,1947.396045300004,1947.879521499999,1947.8961337000076,1950.379452699999,1950.3796486000065,space,1.0,0.3840006999962497,None,,,,,,,,,,,,,,,,,,,,,,,,,,,,,,,,,,,,,,,,,nback47,1.0,2024-01-10_17h27.02.843,untitled,2023.2.3,59.95703478279254,2024-01-10 17h50.51.614914 -0500,
1.0,"[-0.64, 0.4]",None,0.0,27.0,27.0,27.0,,,,,,,,,1950.3961953999824,,,,,,,,,,,,,,,,,,,,,,,,,,,,1950.3805986999944,1950.3961953999824,1950.3961953999824,1950.8795955999813,1950.8960267000075,1953.3793529999969,1953.3795207999935,None,1.0,,,,,,,,,,,,,,,,,,,,,,,,,,,,,,,,,,,,,,,,,,,nback47,1.0,2024-01-10_17h27.02.843,untitled,2023.2.3,59.95703478279254,2024-01-10 17h50.51.614914 -0500,
3.0,"[0, 0.2]",None,0.0,28.0,28.0,28.0,,,,,,,,,1953.396057200007,,,,,,,,,,,,,,,,,,,,,,,,,,,,1953.3802071999817,1953.396057200007,1953.396057200007,1953.8794395999869,1953.8960257,1956.37934449999,1956.379528599995,None,1.0,,,,,,,,,,,,,,,,,,,,,,,,,,,,,,,,,,,,,,,,,,,nback47,1.0,2024-01-10_17h27.02.843,untitled,2023.2.3,59.95703478279254,2024-01-10 17h50.51.614914 -0500,
9.0,"[0.2, -0.1]",None,0.0,29.0,29.0,29.0,,,,,,,,,1956.3960072000043,,,,,,,,,,,,,,,,,,,,,,,,,,,,1956.380313200003,1956.3960072000043,1956.3960072000043,1956.879415000003,1956.89600399998,1959.3792629999807,1959.3794521999955,None,1.0,,,,,,,,,,,,,,,,,,,,,,,,,,,,,,,,,,,,,,,,,,,nback47,1.0,2024-01-10_17h27.02.843,untitled,2023.2.3,59.95703478279254,2024-01-10 17h50.51.614914 -0500,
8.0,"[-0.2, -0.1]",None,0.0,30.0,30.0,30.0,,,,,,,,,1959.3958435999807,,,,,,,,,,,,,,,,,,,,,,,,,,,,1959.3801991000075,1959.3958435999807,1959.3958435999807,1959.8794935999904,1959.895894799993,1962.3793124999795,1962.3795817999928,None,1.0,,,,,,,,,,,,,,,,,,,,,,,,,,,,,,,,,,,,,,,,,,,nback47,1.0,2024-01-10_17h27.02.843,untitled,2023.2.3,59.95703478279254,2024-01-10 17h50.51.614914 -0500,
12.0,"[0.64, -0.4]",None,0.0,31.0,31.0,31.0,,,,,,,,,1962.3959655000072,,,,,,,,,,,,,,,,,,,,,,,,,,,,1962.3803277999975,1962.3959655000072,1962.3959655000072,1962.8791204000008,1962.8958724999973,1965.3792432000048,1965.3794538999791,None,1.0,,,,,,,,,,,,,,,,,,,,,,,,,,,,,,,,,,,,,,,,,,,nback47,1.0,2024-01-10_17h27.02.843,untitled,2023.2.3,59.95703478279254,2024-01-10 17h50.51.614914 -0500,
9.0,"[0.2, -0.1]",None,0.0,32.0,32.0,32.0,,,,,,,,,1965.3959441999905,,,,,,,,,,,,,,,,,,,,,,,,,,,,1965.380346799997,1965.3959441999905,1965.3959441999905,1965.8792504000007,1965.895678700006,1968.3791114999915,1968.379271199985,None,1.0,,,,,,,,,,,,,,,,,,,,,,,,,,,,,,,,,,,,,,,,,,,nback47,1.0,2024-01-10_17h27.02.843,untitled,2023.2.3,59.95703478279254,2024-01-10 17h50.51.614914 -0500,
11.0,"[-0.64, -0.4]",space,0.0,33.0,33.0,33.0,,,,,,,,,1968.3956819000011,,,,,,,,,,,,,,,,,,,,,,,,,,,,1968.3799039000005,1968.3956819000011,1968.3956819000011,1968.879197000002,1968.8957668999792,1971.3792317000043,1971.3794196999809,space,1.0,0.3758569000056013,None,,,,,,,,,,,,,,,,,,,,,,,,,,,,,,,,,,,,,,,,,nback47,1.0,2024-01-10_17h27.02.843,untitled,2023.2.3,59.95703478279254,2024-01-10 17h50.51.614914 -0500,
7.0,"[0.3, 0]",None,0.0,34.0,34.0,34.0,,,,,,,,,1971.395677499997,,,,,,,,,,,,,,,,,,,,,,,,,,,,1971.3803092000016,1971.395677499997,1971.395677499997,1971.8790726999869,1971.895670800004,1974.3790309999893,1974.379184999998,None,1.0,,,,,,,,,,,,,,,,,,,,,,,,,,,,,,,,,,,,,,,,,,,nback47,1.0,2024-01-10_17h27.02.843,untitled,2023.2.3,59.95703478279254,2024-01-10 17h50.51.614914 -0500,
11.0,"[-0.64, -0.4]",space,0.0,35.0,35.0,35.0,,,,,,,,,1974.3956907999816,,,,,,,,,,,,,,,,,,,,,,,,,,,,1974.3797898000048,1974.3956907999816,1974.3956907999816,1974.878967800003,1974.8956714999804,1977.379162199999,1977.3793825999887,space,1.0,0.3500495000043884,None,,,,,,,,,,,,,,,,,,,,,,,,,,,,,,,,,,,,,,,,,nback47,1.0,2024-01-10_17h27.02.843,untitled,2023.2.3,59.95703478279254,2024-01-10 17h50.51.614914 -0500,
4.0,"[-0.2, 0.1]",None,0.0,36.0,36.0,36.0,,,,,,,,,1977.3957003999967,,,,,,,,,,,,,,,,,,,,,,,,,,,,1977.3804051000045,1977.3957003999967,1977.3957003999967,1977.8789049999905,1977.895480599982,1980.3789258000036,1980.379094200005,None,1.0,,,,,,,,,,,,,,,,,,,,,,,,,,,,,,,,,,,,,,,,,,,nback47,1.0,2024-01-10_17h27.02.843,untitled,2023.2.3,59.95703478279254,2024-01-10 17h50.51.614914 -0500,
5.0,"[0.2, 0.1]",None,0.0,37.0,37.0,37.0,,,,,,,,,1980.3955811999915,,,,,,,,,,,,,,,,,,,,,,,,,,,,1980.3799067999933,1980.3955811999915,1980.3955811999915,1980.8789216000005,1980.895529100002,1983.3789820999957,1983.379162600002,None,1.0,,,,,,,,,,,,,,,,,,,,,,,,,,,,,,,,,,,,,,,,,,,nback47,1.0,2024-01-10_17h27.02.843,untitled,2023.2.3,59.95703478279254,2024-01-10 17h50.51.614914 -0500,
6.0,"[-0.3, 0]",None,0.0,38.0,38.0,38.0,,,,,,,,,1983.3955267999845,,,,,,,,,,,,,,,,,,,,,,,,,,,,1983.3797994999916,1983.3955267999845,1983.3955267999845,1983.8789655999865,1983.895490099996,1986.3788241999864,1986.3790015999984,None,1.0,,,,,,,,,,,,,,,,,,,,,,,,,,,,,,,,,,,,,,,,,,,nback47,1.0,2024-01-10_17h27.02.843,untitled,2023.2.3,59.95703478279254,2024-01-10 17h50.51.614914 -0500,
11.0,"[-0.64, -0.4]",space,0.0,39.0,39.0,39.0,,,,,,,,,1986.3954160999856,,,,,,,,,,,,,,,,,,,,,,,,,,,,1986.3797559999805,1986.3954160999856,1986.3954160999856,1986.8788387999807,1986.8954584999883,1989.378945400007,1989.3791233999943,space,1.0,0.5235972000227775,None,,,,,,,,,,,,,,,,,,,,,,,,,,,,,,,,,,,,,,,,,nback47,1.0,2024-01-10_17h27.02.843,untitled,2023.2.3,59.95703478279254,2024-01-10 17h50.51.614914 -0500,
,,,,,,,,,,,,,,,,,,,,,,,,,,,,,,,,,,,,,,,,,,,,,,,,,,,,,,1989.3798624000049,1989.3956183999835,1989.3956183999835,2001.5803038000013,space,12.17225309999776,None,,,,,,,,,,,,,,,,,,,,,,,,,,,,,,,,,,nback47,1.0,2024-01-10_17h27.02.843,untitled,2023.2.3,59.95703478279254,2024-01-10 17h50.51.614914 -0500,
10.0,"[0, -0.2]",None,,,,,0.0,0.0,0.0,0.0,,,,,2002.596085600002,,,,,,,,,,,,,,,,,,,,,,,,2001.580346200004,2001.595156700001,2002.596085600002,2002.579277199984,,,,,,,,,,,,,,,,,,,2002.5939984,2002.596085600002,2002.596085600002,2003.095276499982,2003.095276499982,2005.5952800999803,2005.5952800999803,2005.579779499996,None,1.0,,,,,,,,,,,,,,,,,,,,,,,,nback47,1.0,2024-01-10_17h27.02.843,untitled,2023.2.3,59.95703478279254,2024-01-10 17h50.51.614914 -0500,
5.0,"[0.2, 0.1]",None,,,,,0.0,1.0,1.0,1.0,,,,,2005.5952800999803,,,,,,,,,,,,,,,,,,,,,,,,,,,,,,,,,,,,,,,,,,,,,,2005.5807407999816,2005.5952800999803,2005.5952800999803,2006.0952988000065,2006.0952988000065,2008.595135299984,2008.595135299984,2008.579118199996,None,1.0,,,,,,,,,,,,,,,,,,,,,,,,nback47,1.0,2024-01-10_17h27.02.843,untitled,2023.2.3,59.95703478279254,2024-01-10 17h50.51.614914 -0500,
6.0,"[-0.3, 0]",None,,,,,0.0,2.0,2.0,2.0,,,,,2008.595135299984,,,,,,,,,,,,,,,,,,,,,,,,,,,,,,,,,,,,,,,,,,,,,,2008.5797325999883,2008.595135299984,2008.595135299984,2009.0952703999935,2009.0952703999935,2011.595262699993,2011.595262699993,2011.579409800004,None,1.0,,,,,,,,,,,,,,,,,,,,,,,,nback47,1.0,2024-01-10_17h27.02.843,untitled,2023.2.3,59.95703478279254,2024-01-10 17h50.51.614914 -0500,
6.0,"[-0.3, 0]",space,,,,,0.0,3.0,3.0,3.0,,,,,2011.595262699993,,,,,,,,,,,,,,,,,,,,,,,,,,,,,,,,,,,,,,,,,,,,,,2011.5801905999836,2011.595262699993,2011.595262699993,2012.09513479998,2012.09513479998,2014.594878599979,2014.594878599979,2014.578989300004,space,1.0,0.4106872999982442,None,,,,,,,,,,,,,,,,,,,,,,nback47,1.0,2024-01-10_17h27.02.843,untitled,2023.2.3,59.95703478279254,2024-01-10 17h50.51.614914 -0500,
12.0,"[0.64, -0.4]",None,,,,,0.0,4.0,4.0,4.0,,,,,2014.594878599979,,,,,,,,,,,,,,,,,,,,,,,,,,,,,,,,,,,,,,,,,,,,,,2014.579910200002,2014.594878599979,2014.594878599979,2015.0949333999888,2015.0949333999888,2017.595009199984,2017.595009199984,2017.5793341999813,None,1.0,,,,,,,,,,,,,,,,,,,,,,,,nback47,1.0,2024-01-10_17h27.02.843,untitled,2023.2.3,59.95703478279254,2024-01-10 17h50.51.614914 -0500,
10.0,"[0, -0.2]",None,,,,,0.0,5.0,5.0,5.0,,,,,2017.595009199984,,,,,,,,,,,,,,,,,,,,,,,,,,,,,,,,,,,,,,,,,,,,,,2017.5802382999973,2017.595009199984,2017.595009199984,2018.0951315999848,2018.0951315999848,2020.594906499988,2020.594906499988,2020.5790306999988,None,1.0,,,,,,,,,,,,,,,,,,,,,,,,nback47,1.0,2024-01-10_17h27.02.843,untitled,2023.2.3,59.95703478279254,2024-01-10 17h50.51.614914 -0500,
2.0,"[0.64, 0.4]",None,,,,,0.0,6.0,6.0,6.0,,,,,2020.594906499988,,,,,,,,,,,,,,,,,,,,,,,,,,,,,,,,,,,,,,,,,,,,,,2020.579682599986,2020.594906499988,2020.594906499988,2021.094956699992,2021.094956699992,2023.59487109998,2023.59487109998,2023.579067999992,None,1.0,,,,,,,,,,,,,,,,,,,,,,,,nback47,1.0,2024-01-10_17h27.02.843,untitled,2023.2.3,59.95703478279254,2024-01-10 17h50.51.614914 -0500,
9.0,"[0.2, -0.1]",None,,,,,0.0,7.0,7.0,7.0,,,,,2023.59487109998,,,,,,,,,,,,,,,,,,,,,,,,,,,,,,,,,,,,,,,,,,,,,,2023.5797428999797,2023.59487109998,2023.59487109998,2024.094762099994,2024.094762099994,2026.594858299999,2026.594858299999,2026.579146300006,None,1.0,,,,,,,,,,,,,,,,,,,,,,,,nback47,1.0,2024-01-10_17h27.02.843,untitled,2023.2.3,59.95703478279254,2024-01-10 17h50.51.614914 -0500,
9.0,"[0.2, -0.1]",space,,,,,0.0,8.0,8.0,8.0,,,,,2026.594858299999,,,,,,,,,,,,,,,,,,,,,,,,,,,,,,,,,,,,,,,,,,,,,,2026.579888599983,2026.594858299999,2026.594858299999,2027.094972299994,2027.094972299994,2029.5949057999824,2029.5949057999824,2029.5790693000015,space,1.0,0.3689357999828644,None,,,,,,,,,,,,,,,,,,,,,,nback47,1.0,2024-01-10_17h27.02.843,untitled,2023.2.3,59.95703478279254,2024-01-10 17h50.51.614914 -0500,
6.0,"[-0.3, 0]",None,,,,,0.0,9.0,9.0,9.0,,,,,2029.5949057999824,,,,,,,,,,,,,,,,,,,,,,,,,,,,,,,,,,,,,,,,,,,,,,2029.579852099996,2029.5949057999824,2029.5949057999824,2030.0948505999984,2030.0948505999984,2032.594756599981,2032.594756599981,2032.5789019999795,None,1.0,,,,,,,,,,,,,,,,,,,,,,,,nback47,1.0,2024-01-10_17h27.02.843,untitled,2023.2.3,59.95703478279254,2024-01-10 17h50.51.614914 -0500,
11.0,"[-0.64, -0.4]",None,,,,,0.0,10.0,10.0,10.0,,,,,2032.594756599981,,,,,,,,,,,,,,,,,,,,,,,,,,,,,,,,,,,,,,,,,,,,,,2032.5795153999932,2032.594756599981,2032.594756599981,2033.0947603999807,2033.0947603999807,2035.594752200006,2035.594752200006,2035.5789590000056,None,1.0,,,,,,,,,,,,,,,,,,,,,,,,nback47,1.0,2024-01-10_17h27.02.843,untitled,2023.2.3,59.95703478279254,2024-01-10 17h50.51.614914 -0500,
11.0,"[-0.64, -0.4]",space,,,,,0.0,11.0,11.0,11.0,,,,,2035.594752200006,,,,,,,,,,,,,,,,,,,,,,,,,,,,,,,,,,,,,,,,,,,,,,2035.5796230999983,2035.594752200006,2035.594752200006,2036.094641899981,2036.094641899981,2038.5947539999904,2038.5947539999904,2038.5792082999835,space,1.0,0.3857283999968786,None,,,,,,,,,,,,,,,,,,,,,,nback47,1.0,2024-01-10_17h27.02.843,untitled,2023.2.3,59.95703478279254,2024-01-10 17h50.51.614914 -0500,
4.0,"[-0.2, 0.1]",None,,,,,0.0,12.0,12.0,12.0,,,,,2038.5947539999904,,,,,,,,,,,,,,,,,,,,,,,,,,,,,,,,,,,,,,,,,,,,,,2038.580136799981,2038.5947539999904,2038.5947539999904,2039.0946889999905,2039.0946889999905,2041.5945615999808,2041.5945615999808,2041.5787530999803,None,1.0,,,,,,,,,,,,,,,,,,,,,,,,nback47,1.0,2024-01-10_17h27.02.843,untitled,2023.2.3,59.95703478279254,2024-01-10 17h50.51.614914 -0500,
3.0,"[0, 0.2]",None,,,,,0.0,13.0,13.0,13.0,,,,,2041.5945615999808,,,,,,,,,,,,,,,,,,,,,,,,,,,,,,,,,,,,,,,,,,,,,,2041.5794466999944,2041.5945615999808,2041.5945615999808,2042.094676299981,2042.094676299981,2044.5944880000025,2044.5944880000025,2044.578666699992,None,1.0,,,,,,,,,,,,,,,,,,,,,,,,nback47,1.0,2024-01-10_17h27.02.843,untitled,2023.2.3,59.95703478279254,2024-01-10 17h50.51.614914 -0500,
3.0,"[0, 0.2]",space,,,,,0.0,14.0,14.0,14.0,,,,,2044.5944880000025,,,,,,,,,,,,,,,,,,,,,,,,,,,,,,,,,,,,,,,,,,,,,,2044.579232899996,2044.5944880000025,2044.5944880000025,2045.0944224999985,2045.0944224999985,2047.594338099996,2047.594338099996,2047.5786736999871,space,1.0,0.3401746000163257,None,,,,,,,,,,,,,,,,,,,,,,nback47,1.0,2024-01-10_17h27.02.843,untitled,2023.2.3,59.95703478279254,2024-01-10 17h50.51.614914 -0500,
8.0,"[-0.2, -0.1]",None,,,,,0.0,15.0,15.0,15.0,,,,,2047.594338099996,,,,,,,,,,,,,,,,,,,,,,,,,,,,,,,,,,,,,,,,,,,,,,2047.5794646999857,2047.594338099996,2047.594338099996,2048.094487299997,2048.094487299997,2050.594482099986,2050.594482099986,2050.578581799986,None,1.0,,,,,,,,,,,,,,,,,,,,,,,,nback47,1.0,2024-01-10_17h27.02.843,untitled,2023.2.3,59.95703478279254,2024-01-10 17h50.51.614914 -0500,
1.0,"[-0.64, 0.4]",None,,,,,0.0,16.0,16.0,16.0,,,,,2050.594482099986,,,,,,,,,,,,,,,,,,,,,,,,,,,,,,,,,,,,,,,,,,,,,,2050.5792334,2050.594482099986,2050.594482099986,2051.0944448999944,2051.0944448999944,2053.5945265000046,2053.5945265000046,2053.578580899979,None,1.0,,,,,,,,,,,,,,,,,,,,,,,,nback47,1.0,2024-01-10_17h27.02.843,untitled,2023.2.3,59.95703478279254,2024-01-10 17h50.51.614914 -0500,
2.0,"[0.64, 0.4]",None,,,,,0.0,17.0,17.0,17.0,,,,,2053.5945265000046,,,,,,,,,,,,,,,,,,,,,,,,,,,,,,,,,,,,,,,,,,,,,,2053.579230999981,2053.5945265000046,2053.5945265000046,2054.094501099986,2054.094501099986,2056.594314299989,2056.594314299989,2056.578776399984,None,1.0,,,,,,,,,,,,,,,,,,,,,,,,nback47,1.0,2024-01-10_17h27.02.843,untitled,2023.2.3,59.95703478279254,2024-01-10 17h50.51.614914 -0500,
4.0,"[-0.2, 0.1]",None,,,,,0.0,18.0,18.0,18.0,,,,,2056.594314299989,,,,,,,,,,,,,,,,,,,,,,,,,,,,,,,,,,,,,,,,,,,,,,2056.579549499991,2056.594314299989,2056.594314299989,2057.094373400003,2057.094373400003,2059.5942338999885,2059.5942338999885,2059.5786200999864,None,1.0,,,,,,,,,,,,,,,,,,,,,,,,nback47,1.0,2024-01-10_17h27.02.843,untitled,2023.2.3,59.95703478279254,2024-01-10 17h50.51.614914 -0500,
4.0,"[-0.2, 0.1]",space,,,,,0.0,19.0,19.0,19.0,,,,,2059.5942338999885,,,,,,,,,,,,,,,,,,,,,,,,,,,,,,,,,,,,,,,,,,,,,,2059.5793604000064,2059.5942338999885,2059.5942338999885,2060.0943017999816,2060.0943017999816,2062.594381600007,2062.594381600007,2062.578428299981,space,1.0,0.4540466000034939,None,,,,,,,,,,,,,,,,,,,,,,nback47,1.0,2024-01-10_17h27.02.843,untitled,2023.2.3,59.95703478279254,2024-01-10 17h50.51.614914 -0500,
8.0,"[-0.2, -0.1]",None,,,,,0.0,20.0,20.0,20.0,,,,,2062.594381600007,,,,,,,,,,,,,,,,,,,,,,,,,,,,,,,,,,,,,,,,,,,,,,2062.579207600007,2062.594381600007,2062.594381600007,2063.0944349000056,2063.0944349000056,2065.5943408999883,2065.5943408999883,2065.578424699983,None,1.0,,,,,,,,,,,,,,,,,,,,,,,,nback47,1.0,2024-01-10_17h27.02.843,untitled,2023.2.3,59.95703478279254,2024-01-10 17h50.51.614914 -0500,
5.0,"[0.2, 0.1]",None,,,,,0.0,21.0,21.0,21.0,,,,,2065.5943408999883,,,,,,,,,,,,,,,,,,,,,,,,,,,,,,,,,,,,,,,,,,,,,,2065.5790754999907,2065.5943408999883,2065.5943408999883,2066.0942948999877,2066.0942948999877,2068.594199199986,2068.594199199986,2068.5781035999826,None,1.0,,,,,,,,,,,,,,,,,,,,,,,,nback47,1.0,2024-01-10_17h27.02.843,untitled,2023.2.3,59.95703478279254,2024-01-10 17h50.51.614914 -0500,
5.0,"[0.2, 0.1]",space,,,,,0.0,22.0,22.0,22.0,,,,,2068.594199199986,,,,,,,,,,,,,,,,,,,,,,,,,,,,,,,,,,,,,,,,,,,,,,2068.5786233999825,2068.594199199986,2068.594199199986,2069.0940375000064,2069.0940375000064,2071.594166099996,2071.594166099996,2071.578675800003,space,1.0,0.3836207999847829,None,,,,,,,,,,,,,,,,,,,,,,nback47,1.0,2024-01-10_17h27.02.843,untitled,2023.2.3,59.95703478279254,2024-01-10 17h50.51.614914 -0500,
1.0,"[-0.64, 0.4]",None,,,,,0.0,23.0,23.0,23.0,,,,,2071.594166099996,,,,,,,,,,,,,,,,,,,,,,,,,,,,,,,,,,,,,,,,,,,,,,2071.5795559999824,2071.594166099996,2071.594166099996,2072.0942536999937,2072.0942536999937,2074.594093599997,2074.594093599997,2074.5782018000027,None,1.0,,,,,,,,,,,,,,,,,,,,,,,,nback47,1.0,2024-01-10_17h27.02.843,untitled,2023.2.3,59.95703478279254,2024-01-10 17h50.51.614914 -0500,
3.0,"[0, 0.2]",None,,,,,0.0,24.0,24.0,24.0,,,,,2074.594093599997,,,,,,,,,,,,,,,,,,,,,,,,,,,,,,,,,,,,,,,,,,,,,,2074.578844899981,2074.594093599997,2074.594093599997,2075.094090900005,2075.094090900005,2077.593989599991,2077.593989599991,2077.578319799999,None,1.0,,,,,,,,,,,,,,,,,,,,,,,,nback47,1.0,2024-01-10_17h27.02.843,untitled,2023.2.3,59.95703478279254,2024-01-10 17h50.51.614914 -0500,
6.0,"[-0.3, 0]",None,,,,,0.0,25.0,25.0,25.0,,,,,2077.593989599991,,,,,,,,,,,,,,,,,,,,,,,,,,,,,,,,,,,,,,,,,,,,,,2077.5790092999814,2077.593989599991,2077.593989599991,2078.0940787,2078.0940787,2080.5940787,2080.5940787,2080.5779877000023,None,1.0,,,,,,,,,,,,,,,,,,,,,,,,nback47,1.0,2024-01-10_17h27.02.843,untitled,2023.2.3,59.95703478279254,2024-01-10 17h50.51.614914 -0500,
1.0,"[-0.64, 0.4]",None,,,,,0.0,26.0,26.0,26.0,,,,,2080.5940787,,,,,,,,,,,,,,,,,,,,,,,,,,,,,,,,,,,,,,,,,,,,,,2080.578630200005,2080.5940787,2080.5940787,2081.093905599992,2081.093905599992,2083.5940137,2083.5940137,2083.578079500003,None,1.0,,,,,,,,,,,,,,,,,,,,,,,,nback47,1.0,2024-01-10_17h27.02.843,untitled,2023.2.3,59.95703478279254,2024-01-10 17h50.51.614914 -0500,
1.0,"[-0.64, 0.4]",space,,,,,0.0,27.0,27.0,27.0,,,,,2083.5940137,,,,,,,,,,,,,,,,,,,,,,,,,,,,,,,,,,,,,,,,,,,,,,2083.57871479998,2083.5940137,2083.5940137,2084.094100499992,2084.094100499992,2086.5941007999936,2086.5941007999936,2086.578331600001,space,1.0,0.3327734000049531,None,,,,,,,,,,,,,,,,,,,,,,nback47,1.0,2024-01-10_17h27.02.843,untitled,2023.2.3,59.95703478279254,2024-01-10 17h50.51.614914 -0500,
1.0,"[-0.64, 0.4]",space,,,,,0.0,28.0,28.0,28.0,,,,,2086.5941007999936,,,,,,,,,,,,,,,,,,,,,,,,,,,,,,,,,,,,,,,,,,,,,,2086.5792235999834,2086.5941007999936,2086.5941007999936,2087.09394359999,2087.09394359999,2089.5938995000038,2089.5938995000038,2089.577905299986,None,0.0,,,,,,,,,,,,,,,,,,,,,,,,nback47,1.0,2024-01-10_17h27.02.843,untitled,2023.2.3,59.95703478279254,2024-01-10 17h50.51.614914 -0500,
3.0,"[0, 0.2]",None,,,,,0.0,29.0,29.0,29.0,,,,,2089.5938995000038,,,,,,,,,,,,,,,,,,,,,,,,,,,,,,,,,,,,,,,,,,,,,,2089.578549400001,2089.5938995000038,2089.5938995000038,2090.0938279999828,2090.0938279999828,2092.5939074000053,2092.5939074000053,2092.5783633999818,None,1.0,,,,,,,,,,,,,,,,,,,,,,,,nback47,1.0,2024-01-10_17h27.02.843,untitled,2023.2.3,59.95703478279254,2024-01-10 17h50.51.614914 -0500,
12.0,"[0.64, -0.4]",None,,,,,0.0,30.0,30.0,30.0,,,,,2092.5939074000053,,,,,,,,,,,,,,,,,,,,,,,,,,,,,,,,,,,,,,,,,,,,,,2092.57909459999,2092.5939074000053,2092.5939074000053,2093.093948199996,2093.093948199996,2095.593770699983,2095.593770699983,2095.577840999991,None,1.0,,,,,,,,,,,,,,,,,,,,,,,,nback47,1.0,2024-01-10_17h27.02.843,untitled,2023.2.3,59.95703478279254,2024-01-10 17h50.51.614914 -0500,
12.0,"[0.64, -0.4]",space,,,,,0.0,31.0,31.0,31.0,,,,,2095.593770699983,,,,,,,,,,,,,,,,,,,,,,,,,,,,,,,,,,,,,,,,,,,,,,2095.5783974999795,2095.593770699983,2095.593770699983,2096.093855999992,2096.093855999992,2098.593743799982,2098.593743799982,2098.577785899979,space,1.0,0.504040800005896,None,,,,,,,,,,,,,,,,,,,,,,nback47,1.0,2024-01-10_17h27.02.843,untitled,2023.2.3,59.95703478279254,2024-01-10 17h50.51.614914 -0500,
2.0,"[0.64, 0.4]",None,,,,,0.0,32.0,32.0,32.0,,,,,2098.593743799982,,,,,,,,,,,,,,,,,,,,,,,,,,,,,,,,,,,,,,,,,,,,,,2098.578557800007,2098.593743799982,2098.593743799982,2099.093647200003,2099.093647200003,2101.5937413999927,2101.5937413999927,2101.578080100008,None,1.0,,,,,,,,,,,,,,,,,,,,,,,,nback47,1.0,2024-01-10_17h27.02.843,untitled,2023.2.3,59.95703478279254,2024-01-10 17h50.51.614914 -0500,
1.0,"[-0.64, 0.4]",None,,,,,0.0,33.0,33.0,33.0,,,,,2101.5937413999927,,,,,,,,,,,,,,,,,,,,,,,,,,,,,,,,,,,,,,,,,,,,,,2101.578849399986,2101.5937413999927,2101.5937413999927,2102.093845800002,2102.093845800002,2104.593599799992,2104.593599799992,2104.5774604000035,None,1.0,,,,,,,,,,,,,,,,,,,,,,,,nback47,1.0,2024-01-10_17h27.02.843,untitled,2023.2.3,59.95703478279254,2024-01-10 17h50.51.614914 -0500,
7.0,"[0.3, 0]",None,,,,,0.0,34.0,34.0,34.0,,,,,2104.593599799992,,,,,,,,,,,,,,,,,,,,,,,,,,,,,,,,,,,,,,,,,,,,,,2104.578014400002,2104.593599799992,2104.593599799992,2105.0935866000077,2105.0935866000077,2107.5936950999894,2107.5936950999894,2107.5776228999894,None,1.0,,,,,,,,,,,,,,,,,,,,,,,,nback47,1.0,2024-01-10_17h27.02.843,untitled,2023.2.3,59.95703478279254,2024-01-10 17h50.51.614914 -0500,
7.0,"[0.3, 0]",space,,,,,0.0,35.0,35.0,35.0,,,,,2107.5936950999894,,,,,,,,,,,,,,,,,,,,,,,,,,,,,,,,,,,,,,,,,,,,,,2107.5782640999823,2107.5936950999894,2107.5936950999894,2108.0937098999857,2108.0937098999857,2110.5936477999785,2110.5936477999785,2110.5778510999808,space,1.0,1.0003598000039349,None,,,,,,,,,,,,,,,,,,,,,,nback47,1.0,2024-01-10_17h27.02.843,untitled,2023.2.3,59.95703478279254,2024-01-10 17h50.51.614914 -0500,
11.0,"[-0.64, -0.4]",None,,,,,0.0,36.0,36.0,36.0,,,,,2110.5936477999785,,,,,,,,,,,,,,,,,,,,,,,,,,,,,,,,,,,,,,,,,,,,,,2110.5787704999966,2110.5936477999785,2110.5936477999785,2111.0935155999905,2111.0935155999905,2113.5934766999853,2113.5934766999853,2113.577612299996,None,1.0,,,,,,,,,,,,,,,,,,,,,,,,nback47,1.0,2024-01-10_17h27.02.843,untitled,2023.2.3,59.95703478279254,2024-01-10 17h50.51.614914 -0500,
2.0,"[0.64, 0.4]",None,,,,,0.0,37.0,37.0,37.0,,,,,2113.5934766999853,,,,,,,,,,,,,,,,,,,,,,,,,,,,,,,,,,,,,,,,,,,,,,2113.578333799989,2113.5934766999853,2113.5934766999853,2114.093489699997,2114.093489699997,2116.5934863,2116.5934863,2116.577698599984,None,1.0,,,,,,,,,,,,,,,,,,,,,,,,nback47,1.0,2024-01-10_17h27.02.843,untitled,2023.2.3,59.95703478279254,2024-01-10 17h50.51.614914 -0500,
6.0,"[-0.3, 0]",None,,,,,0.0,38.0,38.0,38.0,,,,,2116.5934863,,,,,,,,,,,,,,,,,,,,,,,,,,,,,,,,,,,,,,,,,,,,,,2116.578311199992,2116.5934863,2116.5934863,2117.0933728999807,2117.0933728999807,2119.593442799989,2119.593442799989,2119.577422799979,None,1.0,,,,,,,,,,,,,,,,,,,,,,,,nback47,1.0,2024-01-10_17h27.02.843,untitled,2023.2.3,59.95703478279254,2024-01-10 17h50.51.614914 -0500,
10.0,"[0, -0.2]",None,,,,,0.0,39.0,39.0,39.0,,,,,2119.593442799989,,,,,,,,,,,,,,,,,,,,,,,,,,,,,,,,,,,,,,,,,,,,,,2119.578093499993,2119.593442799989,2119.593442799989,2120.093490200001,2120.093490200001,2122.593505800003,2122.593505800003,2122.577863399987,None,1.0,,,,,,,,,,,,,,,,,,,,,,,,nback47,1.0,2024-01-10_17h27.02.843,untitled,2023.2.3,59.95703478279254,2024-01-10 17h50.51.614914 -0500,
,,,,,,,,,,,,,,,,,,,,,,,,,,,,,,,,,,,,,,,,,,,,,,,,,,,,,,,,,,,,,,,,,,,,,,,,,2122.578400600003,2122.593505800003,2122.593505800003,2136.4611929999955,space,13.861520499980545,None,,,,,,,,,,,,,,,nback47,1.0,2024-01-10_17h27.02.843,untitled,2023.2.3,59.95703478279254,2024-01-10 17h50.51.614914 -0500,
,"[0.2, 0.1]",None,,,,,,,,,0.0,0.0,0.0,0.0,2137.478722400003,,,,,,,,,,,,,,,,,,,,,,,,2136.461228500004,2136.476667899988,2137.478722400003,2137.4606509000005,,,,,,,,,,,,,,,,,,,,,,,,,,,,,,,,,,,,,,2137.476625499985,2137.478722400003,2137.478722400003,2137.9763956999814,2137.9932052999798,2140.4765093000024,2140.476700900006,None,1.0,,,,,,nback47,1.0,2024-01-10_17h27.02.843,untitled,2023.2.3,59.95703478279254,2024-01-10 17h50.51.614914 -0500,
,"[0.64, 0.4]",None,,,,,,,,,0.0,1.0,1.0,1.0,2140.4930892999982,,,,,,,,,,,,,,,,,,,,,,,,,,,,,,,,,,,,,,,,,,,,,,,,,,,,,,,,,,,,,,,,,2140.477626399981,2140.4930892999982,2140.4930892999982,2140.976787099993,2140.9930437000003,2143.476439799997,2143.4766211999813,None,1.0,,,,,,nback47,1.0,2024-01-10_17h27.02.843,untitled,2023.2.3,59.95703478279254,2024-01-10 17h50.51.614914 -0500,
,"[-0.3, 0]",None,,,,,,,,,0.0,2.0,2.0,2.0,2143.49307159998,,,,,,,,,,,,,,,,,,,,,,,,,,,,,,,,,,,,,,,,,,,,,,,,,,,,,,,,,,,,,,,,,2143.477374499984,2143.49307159998,2143.49307159998,2143.9763865999994,2143.993040500005,2146.476493199996,2146.4766812000016,None,1.0,,,,,,nback47,1.0,2024-01-10_17h27.02.843,untitled,2023.2.3,59.95703478279254,2024-01-10 17h50.51.614914 -0500,
,"[0.2, -0.1]",None,,,,,,,,,0.0,3.0,3.0,3.0,2146.492995799985,,,,,,,,,,,,,,,,,,,,,,,,,,,,,,,,,,,,,,,,,,,,,,,,,,,,,,,,,,,,,,,,,2146.4775582999864,2146.492995799985,2146.492995799985,2146.9761950999964,2146.992957099981,2149.476288899983,2149.476479100005,None,1.0,,,,,,nback47,1.0,2024-01-10_17h27.02.843,untitled,2023.2.3,59.95703478279254,2024-01-10 17h50.51.614914 -0500,
,"[0, 0.2]",None,,,,,,,,,0.0,4.0,4.0,4.0,2149.492885099986,,,,,,,,,,,,,,,,,,,,,,,,,,,,,,,,,,,,,,,,,,,,,,,,,,,,,,,,,,,,,,,,,2149.477225599985,2149.492885099986,2149.492885099986,2149.976437999984,2149.9927667999877,2152.476244099991,2152.4764140000043,None,1.0,,,,,,nback47,1.0,2024-01-10_17h27.02.843,untitled,2023.2.3,59.95703478279254,2024-01-10 17h50.51.614914 -0500,
,"[0.2, -0.1]",space,,,,,,,,,0.0,5.0,5.0,5.0,2152.492895500007,,,,,,,,,,,,,,,,,,,,,,,,,,,,,,,,,,,,,,,,,,,,,,,,,,,,,,,,,,,,,,,,,2152.477092699992,2152.492895500007,2152.492895500007,2152.9762319999863,2152.992686699989,2155.4762753999967,2155.476467600005,space,1.0,0.5122685999958776,None,,,,nback47,1.0,2024-01-10_17h27.02.843,untitled,2023.2.3,59.95703478279254,2024-01-10 17h50.51.614914 -0500,
,"[0, -0.2]",None,,,,,,,,,0.0,6.0,6.0,6.0,2155.49275819998,,,,,,,,,,,,,,,,,,,,,,,,,,,,,,,,,,,,,,,,,,,,,,,,,,,,,,,,,,,,,,,,,2155.477430400002,2155.49275819998,2155.49275819998,2155.97630129999,2155.992980899988,2158.476116399979,2158.476293399988,None,1.0,,,,,,nback47,1.0,2024-01-10_17h27.02.843,untitled,2023.2.3,59.95703478279254,2024-01-10 17h50.51.614914 -0500,
,"[0.64, -0.4]",None,,,,,,,,,0.0,7.0,7.0,7.0,2158.4928489000013,,,,,,,,,,,,,,,,,,,,,,,,,,,,,,,,,,,,,,,,,,,,,,,,,,,,,,,,,,,,,,,,,2158.476976999984,2158.4928489000013,2158.4928489000013,2158.9761925000057,2158.992901299993,2161.476275599998,2161.476444300002,None,1.0,,,,,,nback47,1.0,2024-01-10_17h27.02.843,untitled,2023.2.3,59.95703478279254,2024-01-10 17h50.51.614914 -0500,
,"[0.3, 0]",None,,,,,,,,,0.0,8.0,8.0,8.0,2161.492761100002,,,,,,,,,,,,,,,,,,,,,,,,,,,,,,,,,,,,,,,,,,,,,,,,,,,,,,,,,,,,,,,,,2161.4770835999807,2161.492761100002,2161.492761100002,2161.976176700002,2161.992702699994,2164.476021999988,2164.4761892999813,None,1.0,,,,,,nback47,1.0,2024-01-10_17h27.02.843,untitled,2023.2.3,59.95703478279254,2024-01-10 17h50.51.614914 -0500,
,"[0.64, -0.4]",space,,,,,,,,,0.0,9.0,9.0,9.0,2164.4927720999985,,,,,,,,,,,,,,,,,,,,,,,,,,,,,,,,,,,,,,,,,,,,,,,,,,,,,,,,,,,,,,,,,2164.476878599992,2164.4927720999985,2164.4927720999985,2164.9762838000024,2164.992701499985,2167.476097100007,2167.476276500005,space,1.0,0.3954231000097934,None,,,,nback47,1.0,2024-01-10_17h27.02.843,untitled,2023.2.3,59.95703478279254,2024-01-10 17h50.51.614914 -0500,
,"[-0.64, 0.4]",None,,,,,,,,,0.0,10.0,10.0,10.0,2167.492682799988,,,,,,,,,,,,,,,,,,,,,,,,,,,,,,,,,,,,,,,,,,,,,,,,,,,,,,,,,,,,,,,,,2167.477134399989,2167.492682799988,2167.492682799988,2167.976033599989,2167.992610699992,2170.476197699987,2170.4763993999804,None,1.0,,,,,,nback47,1.0,2024-01-10_17h27.02.843,untitled,2023.2.3,59.95703478279254,2024-01-10 17h50.51.614914 -0500,
,"[0.2, 0.1]",None,,,,,,,,,0.0,11.0,11.0,11.0,2170.492769400007,,,,,,,,,,,,,,,,,,,,,,,,,,,,,,,,,,,,,,,,,,,,,,,,,,,,,,,,,,,,,,,,,2170.47725929998,2170.492769400007,2170.492769400007,2170.975903399987,2170.992517100007,2173.476067999989,2173.476271199994,None,1.0,,,,,,nback47,1.0,2024-01-10_17h27.02.843,untitled,2023.2.3,59.95703478279254,2024-01-10 17h50.51.614914 -0500,
,"[0.3, 0]",None,,,,,,,,,0.0,12.0,12.0,12.0,2173.492552699987,,,,,,,,,,,,,,,,,,,,,,,,,,,,,,,,,,,,,,,,,,,,,,,,,,,,,,,,,,,,,,,,,2173.477121599979,2173.492552699987,2173.492552699987,2173.9758211000008,2173.9924603999825,2176.475800999993,2176.475951600005,None,1.0,,,,,,nback47,1.0,2024-01-10_17h27.02.843,untitled,2023.2.3,59.95703478279254,2024-01-10 17h50.51.614914 -0500,
,"[0.2, 0.1]",space,,,,,,,,,0.0,13.0,13.0,13.0,2176.49253019999,,,,,,,,,,,,,,,,,,,,,,,,,,,,,,,,,,,,,,,,,,,,,,,,,,,,,,,,,,,,,,,,,2176.476546799997,2176.49253019999,2176.49253019999,2176.9757906000013,2176.9924536999897,2179.475794099999,2179.47596739998,space,1.0,1.0726625000243075,None,,,,nback47,1.0,2024-01-10_17h27.02.843,untitled,2023.2.3,59.95703478279254,2024-01-10 17h50.51.614914 -0500,
,"[-0.3, 0]",None,,,,,,,,,0.0,14.0,14.0,14.0,2179.4925084999995,,,,,,,,,,,,,,,,,,,,,,,,,,,,,,,,,,,,,,,,,,,,,,,,,,,,,,,,,,,,,,,,,2179.4768571000022,2179.4925084999995,2179.4925084999995,2179.975738599984,2179.9923534999834,2182.475779200002,2182.475977299997,None,1.0,,,,,,nback47,1.0,2024-01-10_17h27.02.843,untitled,2023.2.3,59.95703478279254,2024-01-10 17h50.51.614914 -0500,
,"[0, 0.2]",None,,,,,,,,,0.0,15.0,15.0,15.0,2182.49241169999,,,,,,,,,,,,,,,,,,,,,,,,,,,,,,,,,,,,,,,,,,,,,,,,,,,,,,,,,,,,,,,,,2182.4767780999828,2182.49241169999,2182.49241169999,2182.9757179000007,2182.9923407000024,2185.475695800007,2185.475920900004,None,1.0,,,,,,nback47,1.0,2024-01-10_17h27.02.843,untitled,2023.2.3,59.95703478279254,2024-01-10 17h50.51.614914 -0500,
,"[-0.3, 0]",space,,,,,,,,,0.0,16.0,16.0,16.0,2185.492347499996,,,,,,,,,,,,,,,,,,,,,,,,,,,,,,,,,,,,,,,,,,,,,,,,,,,,,,,,,,,,,,,,,2185.476646199997,2185.492347499996,2185.492347499996,2185.9757344999816,2185.9924790999794,2188.4757149999787,2188.4758837999834,space,1.0,0.9445687000115868,None,,,,nback47,1.0,2024-01-10_17h27.02.843,untitled,2023.2.3,59.95703478279254,2024-01-10 17h50.51.614914 -0500,
,"[-0.64, -0.4]",None,,,,,,,,,0.0,17.0,17.0,17.0,2188.4922668999934,,,,,,,,,,,,,,,,,,,,,,,,,,,,,,,,,,,,,,,,,,,,,,,,,,,,,,,,,,,,,,,,,2188.4766609999933,2188.4922668999934,2188.4922668999934,2188.975657999981,2188.992485099996,2191.475609399989,2191.47578779998,None,1.0,,,,,,nback47,1.0,2024-01-10_17h27.02.843,untitled,2023.2.3,59.95703478279254,2024-01-10 17h50.51.614914 -0500,
,"[-0.2, -0.1]",None,,,,,,,,,0.0,18.0,18.0,18.0,2191.492249999981,,,,,,,,,,,,,,,,,,,,,,,,,,,,,,,,,,,,,,,,,,,,,,,,,,,,,,,,,,,,,,,,,2191.4765213000064,2191.492249999981,2191.492249999981,2191.975660199998,2191.9922664999904,2194.4755724999995,2194.4757492000062,None,1.0,,,,,,nback47,1.0,2024-01-10_17h27.02.843,untitled,2023.2.3,59.95703478279254,2024-01-10 17h50.51.614914 -0500,
,"[0.2, -0.1]",None,,,,,,,,,0.0,19.0,19.0,19.0,2194.492163999996,,,,,,,,,,,,,,,,,,,,,,,,,,,,,,,,,,,,,,,,,,,,,,,,,,,,,,,,,,,,,,,,,2194.4764297000074,2194.492163999996,2194.492163999996,2194.975525899994,2194.992210900004,2197.475581100007,2197.475781999994,None,1.0,,,,,,nback47,1.0,2024-01-10_17h27.02.843,untitled,2023.2.3,59.95703478279254,2024-01-10 17h50.51.614914 -0500,
,"[0.2, -0.1]",None,,,,,,,,,0.0,20.0,20.0,20.0,2197.4922560999985,,,,,,,,,,,,,,,,,,,,,,,,,,,,,,,,,,,,,,,,,,,,,,,,,,,,,,,,,,,,,,,,,2197.476466699998,2197.4922560999985,2197.4922560999985,2197.975684300007,2197.992102899996,2200.475677599985,2200.475844400004,None,1.0,,,,,,nback47,1.0,2024-01-10_17h27.02.843,untitled,2023.2.3,59.95703478279254,2024-01-10 17h50.51.614914 -0500,
,"[-0.64, 0.4]",None,,,,,,,,,0.0,21.0,21.0,21.0,2200.4921876000008,,,,,,,,,,,,,,,,,,,,,,,,,,,,,,,,,,,,,,,,,,,,,,,,,,,,,,,,,,,,,,,,,2200.4764893999964,2200.4921876000008,2200.4921876000008,2200.975440099981,2200.9922113000066,2203.47542089998,2203.4755903999903,None,1.0,,,,,,nback47,1.0,2024-01-10_17h27.02.843,untitled,2023.2.3,59.95703478279254,2024-01-10 17h50.51.614914 -0500,
,"[0, 0.2]",None,,,,,,,,,0.0,22.0,22.0,22.0,2203.4920264999964,,,,,,,,,,,,,,,,,,,,,,,,,,,,,,,,,,,,,,,,,,,,,,,,,,,,,,,,,,,,,,,,,2203.4762647000025,2203.4920264999964,2203.4920264999964,2203.9755678999936,2203.992221099994,2206.475368299987,2206.475547399983,None,1.0,,,,,,nback47,1.0,2024-01-10_17h27.02.843,untitled,2023.2.3,59.95703478279254,2024-01-10 17h50.51.614914 -0500,
,"[0.64, -0.4]",None,,,,,,,,,0.0,23.0,23.0,23.0,2206.492072499997,,,,,,,,,,,,,,,,,,,,,,,,,,,,,,,,,,,,,,,,,,,,,,,,,,,,,,,,,,,,,,,,,2206.476261999982,2206.492072499997,2206.492072499997,2206.9753862999787,2206.9918386999925,2209.475316199998,2209.4754867999877,None,1.0,,,,,,nback47,1.0,2024-01-10_17h27.02.843,untitled,2023.2.3,59.95703478279254,2024-01-10 17h50.51.614914 -0500,
,"[0, 0.2]",space,,,,,,,,,0.0,24.0,24.0,24.0,2209.491848000005,,,,,,,,,,,,,,,,,,,,,,,,,,,,,,,,,,,,,,,,,,,,,,,,,,,,,,,,,,,,,,,,,2209.476216899988,2209.491848000005,2209.491848000005,2209.975240700005,2209.9919623000023,2212.475218399981,2212.475440399983,space,1.0,0.9957158000033814,None,,,,nback47,1.0,2024-01-10_17h27.02.843,untitled,2023.2.3,59.95703478279254,2024-01-10 17h50.51.614914 -0500,
,"[-0.2, 0.1]",None,,,,,,,,,0.0,25.0,25.0,25.0,2212.491864299984,,,,,,,,,,,,,,,,,,,,,,,,,,,,,,,,,,,,,,,,,,,,,,,,,,,,,,,,,,,,,,,,,2212.4762559999945,2212.491864299984,2212.491864299984,2212.975339800003,2212.992071399989,2215.475320800004,2215.475491799996,None,1.0,,,,,,nback47,1.0,2024-01-10_17h27.02.843,untitled,2023.2.3,59.95703478279254,2024-01-10 17h50.51.614914 -0500,
,"[0.3, 0]",None,,,,,,,,,0.0,26.0,26.0,26.0,2215.492005999986,,,,,,,,,,,,,,,,,,,,,,,,,,,,,,,,,,,,,,,,,,,,,,,,,,,,,,,,,,,,,,,,,2215.47615229999,2215.492005999986,2215.492005999986,2215.975171600003,2215.991953699995,2218.475141200004,2218.475309500005,None,1.0,,,,,,nback47,1.0,2024-01-10_17h27.02.843,untitled,2023.2.3,59.95703478279254,2024-01-10 17h50.51.614914 -0500,
,"[-0.2, 0.1]",space,,,,,,,,,0.0,27.0,27.0,27.0,2218.491739899997,,,,,,,,,,,,,,,,,,,,,,,,,,,,,,,,,,,,,,,,,,,,,,,,,,,,,,,,,,,,,,,,,2218.4759567999863,2218.491739899997,2218.491739899997,2218.97510739998,2218.991936799983,2221.475277099991,2221.4754402999824,space,1.0,1.1525013000064064,None,,,,nback47,1.0,2024-01-10_17h27.02.843,untitled,2023.2.3,59.95703478279254,2024-01-10 17h50.51.614914 -0500,
,"[-0.2, 0.1]",None,,,,,,,,,0.0,28.0,28.0,28.0,2221.4918063999794,,,,,,,,,,,,,,,,,,,,,,,,,,,,,,,,,,,,,,,,,,,,,,,,,,,,,,,,,,,,,,,,,2221.4763035999786,2221.4918063999794,2221.4918063999794,2221.9752457999857,2221.9917648999835,2224.475136699999,2224.475313300005,None,1.0,,,,,,nback47,1.0,2024-01-10_17h27.02.843,untitled,2023.2.3,59.95703478279254,2024-01-10 17h50.51.614914 -0500,
,"[0.2, 0.1]",None,,,,,,,,,0.0,29.0,29.0,29.0,2224.491807999992,,,,,,,,,,,,,,,,,,,,,,,,,,,,,,,,,,,,,,,,,,,,,,,,,,,,,,,,,,,,,,,,,2224.4760242000048,2224.491807999992,2224.491807999992,2224.975216299994,2224.9917205999955,2227.475097699993,2227.4752563000075,None,1.0,,,,,,nback47,1.0,2024-01-10_17h27.02.843,untitled,2023.2.3,59.95703478279254,2024-01-10 17h50.51.614914 -0500,
,"[-0.64, -0.4]",None,,,,,,,,,0.0,30.0,30.0,30.0,2227.4916459999804,,,,,,,,,,,,,,,,,,,,,,,,,,,,,,,,,,,,,,,,,,,,,,,,,,,,,,,,,,,,,,,,,2227.475867500005,2227.4916459999804,2227.4916459999804,2227.97514949998,2227.9918109999853,2230.4750544999843,2230.4752181999797,None,1.0,,,,,,nback47,1.0,2024-01-10_17h27.02.843,untitled,2023.2.3,59.95703478279254,2024-01-10 17h50.51.614914 -0500,
,"[0, -0.2]",None,,,,,,,,,0.0,31.0,31.0,31.0,2230.4915621999826,,,,,,,,,,,,,,,,,,,,,,,,,,,,,,,,,,,,,,,,,,,,,,,,,,,,,,,,,,,,,,,,,2230.475908399996,2230.4915621999826,2230.4915621999826,2230.9750341000035,2230.991527999984,2233.4749391999794,2233.47514179998,None,1.0,,,,,,nback47,1.0,2024-01-10_17h27.02.843,untitled,2023.2.3,59.95703478279254,2024-01-10 17h50.51.614914 -0500,
,"[-0.64, -0.4]",space,,,,,,,,,0.0,32.0,32.0,32.0,2233.4914970999816,,,,,,,,,,,,,,,,,,,,,,,,,,,,,,,,,,,,,,,,,,,,,,,,,,,,,,,,,,,,,,,,,2233.475857099984,2233.4914970999816,2233.4914970999816,2233.9749777999823,2233.991651999997,2236.4747725999914,2236.4749400999863,space,1.0,1.0399029000254814,None,,,,nback47,1.0,2024-01-10_17h27.02.843,untitled,2023.2.3,59.95703478279254,2024-01-10 17h50.51.614914 -0500,
,"[0.64, 0.4]",None,,,,,,,,,0.0,33.0,33.0,33.0,2236.491550000006,,,,,,,,,,,,,,,,,,,,,,,,,,,,,,,,,,,,,,,,,,,,,,,,,,,,,,,,,,,,,,,,,2236.4757188999797,2236.491550000006,2236.491550000006,2236.9748832999903,2236.991523899982,2239.474956799997,2239.475159900001,None,1.0,,,,,,nback47,1.0,2024-01-10_17h27.02.843,untitled,2023.2.3,59.95703478279254,2024-01-10 17h50.51.614914 -0500,
,"[-0.3, 0]",None,,,,,,,,,0.0,34.0,34.0,34.0,2239.491466199979,,,,,,,,,,,,,,,,,,,,,,,,,,,,,,,,,,,,,,,,,,,,,,,,,,,,,,,,,,,,,,,,,2239.4759214999794,2239.491466199979,2239.491466199979,2239.974842900003,2239.9914145999937,2242.474861099996,2242.475050399982,None,1.0,,,,,,nback47,1.0,2024-01-10_17h27.02.843,untitled,2023.2.3,59.95703478279254,2024-01-10 17h50.51.614914 -0500,
,"[0.3, 0]",None,,,,,,,,,0.0,35.0,35.0,35.0,2242.4915542999806,,,,,,,,,,,,,,,,,,,,,,,,,,,,,,,,,,,,,,,,,,,,,,,,,,,,,,,,,,,,,,,,,2242.475800799992,2242.4915542999806,2242.4915542999806,2242.9749445999914,2242.991381700005,2245.474916199979,2245.475108999992,None,1.0,,,,,,nback47,1.0,2024-01-10_17h27.02.843,untitled,2023.2.3,59.95703478279254,2024-01-10 17h50.51.614914 -0500,
,"[-0.3, 0]",space,,,,,,,,,0.0,36.0,36.0,36.0,2245.491323299997,,,,,,,,,,,,,,,,,,,,,,,,,,,,,,,,,,,,,,,,,,,,,,,,,,,,,,,,,,,,,,,,,2245.47591009998,2245.491323299997,2245.491323299997,2245.974807799997,2245.9914445999893,2248.4748775000044,2248.475077999989,space,1.0,0.8977280000108294,None,,,,nback47,1.0,2024-01-10_17h27.02.843,untitled,2023.2.3,59.95703478279254,2024-01-10 17h50.51.614914 -0500,
,"[0, -0.2]",None,,,,,,,,,0.0,37.0,37.0,37.0,2248.491401199979,,,,,,,,,,,,,,,,,,,,,,,,,,,,,,,,,,,,,,,,,,,,,,,,,,,,,,,,,,,,,,,,,2248.4760450999893,2248.491401199979,2248.491401199979,2248.9747033999884,2248.991330999997,2251.474682400003,2251.474850700004,None,1.0,,,,,,nback47,1.0,2024-01-10_17h27.02.843,untitled,2023.2.3,59.95703478279254,2024-01-10 17h50.51.614914 -0500,
,"[0.3, 0]",None,,,,,,,,,0.0,38.0,38.0,38.0,2251.491520199983,,,,,,,,,,,,,,,,,,,,,,,,,,,,,,,,,,,,,,,,,,,,,,,,,,,,,,,,,,,,,,,,,2251.475492800004,2251.491520199983,2251.491520199983,2251.974616099993,2251.9912865999795,2254.4746382999874,2254.474815499998,None,1.0,,,,,,nback47,1.0,2024-01-10_17h27.02.843,untitled,2023.2.3,59.95703478279254,2024-01-10 17h50.51.614914 -0500,
,"[0.2, 0.1]",None,,,,,,,,,0.0,39.0,39.0,39.0,2254.4913648999936,,,,,,,,,,,,,,,,,,,,,,,,,,,,,,,,,,,,,,,,,,,,,,,,,,,,,,,,,,,,,,,,,2254.475521399989,2254.4913648999936,2254.4913648999936,2254.974851999985,2254.991433399992,2257.4746358999982,2257.4748496999964,None,1.0,,,,,,nback47,1.0,2024-01-10_17h27.02.843,untitled,2023.2.3,59.95703478279254,2024-01-10 17h50.51.614914 -0500,
,,,,,,,,,,,,,,,,,,,,,,,,,,,,,,,,,,,,,,,,,,,,,,,,,,,,,,,,,,,,,,,,,,,,,,,,,,,,,,,,,,,,,,,,,,,2257.475426899997,2257.491333199985,2260.474954300007,,,,,,,,
