square,location,corrAns,trials_0.thisRepN,trials_0.thisTrialN,trials_0.thisN,trials_0.thisIndex,trials_1.thisRepN,trials_1.thisTrialN,trials_1.thisN,trials_1.thisIndex,trials_2.thisRepN,trials_2.thisTrialN,trials_2.thisN,trials_2.thisIndex,thisRow.t,notes,Instructions.started,instructions.started,key_resp.started,inst_sq11.started,Instructions.stopped,key_resp.keys,key_resp.rt,key_resp.duration,All.started,sq_1.started,sq_2.started,sq_3.started,sq_4.started,sq_5.started,sq_6.started,sq_7.started,sq_8.started,sq_9.started,sq_10.started,sq_11.started,sq_12.started,All.stopped,Fixation.started,fixation_3.started,fixation_3.stopped,Fixation.stopped,N_back_0_Trial.started,target_square_0.started,response_0.started,fixation_0.started,target_square_0.stopped,fixation_0.stopped,response_0.stopped,N_back_0_Trial.stopped,response_0.keys,response_0.corr,response_0.rt,response_0.duration,Instructions_1.started,instructions_1.started,key_resp_1.started,Instructions_1.stopped,key_resp_1.keys,key_resp_1.rt,key_resp_1.duration,N_back_1_Trial.started,target_square_1.started,response_1.started,target_square_1.stopped,fixation_1.started,fixation_1.stopped,response_1.stopped,N_back_1_Trial.stopped,response_1.keys,response_1.corr,response_1.rt,response_1.duration,Instructions_2.started,instructions_2.started,key_resp_2.started,Instructions_2.stopped,key_resp_2.keys,key_resp_2.rt,key_resp_2.duration,N_back_2_trials.started,target_square_2.started,response_2.started,target_square_2.stopped,fixation_2.started,fixation_2.stopped,response_2.stopped,N_back_2_trials.stopped,response_2.keys,response_2.corr,response_2.rt,response_2.duration,End.started,thank_you.started,thank_you.stopped,End.stopped,participant,session,date,expName,psychopyVersion,frameRate,expStart,Unnamed: 104
,,,,,,,,,,,,,,,,,0.0017077000229619,0.004235400003381,0.004235400003381,0.004235400003381,1425.6699345000088,space,1425.6551239999826,None,,,,,,,,,,,,,,,,,,,,,,,,,,,,,,,,,,,,,,,,,,,,,,,,,,,,,,,,,,,,,,,,,,,,,,,,,nback39,1.0,2023-12-19_13h47.24.408,untitled,2023.2.3,59.94754590269487,2023-12-19 14h27.49.404809 -0500,
6.0,"[-0.3, 0]",None,0.0,0.0,0.0,0.0,,,,,,,,,1427.6854540000204,,,,,,,,,,1425.6699909000308,1425.6848095000023,1425.6848095000023,1425.6848095000023,1425.6848095000023,1425.6848095000023,1425.6848095000023,1425.6848095000023,1425.6848095000023,1425.6848095000023,1425.6848095000023,1425.6848095000023,1425.6848095000023,1426.6687506000162,1426.6687716000015,1426.684794300003,1427.6854540000204,1427.6683858000324,1427.6834903000272,1427.6854540000204,1427.6854540000204,1428.1681517999968,1428.1848861000035,1430.66795979999,1430.6847022000002,1430.668311299989,None,1.0,,,,,,,,,,,,,,,,,,,,,,,,,,,,,,,,,,,,,,,,,,,,,nback39,1.0,2023-12-19_13h47.24.408,untitled,2023.2.3,59.94754590269487,2023-12-19 14h27.49.404809 -0500,
10.0,"[0, -0.2]",None,0.0,1.0,1.0,1.0,,,,,,,,,1430.6847022000002,,,,,,,,,,,,,,,,,,,,,,,,,,,,1430.6687116000105,1430.6847022000002,1430.6847022000002,1431.1682157000178,1431.184737100033,1433.6681172000244,1433.6846763000358,1433.668919100019,None,1.0,,,,,,,,,,,,,,,,,,,,,,,,,,,,,,,,,,,,,,,,,,,,,nback39,1.0,2023-12-19_13h47.24.408,untitled,2023.2.3,59.94754590269487,2023-12-19 14h27.49.404809 -0500,
11.0,"[-0.64, -0.4]",space,0.0,2.0,2.0,2.0,,,,,,,,,1433.6846763000358,,,,,,,,,,,,,,,,,,,,,,,,,,,,1433.6696597000118,1433.6846763000358,1433.6846763000358,1434.168061400007,1434.1848125000251,1436.6680595999933,1436.6846174999955,1436.668928100029,space,1.0,0.3930510999634862,None,,,,,,,,,,,,,,,,,,,,,,,,,,,,,,,,,,,,,,,,,,,nback39,1.0,2023-12-19_13h47.24.408,untitled,2023.2.3,59.94754590269487,2023-12-19 14h27.49.404809 -0500,
12.0,"[0.64, -0.4]",None,0.0,3.0,3.0,3.0,,,,,,,,,1436.6846174999955,,,,,,,,,,,,,,,,,,,,,,,,,,,,1436.6700793000057,1436.6846174999955,1436.6846174999955,1437.1680703000166,1437.1847643000074,1439.66804650001,1439.6846669000224,1439.66887340002,None,1.0,,,,,,,,,,,,,,,,,,,,,,,,,,,,,,,,,,,,,,,,,,,,,nback39,1.0,2023-12-19_13h47.24.408,untitled,2023.2.3,59.94754590269487,2023-12-19 14h27.49.404809 -0500,
1.0,"[-0.64, 0.4]",None,0.0,4.0,4.0,4.0,,,,,,,,,1439.6846669000224,,,,,,,,,,,,,,,,,,,,,,,,,,,,1439.6695814999985,1439.6846669000224,1439.6846669000224,1440.1679529999965,1440.1847151999827,1442.6680214999942,1442.6846784999943,1442.6687631999955,None,1.0,,,,,,,,,,,,,,,,,,,,,,,,,,,,,,,,,,,,,,,,,,,,,nback39,1.0,2023-12-19_13h47.24.408,untitled,2023.2.3,59.94754590269487,2023-12-19 14h27.49.404809 -0500,
1.0,"[-0.64, 0.4]",None,0.0,5.0,5.0,5.0,,,,,,,,,1442.6846784999943,,,,,,,,,,,,,,,,,,,,,,,,,,,,1442.6695470000268,1442.6846784999943,1442.6846784999943,1443.168078000017,1443.184601999994,1445.6679057999863,1445.6844916000264,1445.6688855999964,None,1.0,,,,,,,,,,,,,,,,,,,,,,,,,,,,,,,,,,,,,,,,,,,,,nback39,1.0,2023-12-19_13h47.24.408,untitled,2023.2.3,59.94754590269487,2023-12-19 14h27.49.404809 -0500,
4.0,"[-0.2, 0.1]",None,0.0,6.0,6.0,6.0,,,,,,,,,1445.6844916000264,,,,,,,,,,,,,,,,,,,,,,,,,,,,1445.6696092000348,1445.6844916000264,1445.6844916000264,1446.167932100012,1446.1846383000377,1448.6679332000203,1448.6845584000112,1448.6686756000272,None,1.0,,,,,,,,,,,,,,,,,,,,,,,,,,,,,,,,,,,,,,,,,,,,,nback39,1.0,2023-12-19_13h47.24.408,untitled,2023.2.3,59.94754590269487,2023-12-19 14h27.49.404809 -0500,
5.0,"[0.2, 0.1]",None,0.0,7.0,7.0,7.0,,,,,,,,,1448.6845584000112,,,,,,,,,,,,,,,,,,,,,,,,,,,,1448.6693807999836,1448.6845584000112,1448.6845584000112,1449.1678332000156,1449.1845573000028,1451.667673500022,1451.684467700019,1451.6683032999863,None,1.0,,,,,,,,,,,,,,,,,,,,,,,,,,,,,,,,,,,,,,,,,,,,,nback39,1.0,2023-12-19_13h47.24.408,untitled,2023.2.3,59.94754590269487,2023-12-19 14h27.49.404809 -0500,
11.0,"[-0.64, -0.4]",space,0.0,8.0,8.0,8.0,,,,,,,,,1451.684467700019,,,,,,,,,,,,,,,,,,,,,,,,,,,,1451.6686394999851,1451.684467700019,1451.684467700019,1452.1678046000306,1452.184504600009,1454.6677752000396,1454.6844350000028,1454.6688142000348,space,1.0,0.3319616999942809,None,,,,,,,,,,,,,,,,,,,,,,,,,,,,,,,,,,,,,,,,,,,nback39,1.0,2023-12-19_13h47.24.408,untitled,2023.2.3,59.94754590269487,2023-12-19 14h27.49.404809 -0500,
9.0,"[0.2, -0.1]",None,0.0,9.0,9.0,9.0,,,,,,,,,1454.6844350000028,,,,,,,,,,,,,,,,,,,,,,,,,,,,1454.669749599998,1454.6844350000028,1454.6844350000028,1455.167665200017,1455.1842906000093,1457.6675368000288,1457.6843350999989,1457.6682175000317,None,1.0,,,,,,,,,,,,,,,,,,,,,,,,,,,,,,,,,,,,,,,,,,,,,nback39,1.0,2023-12-19_13h47.24.408,untitled,2023.2.3,59.94754590269487,2023-12-19 14h27.49.404809 -0500,
8.0,"[-0.2, -0.1]",None,0.0,10.0,10.0,10.0,,,,,,,,,1457.6843350999989,,,,,,,,,,,,,,,,,,,,,,,,,,,,1457.6685974000138,1457.6843350999989,1457.6843350999989,1458.1843278000017,1458.1843278000017,1460.6843151000212,1460.6843151000212,1460.6680242000148,None,1.0,,,,,,,,,,,,,,,,,,,,,,,,,,,,,,,,,,,,,,,,,,,,,nback39,1.0,2023-12-19_13h47.24.408,untitled,2023.2.3,59.94754590269487,2023-12-19 14h27.49.404809 -0500,
9.0,"[0.2, -0.1]",None,0.0,11.0,11.0,11.0,,,,,,,,,1460.6843151000212,,,,,,,,,,,,,,,,,,,,,,,,,,,,1460.6683327000355,1460.6843151000212,1460.6843151000212,1461.1843100999831,1461.1843100999831,1463.6845581000089,1463.6845581000089,1463.668414500018,None,1.0,,,,,,,,,,,,,,,,,,,,,,,,,,,,,,,,,,,,,,,,,,,,,nback39,1.0,2023-12-19_13h47.24.408,untitled,2023.2.3,59.94754590269487,2023-12-19 14h27.49.404809 -0500,
6.0,"[-0.3, 0]",None,0.0,12.0,12.0,12.0,,,,,,,,,1463.6845581000089,,,,,,,,,,,,,,,,,,,,,,,,,,,,1463.6691281000385,1463.6845581000089,1463.6845581000089,1464.1843386000255,1464.1843386000255,1466.684213200002,1466.684213200002,1466.6683357000002,None,1.0,,,,,,,,,,,,,,,,,,,,,,,,,,,,,,,,,,,,,,,,,,,,,nback39,1.0,2023-12-19_13h47.24.408,untitled,2023.2.3,59.94754590269487,2023-12-19 14h27.49.404809 -0500,
9.0,"[0.2, -0.1]",None,0.0,13.0,13.0,13.0,,,,,,,,,1466.684213200002,,,,,,,,,,,,,,,,,,,,,,,,,,,,1466.6689664000296,1466.684213200002,1466.684213200002,1467.1842147000134,1467.1842147000134,1469.6842718999833,1469.6842718999833,1469.6685803,None,1.0,,,,,,,,,,,,,,,,,,,,,,,,,,,,,,,,,,,,,,,,,,,,,nback39,1.0,2023-12-19_13h47.24.408,untitled,2023.2.3,59.94754590269487,2023-12-19 14h27.49.404809 -0500,
7.0,"[0.3, 0]",None,0.0,14.0,14.0,14.0,,,,,,,,,1469.6842718999833,,,,,,,,,,,,,,,,,,,,,,,,,,,,1469.6694044999897,1469.6842718999833,1469.6842718999833,1470.184269200021,1470.184269200021,1472.6840954000363,1472.6840954000363,1472.6680885000387,None,1.0,,,,,,,,,,,,,,,,,,,,,,,,,,,,,,,,,,,,,,,,,,,,,nback39,1.0,2023-12-19_13h47.24.408,untitled,2023.2.3,59.94754590269487,2023-12-19 14h27.49.404809 -0500,
2.0,"[0.64, 0.4]",None,0.0,15.0,15.0,15.0,,,,,,,,,1472.6840954000363,,,,,,,,,,,,,,,,,,,,,,,,,,,,1472.66873080004,1472.6840954000363,1472.6840954000363,1473.184119099984,1473.184119099984,1475.684131600021,1475.684131600021,1475.6680617000093,None,1.0,,,,,,,,,,,,,,,,,,,,,,,,,,,,,,,,,,,,,,,,,,,,,nback39,1.0,2023-12-19_13h47.24.408,untitled,2023.2.3,59.94754590269487,2023-12-19 14h27.49.404809 -0500,
2.0,"[0.64, 0.4]",None,0.0,16.0,16.0,16.0,,,,,,,,,1475.684131600021,,,,,,,,,,,,,,,,,,,,,,,,,,,,1475.668714100029,1475.684131600021,1475.684131600021,1476.1840527000022,1476.1840527000022,1478.683910200023,1478.683910200023,1478.6680257000262,None,1.0,,,,,,,,,,,,,,,,,,,,,,,,,,,,,,,,,,,,,,,,,,,,,nback39,1.0,2023-12-19_13h47.24.408,untitled,2023.2.3,59.94754590269487,2023-12-19 14h27.49.404809 -0500,
11.0,"[-0.64, -0.4]",space,0.0,17.0,17.0,17.0,,,,,,,,,1478.683910200023,,,,,,,,,,,,,,,,,,,,,,,,,,,,1478.6686563999974,1478.683910200023,1478.683910200023,1479.1840824999963,1479.1840824999963,1481.6839945000247,1481.6839945000247,1481.668485000031,space,1.0,0.3756278000073507,None,,,,,,,,,,,,,,,,,,,,,,,,,,,,,,,,,,,,,,,,,,,nback39,1.0,2023-12-19_13h47.24.408,untitled,2023.2.3,59.94754590269487,2023-12-19 14h27.49.404809 -0500,
11.0,"[-0.64, -0.4]",space,0.0,18.0,18.0,18.0,,,,,,,,,1481.6839945000247,,,,,,,,,,,,,,,,,,,,,,,,,,,,1481.669386500027,1481.6839945000247,1481.6839945000247,1482.1839473000146,1482.1839473000146,1484.683855100011,1484.683855100011,1484.6682110999827,space,1.0,0.4722686999593861,None,,,,,,,,,,,,,,,,,,,,,,,,,,,,,,,,,,,,,,,,,,,nback39,1.0,2023-12-19_13h47.24.408,untitled,2023.2.3,59.94754590269487,2023-12-19 14h27.49.404809 -0500,
7.0,"[0.3, 0]",None,0.0,19.0,19.0,19.0,,,,,,,,,1484.683855100011,,,,,,,,,,,,,,,,,,,,,,,,,,,,1484.669038299995,1484.683855100011,1484.683855100011,1485.183933500026,1485.183933500026,1487.6840100000263,1487.6840100000263,1487.6681286999956,None,1.0,,,,,,,,,,,,,,,,,,,,,,,,,,,,,,,,,,,,,,,,,,,,,nback39,1.0,2023-12-19_13h47.24.408,untitled,2023.2.3,59.94754590269487,2023-12-19 14h27.49.404809 -0500,
3.0,"[0, 0.2]",None,0.0,20.0,20.0,20.0,,,,,,,,,1487.6840100000263,,,,,,,,,,,,,,,,,,,,,,,,,,,,1487.6688347000163,1487.6840100000263,1487.6840100000263,1488.1837231999962,1488.1837231999962,1490.683686400007,1490.683686400007,1490.667954000004,None,1.0,,,,,,,,,,,,,,,,,,,,,,,,,,,,,,,,,,,,,,,,,,,,,nback39,1.0,2023-12-19_13h47.24.408,untitled,2023.2.3,59.94754590269487,2023-12-19 14h27.49.404809 -0500,
10.0,"[0, -0.2]",None,0.0,21.0,21.0,21.0,,,,,,,,,1490.683686400007,,,,,,,,,,,,,,,,,,,,,,,,,,,,1490.6686318999857,1490.683686400007,1490.683686400007,1491.1837506000302,1491.1837506000302,1493.6837732000276,1493.6837732000276,1493.668077600014,None,1.0,,,,,,,,,,,,,,,,,,,,,,,,,,,,,,,,,,,,,,,,,,,,,nback39,1.0,2023-12-19_13h47.24.408,untitled,2023.2.3,59.94754590269487,2023-12-19 14h27.49.404809 -0500,
1.0,"[-0.64, 0.4]",None,0.0,22.0,22.0,22.0,,,,,,,,,1493.6837732000276,,,,,,,,,,,,,,,,,,,,,,,,,,,,1493.668767300027,1493.6837732000276,1493.6837732000276,1494.1837768999976,1494.1837768999976,1496.6836884000222,1496.6836884000222,1496.667559500027,None,1.0,,,,,,,,,,,,,,,,,,,,,,,,,,,,,,,,,,,,,,,,,,,,,nback39,1.0,2023-12-19_13h47.24.408,untitled,2023.2.3,59.94754590269487,2023-12-19 14h27.49.404809 -0500,
2.0,"[0.64, 0.4]",None,0.0,23.0,23.0,23.0,,,,,,,,,1496.6836884000222,,,,,,,,,,,,,,,,,,,,,,,,,,,,1496.6682510999965,1496.6836884000222,1496.6836884000222,1497.1835772999912,1497.1835772999912,1499.683490000025,1499.683490000025,1499.6678021000116,None,1.0,,,,,,,,,,,,,,,,,,,,,,,,,,,,,,,,,,,,,,,,,,,,,nback39,1.0,2023-12-19_13h47.24.408,untitled,2023.2.3,59.94754590269487,2023-12-19 14h27.49.404809 -0500,
6.0,"[-0.3, 0]",None,0.0,24.0,24.0,24.0,,,,,,,,,1499.683490000025,,,,,,,,,,,,,,,,,,,,,,,,,,,,1499.6685212000157,1499.683490000025,1499.683490000025,1500.1834814000176,1500.1834814000176,1502.6835950000095,1502.6835950000095,1502.6680448999978,None,1.0,,,,,,,,,,,,,,,,,,,,,,,,,,,,,,,,,,,,,,,,,,,,,nback39,1.0,2023-12-19_13h47.24.408,untitled,2023.2.3,59.94754590269487,2023-12-19 14h27.49.404809 -0500,
3.0,"[0, 0.2]",None,0.0,25.0,25.0,25.0,,,,,,,,,1502.6835950000095,,,,,,,,,,,,,,,,,,,,,,,,,,,,1502.6689135000345,1502.6835950000095,1502.6835950000095,1503.183673200023,1503.183673200023,1505.6835801000125,1505.6835801000125,1505.6677287000348,None,1.0,,,,,,,,,,,,,,,,,,,,,,,,,,,,,,,,,,,,,,,,,,,,,nback39,1.0,2023-12-19_13h47.24.408,untitled,2023.2.3,59.94754590269487,2023-12-19 14h27.49.404809 -0500,
11.0,"[-0.64, -0.4]",space,0.0,26.0,26.0,26.0,,,,,,,,,1505.6835801000125,,,,,,,,,,,,,,,,,,,,,,,,,,,,1505.6683490999858,1505.6835801000125,1505.6835801000125,1506.1834770999849,1506.1834770999849,1508.683578199998,1508.683578199998,1508.6680308000068,space,1.0,0.390109299973119,None,,,,,,,,,,,,,,,,,,,,,,,,,,,,,,,,,,,,,,,,,,,nback39,1.0,2023-12-19_13h47.24.408,untitled,2023.2.3,59.94754590269487,2023-12-19 14h27.49.404809 -0500,
1.0,"[-0.64, 0.4]",None,0.0,27.0,27.0,27.0,,,,,,,,,1508.683578199998,,,,,,,,,,,,,,,,,,,,,,,,,,,,1508.669028000033,1508.683578199998,1508.683578199998,1509.1835987000377,1509.1835987000377,1511.683494900004,1511.683494900004,1511.6674603000283,None,1.0,,,,,,,,,,,,,,,,,,,,,,,,,,,,,,,,,,,,,,,,,,,,,nback39,1.0,2023-12-19_13h47.24.408,untitled,2023.2.3,59.94754590269487,2023-12-19 14h27.49.404809 -0500,
3.0,"[0, 0.2]",None,0.0,28.0,28.0,28.0,,,,,,,,,1511.683494900004,,,,,,,,,,,,,,,,,,,,,,,,,,,,1511.668067599996,1511.683494900004,1511.683494900004,1512.1834780999925,1512.1834780999925,1514.683291400026,1514.683291400026,1514.6675200000172,None,1.0,,,,,,,,,,,,,,,,,,,,,,,,,,,,,,,,,,,,,,,,,,,,,nback39,1.0,2023-12-19_13h47.24.408,untitled,2023.2.3,59.94754590269487,2023-12-19 14h27.49.404809 -0500,
9.0,"[0.2, -0.1]",None,0.0,29.0,29.0,29.0,,,,,,,,,1514.683291400026,,,,,,,,,,,,,,,,,,,,,,,,,,,,1514.6681094000232,1514.683291400026,1514.683291400026,1515.1834504000144,1515.1834504000144,1517.6832223000238,1517.6832223000238,1517.66722090001,None,1.0,,,,,,,,,,,,,,,,,,,,,,,,,,,,,,,,,,,,,,,,,,,,,nback39,1.0,2023-12-19_13h47.24.408,untitled,2023.2.3,59.94754590269487,2023-12-19 14h27.49.404809 -0500,
8.0,"[-0.2, -0.1]",None,0.0,30.0,30.0,30.0,,,,,,,,,1517.6832223000238,,,,,,,,,,,,,,,,,,,,,,,,,,,,1517.6678481000126,1517.6832223000238,1517.6832223000238,1518.1834038000088,1518.1834038000088,1520.6831042999984,1520.6831042999984,1520.667335200007,None,1.0,,,,,,,,,,,,,,,,,,,,,,,,,,,,,,,,,,,,,,,,,,,,,nback39,1.0,2023-12-19_13h47.24.408,untitled,2023.2.3,59.94754590269487,2023-12-19 14h27.49.404809 -0500,
12.0,"[0.64, -0.4]",None,0.0,31.0,31.0,31.0,,,,,,,,,1520.6831042999984,,,,,,,,,,,,,,,,,,,,,,,,,,,,1520.6679441999877,1520.6831042999984,1520.6831042999984,1521.1833218000247,1521.1833218000247,1523.6832057000138,1523.6832057000138,1523.6673888000078,None,1.0,,,,,,,,,,,,,,,,,,,,,,,,,,,,,,,,,,,,,,,,,,,,,nback39,1.0,2023-12-19_13h47.24.408,untitled,2023.2.3,59.94754590269487,2023-12-19 14h27.49.404809 -0500,
9.0,"[0.2, -0.1]",None,0.0,32.0,32.0,32.0,,,,,,,,,1523.6832057000138,,,,,,,,,,,,,,,,,,,,,,,,,,,,1523.667998799996,1523.6832057000138,1523.6832057000138,1524.183145900024,1524.183145900024,1526.6830513000025,1526.6830513000025,1526.6671560000395,None,1.0,,,,,,,,,,,,,,,,,,,,,,,,,,,,,,,,,,,,,,,,,,,,,nback39,1.0,2023-12-19_13h47.24.408,untitled,2023.2.3,59.94754590269487,2023-12-19 14h27.49.404809 -0500,
11.0,"[-0.64, -0.4]",space,0.0,33.0,33.0,33.0,,,,,,,,,1526.6830513000025,,,,,,,,,,,,,,,,,,,,,,,,,,,,1526.6676965000224,1526.6830513000025,1526.6830513000025,1527.1830699000277,1527.1830699000277,1529.683202699991,1529.683202699991,1529.6672337999917,space,1.0,0.4024540000245906,None,,,,,,,,,,,,,,,,,,,,,,,,,,,,,,,,,,,,,,,,,,,nback39,1.0,2023-12-19_13h47.24.408,untitled,2023.2.3,59.94754590269487,2023-12-19 14h27.49.404809 -0500,
7.0,"[0.3, 0]",None,0.0,34.0,34.0,34.0,,,,,,,,,1529.683202699991,,,,,,,,,,,,,,,,,,,,,,,,,,,,1529.6679349000333,1529.683202699991,1529.683202699991,1530.1839896999882,1530.1839896999882,,1532.6829722000402,1532.6831260999895,None,1.0,,,,,,,,,,,,,,,,,,,,,,,,,,,,,,,,,,,,,,,,,,,,,nback39,1.0,2023-12-19_13h47.24.408,untitled,2023.2.3,59.94754590269487,2023-12-19 14h27.49.404809 -0500,
11.0,"[-0.64, -0.4]",space,0.0,35.0,35.0,35.0,,,,,,,,,1532.6997516999836,,,,,,,,,,,,,,,,,,,,,,,,,,,,1532.683744100039,1532.6997516999836,1532.6997516999836,1533.1831599000143,1533.1996863000095,1535.6830945000402,,1535.6832874999964,space,1.0,0.3772289999760687,None,,,,,,,,,,,,,,,,,,,,,,,,,,,,,,,,,,,,,,,,,,,nback39,1.0,2023-12-19_13h47.24.408,untitled,2023.2.3,59.94754590269487,2023-12-19 14h27.49.404809 -0500,
4.0,"[-0.2, 0.1]",None,0.0,36.0,36.0,36.0,,,,,,,,,1535.6995958000189,,,,,,,,,,,,,,,,,,,,,,,,,,,,1535.6841388000175,1535.6995958000189,1535.6995958000189,1536.1828823999967,1536.1996949000168,1538.6828495000373,,1538.6830093000317,None,1.0,,,,,,,,,,,,,,,,,,,,,,,,,,,,,,,,,,,,,,,,,,,,,nback39,1.0,2023-12-19_13h47.24.408,untitled,2023.2.3,59.94754590269487,2023-12-19 14h27.49.404809 -0500,
5.0,"[0.2, 0.1]",None,0.0,37.0,37.0,37.0,,,,,,,,,1538.6996362000357,,,,,,,,,,,,,,,,,,,,,,,,,,,,1538.6836777999995,1538.6996362000357,1538.6996362000357,1539.1827799000312,1539.1995277000242,1541.6827904999957,,1541.6829483000329,None,1.0,,,,,,,,,,,,,,,,,,,,,,,,,,,,,,,,,,,,,,,,,,,,,nback39,1.0,2023-12-19_13h47.24.408,untitled,2023.2.3,59.94754590269487,2023-12-19 14h27.49.404809 -0500,
6.0,"[-0.3, 0]",None,0.0,38.0,38.0,38.0,,,,,,,,,1541.6994872000068,,,,,,,,,,,,,,,,,,,,,,,,,,,,1541.683524699998,1541.6994872000068,1541.6994872000068,1542.182730200002,1542.1996349000256,1544.683008200023,,1544.6832178999905,None,1.0,,,,,,,,,,,,,,,,,,,,,,,,,,,,,,,,,,,,,,,,,,,,,nback39,1.0,2023-12-19_13h47.24.408,untitled,2023.2.3,59.94754590269487,2023-12-19 14h27.49.404809 -0500,
11.0,"[-0.64, -0.4]",space,0.0,39.0,39.0,39.0,,,,,,,,,1544.6995140000363,,,,,,,,,,,,,,,,,,,,,,,,,,,,1544.6839773000102,1544.6995140000363,1544.6995140000363,1545.1827155000065,1545.1993884000112,1547.6828064,,1547.6829863000312,space,1.0,0.3345087000052444,None,,,,,,,,,,,,,,,,,,,,,,,,,,,,,,,,,,,,,,,,,,,nback39,1.0,2023-12-19_13h47.24.408,untitled,2023.2.3,59.94754590269487,2023-12-19 14h27.49.404809 -0500,
,,,,,,,,,,,,,,,,,,,,,,,,,,,,,,,,,,,,,,,,,,,,,,,,,,,,,,,1547.683646199992,1547.6995113000155,1547.6995113000155,1555.851213100017,space,8.137787199986633,None,,,,,,,,,,,,,,,,,,,,,,,,,,,,,,,,,,,,nback39,1.0,2023-12-19_13h47.24.408,untitled,2023.2.3,59.94754590269487,2023-12-19 14h27.49.404809 -0500,
10.0,"[0, -0.2]",None,,,,,0.0,0.0,0.0,0.0,,,,,1556.865924699989,,,,,,,,,,,,,,,,,,,,,,,,1555.8512546999846,1555.8660575000104,1556.865924699989,1556.8496582999942,,,,,,,,,,,,,,,,,,,,1556.8587841999831,1556.865924699989,1556.865924699989,1557.3658588000108,1557.3658588000108,1559.8658322999836,1559.8658322999836,1559.8500719000003,None,1.0,,,,,,,,,,,,,,,,,,,,,,,,,,nback39,1.0,2023-12-19_13h47.24.408,untitled,2023.2.3,59.94754590269487,2023-12-19 14h27.49.404809 -0500,
5.0,"[0.2, 0.1]",None,,,,,0.0,1.0,1.0,1.0,,,,,1559.8658322999836,,,,,,,,,,,,,,,,,,,,,,,,,,,,,,,,,,,,,,,,,,,,,,,1559.8509862000355,1559.8658322999836,1559.8658322999836,1560.365804000001,1560.365804000001,1562.8660339000053,1562.8660339000053,1562.8502011999954,None,1.0,,,,,,,,,,,,,,,,,,,,,,,,,,nback39,1.0,2023-12-19_13h47.24.408,untitled,2023.2.3,59.94754590269487,2023-12-19 14h27.49.404809 -0500,
6.0,"[-0.3, 0]",None,,,,,0.0,2.0,2.0,2.0,,,,,1562.8660339000053,,,,,,,,,,,,,,,,,,,,,,,,,,,,,,,,,,,,,,,,,,,,,,,1562.8509157000226,1562.8660339000053,1562.8660339000053,1563.3659149000305,1563.3659149000305,1565.8657254999853,1565.8657254999853,1565.8498841000255,None,1.0,,,,,,,,,,,,,,,,,,,,,,,,,,nback39,1.0,2023-12-19_13h47.24.408,untitled,2023.2.3,59.94754590269487,2023-12-19 14h27.49.404809 -0500,
6.0,"[-0.3, 0]",space,,,,,0.0,3.0,3.0,3.0,,,,,1565.8657254999853,,,,,,,,,,,,,,,,,,,,,,,,,,,,,,,,,,,,,,,,,,,,,,,1565.8504992999951,1565.8657254999853,1565.8657254999853,1566.3659050000133,1566.3659050000133,1568.865784500027,1568.865784500027,1568.8499713999918,space,1.0,0.3110109999543056,None,,,,,,,,,,,,,,,,,,,,,,,,nback39,1.0,2023-12-19_13h47.24.408,untitled,2023.2.3,59.94754590269487,2023-12-19 14h27.49.404809 -0500,
12.0,"[0.64, -0.4]",None,,,,,0.0,4.0,4.0,4.0,,,,,1568.865784500027,,,,,,,,,,,,,,,,,,,,,,,,,,,,,,,,,,,,,,,,,,,,,,,1568.8508715000353,1568.865784500027,1568.865784500027,1569.365820100007,1569.365820100007,1571.8657032999909,1571.8657032999909,1571.849915800034,None,1.0,,,,,,,,,,,,,,,,,,,,,,,,,,nback39,1.0,2023-12-19_13h47.24.408,untitled,2023.2.3,59.94754590269487,2023-12-19 14h27.49.404809 -0500,
10.0,"[0, -0.2]",None,,,,,0.0,5.0,5.0,5.0,,,,,1571.8657032999909,,,,,,,,,,,,,,,,,,,,,,,,,,,,,,,,,,,,,,,,,,,,,,,1571.8505596999894,1571.8657032999909,1571.8657032999909,1572.3656910000136,1572.3656910000136,1574.865676300018,1574.865676300018,1574.8499943999925,None,1.0,,,,,,,,,,,,,,,,,,,,,,,,,,nback39,1.0,2023-12-19_13h47.24.408,untitled,2023.2.3,59.94754590269487,2023-12-19 14h27.49.404809 -0500,
2.0,"[0.64, 0.4]",None,,,,,0.0,6.0,6.0,6.0,,,,,1574.865676300018,,,,,,,,,,,,,,,,,,,,,,,,,,,,,,,,,,,,,,,,,,,,,,,1574.8508396000252,1574.865676300018,1574.865676300018,1575.3656039999914,1575.3656039999914,1577.8655846000183,1577.8655846000183,1577.84980190004,None,1.0,,,,,,,,,,,,,,,,,,,,,,,,,,nback39,1.0,2023-12-19_13h47.24.408,untitled,2023.2.3,59.94754590269487,2023-12-19 14h27.49.404809 -0500,
9.0,"[0.2, -0.1]",None,,,,,0.0,7.0,7.0,7.0,,,,,1577.8655846000183,,,,,,,,,,,,,,,,,,,,,,,,,,,,,,,,,,,,,,,,,,,,,,,1577.8504958000267,1577.8655846000183,1577.8655846000183,1578.3655904000043,1578.3655904000043,1580.865626499988,1580.865626499988,1580.849832899985,None,1.0,,,,,,,,,,,,,,,,,,,,,,,,,,nback39,1.0,2023-12-19_13h47.24.408,untitled,2023.2.3,59.94754590269487,2023-12-19 14h27.49.404809 -0500,
9.0,"[0.2, -0.1]",space,,,,,0.0,8.0,8.0,8.0,,,,,1580.865626499988,,,,,,,,,,,,,,,,,,,,,,,,,,,,,,,,,,,,,,,,,,,,,,,1580.8504859000095,1580.865626499988,1580.865626499988,1581.3655425999896,1581.3655425999896,1583.8656845000223,1583.8656845000223,1583.8499964000075,space,1.0,0.3074736999697052,None,,,,,,,,,,,,,,,,,,,,,,,,nback39,1.0,2023-12-19_13h47.24.408,untitled,2023.2.3,59.94754590269487,2023-12-19 14h27.49.404809 -0500,
6.0,"[-0.3, 0]",None,,,,,0.0,9.0,9.0,9.0,,,,,1583.8656845000223,,,,,,,,,,,,,,,,,,,,,,,,,,,,,,,,,,,,,,,,,,,,,,,1583.8510031999904,1583.8656845000223,1583.8656845000223,1584.3656207000022,1584.3656207000022,1586.8654178000288,1586.8654178000288,1586.8497234000242,None,1.0,,,,,,,,,,,,,,,,,,,,,,,,,,nback39,1.0,2023-12-19_13h47.24.408,untitled,2023.2.3,59.94754590269487,2023-12-19 14h27.49.404809 -0500,
11.0,"[-0.64, -0.4]",None,,,,,0.0,10.0,10.0,10.0,,,,,1586.8654178000288,,,,,,,,,,,,,,,,,,,,,,,,,,,,,,,,,,,,,,,,,,,,,,,1586.850465000025,1586.8654178000288,1586.8654178000288,1587.3655712000327,1587.3655712000327,1589.86528800003,1589.86528800003,1589.8495630000252,None,1.0,,,,,,,,,,,,,,,,,,,,,,,,,,nback39,1.0,2023-12-19_13h47.24.408,untitled,2023.2.3,59.94754590269487,2023-12-19 14h27.49.404809 -0500,
11.0,"[-0.64, -0.4]",space,,,,,0.0,11.0,11.0,11.0,,,,,1589.86528800003,,,,,,,,,,,,,,,,,,,,,,,,,,,,,,,,,,,,,,,,,,,,,,,1589.8503202000284,1589.86528800003,1589.86528800003,1590.3654649000382,1590.3654649000382,1592.8653831999982,1592.8653831999982,1592.8496241000248,space,1.0,0.3240406999830156,None,,,,,,,,,,,,,,,,,,,,,,,,nback39,1.0,2023-12-19_13h47.24.408,untitled,2023.2.3,59.94754590269487,2023-12-19 14h27.49.404809 -0500,
4.0,"[-0.2, 0.1]",None,,,,,0.0,12.0,12.0,12.0,,,,,1592.8653831999982,,,,,,,,,,,,,,,,,,,,,,,,,,,,,,,,,,,,,,,,,,,,,,,1592.8503615999944,1592.8653831999982,1592.8653831999982,1593.3653789000236,1593.3653789000236,1595.8653619000106,1595.8653619000106,1595.8497097000363,None,1.0,,,,,,,,,,,,,,,,,,,,,,,,,,nback39,1.0,2023-12-19_13h47.24.408,untitled,2023.2.3,59.94754590269487,2023-12-19 14h27.49.404809 -0500,
3.0,"[0, 0.2]",None,,,,,0.0,13.0,13.0,13.0,,,,,1595.8653619000106,,,,,,,,,,,,,,,,,,,,,,,,,,,,,,,,,,,,,,,,,,,,,,,1595.85045670002,1595.8653619000106,1595.8653619000106,1596.3653403000208,1596.3653403000208,1598.8653703000164,1598.8653703000164,1598.8496826000046,None,1.0,,,,,,,,,,,,,,,,,,,,,,,,,,nback39,1.0,2023-12-19_13h47.24.408,untitled,2023.2.3,59.94754590269487,2023-12-19 14h27.49.404809 -0500,
3.0,"[0, 0.2]",space,,,,,0.0,14.0,14.0,14.0,,,,,1598.8653703000164,,,,,,,,,,,,,,,,,,,,,,,,,,,,,,,,,,,,,,,,,,,,,,,1598.8504956000252,1598.8653703000164,1598.8653703000164,1599.3653044000384,1599.3653044000384,1601.865118900023,1601.865118900023,1601.8494884000393,space,1.0,0.4122565999859944,None,,,,,,,,,,,,,,,,,,,,,,,,nback39,1.0,2023-12-19_13h47.24.408,untitled,2023.2.3,59.94754590269487,2023-12-19 14h27.49.404809 -0500,
8.0,"[-0.2, -0.1]",None,,,,,0.0,15.0,15.0,15.0,,,,,1601.865118900023,,,,,,,,,,,,,,,,,,,,,,,,,,,,,,,,,,,,,,,,,,,,,,,1601.8501364000258,1601.865118900023,1601.865118900023,1602.365139200003,1602.365139200003,1604.8653266000329,1604.8653266000329,1604.8492766999989,None,1.0,,,,,,,,,,,,,,,,,,,,,,,,,,nback39,1.0,2023-12-19_13h47.24.408,untitled,2023.2.3,59.94754590269487,2023-12-19 14h27.49.404809 -0500,
1.0,"[-0.64, 0.4]",None,,,,,0.0,16.0,16.0,16.0,,,,,1604.8653266000329,,,,,,,,,,,,,,,,,,,,,,,,,,,,,,,,,,,,,,,,,,,,,,,1604.8499294000212,1604.8653266000329,1604.8653266000329,1605.3650740000303,1605.3650740000303,1607.8649968000243,1607.8649968000243,1607.8493655000348,None,1.0,,,,,,,,,,,,,,,,,,,,,,,,,,nback39,1.0,2023-12-19_13h47.24.408,untitled,2023.2.3,59.94754590269487,2023-12-19 14h27.49.404809 -0500,
2.0,"[0.64, 0.4]",None,,,,,0.0,17.0,17.0,17.0,,,,,1607.8649968000243,,,,,,,,,,,,,,,,,,,,,,,,,,,,,,,,,,,,,,,,,,,,,,,1607.849952300021,1607.8649968000243,1607.8649968000243,1608.3650474000024,1608.3650474000024,1610.8651175000125,1610.8651175000125,1610.8492256000172,None,1.0,,,,,,,,,,,,,,,,,,,,,,,,,,nback39,1.0,2023-12-19_13h47.24.408,untitled,2023.2.3,59.94754590269487,2023-12-19 14h27.49.404809 -0500,
4.0,"[-0.2, 0.1]",None,,,,,0.0,18.0,18.0,18.0,,,,,1610.8651175000125,,,,,,,,,,,,,,,,,,,,,,,,,,,,,,,,,,,,,,,,,,,,,,,1610.8498395000352,1610.8651175000125,1610.8651175000125,1611.365065400023,1611.365065400023,1613.864987600013,1613.864987600013,1613.8491965000285,space,0.0,0.3466279999702237,None,,,,,,,,,,,,,,,,,,,,,,,,nback39,1.0,2023-12-19_13h47.24.408,untitled,2023.2.3,59.94754590269487,2023-12-19 14h27.49.404809 -0500,
4.0,"[-0.2, 0.1]",space,,,,,0.0,19.0,19.0,19.0,,,,,1613.864987600013,,,,,,,,,,,,,,,,,,,,,,,,,,,,,,,,,,,,,,,,,,,,,,,1613.8499003000325,1613.864987600013,1613.864987600013,1614.3651481000124,1614.3651481000124,1616.8647640999989,1616.8647640999989,1616.849223600002,None,0.0,,,,,,,,,,,,,,,,,,,,,,,,,,nback39,1.0,2023-12-19_13h47.24.408,untitled,2023.2.3,59.94754590269487,2023-12-19 14h27.49.404809 -0500,
8.0,"[-0.2, -0.1]",None,,,,,0.0,20.0,20.0,20.0,,,,,1616.8647640999989,,,,,,,,,,,,,,,,,,,,,,,,,,,,,,,,,,,,,,,,,,,,,,,1616.850031100039,1616.8647640999989,1616.8647640999989,1617.3649567000102,1617.3649567000102,1619.8650412000134,1619.8650412000134,1619.8492903999868,None,1.0,,,,,,,,,,,,,,,,,,,,,,,,,,nback39,1.0,2023-12-19_13h47.24.408,untitled,2023.2.3,59.94754590269487,2023-12-19 14h27.49.404809 -0500,
5.0,"[0.2, 0.1]",None,,,,,0.0,21.0,21.0,21.0,,,,,1619.8650412000134,,,,,,,,,,,,,,,,,,,,,,,,,,,,,,,,,,,,,,,,,,,,,,,1619.8500112000038,1619.8650412000134,1619.8650412000134,1620.364792899985,1620.364792899985,1622.864674600016,1622.864674600016,1622.8487331999931,None,1.0,,,,,,,,,,,,,,,,,,,,,,,,,,nback39,1.0,2023-12-19_13h47.24.408,untitled,2023.2.3,59.94754590269487,2023-12-19 14h27.49.404809 -0500,
5.0,"[0.2, 0.1]",space,,,,,0.0,22.0,22.0,22.0,,,,,1622.864674600016,,,,,,,,,,,,,,,,,,,,,,,,,,,,,,,,,,,,,,,,,,,,,,,1622.849160199985,1622.864674600016,1622.864674600016,1623.364768700034,1623.364768700034,1625.8650052000305,1625.8650052000305,1625.849050800025,space,1.0,0.3481616999488324,None,,,,,,,,,,,,,,,,,,,,,,,,nback39,1.0,2023-12-19_13h47.24.408,untitled,2023.2.3,59.94754590269487,2023-12-19 14h27.49.404809 -0500,
1.0,"[-0.64, 0.4]",None,,,,,0.0,23.0,23.0,23.0,,,,,1625.8650052000305,,,,,,,,,,,,,,,,,,,,,,,,,,,,,,,,,,,,,,,,,,,,,,,1625.850020200014,1625.8650052000305,1625.8650052000305,1626.3646146000249,1626.3646146000249,1628.86454520002,1628.86454520002,1628.849049600016,None,1.0,,,,,,,,,,,,,,,,,,,,,,,,,,nback39,1.0,2023-12-19_13h47.24.408,untitled,2023.2.3,59.94754590269487,2023-12-19 14h27.49.404809 -0500,
3.0,"[0, 0.2]",None,,,,,0.0,24.0,24.0,24.0,,,,,1628.86454520002,,,,,,,,,,,,,,,,,,,,,,,,,,,,,,,,,,,,,,,,,,,,,,,1628.8498314000317,1628.86454520002,1628.86454520002,1629.3646760000263,1629.3646760000263,1631.8648548999918,1631.8648548999918,1631.8489319999935,None,1.0,,,,,,,,,,,,,,,,,,,,,,,,,,nback39,1.0,2023-12-19_13h47.24.408,untitled,2023.2.3,59.94754590269487,2023-12-19 14h27.49.404809 -0500,
6.0,"[-0.3, 0]",None,,,,,0.0,25.0,25.0,25.0,,,,,1631.8648548999918,,,,,,,,,,,,,,,,,,,,,,,,,,,,,,,,,,,,,,,,,,,,,,,1631.8497510000016,1631.8648548999918,1631.8648548999918,1632.3648007999873,1632.3648007999873,1634.8645897000097,1634.8645897000097,1634.8486675000167,None,1.0,,,,,,,,,,,,,,,,,,,,,,,,,,nback39,1.0,2023-12-19_13h47.24.408,untitled,2023.2.3,59.94754590269487,2023-12-19 14h27.49.404809 -0500,
1.0,"[-0.64, 0.4]",None,,,,,0.0,26.0,26.0,26.0,,,,,1634.8645897000097,,,,,,,,,,,,,,,,,,,,,,,,,,,,,,,,,,,,,,,,,,,,,,,1634.8492835999932,1634.8645897000097,1634.8645897000097,1635.3645579000004,1635.3645579000004,1637.8643308000171,1637.8643308000171,1637.848743700015,None,1.0,,,,,,,,,,,,,,,,,,,,,,,,,,nback39,1.0,2023-12-19_13h47.24.408,untitled,2023.2.3,59.94754590269487,2023-12-19 14h27.49.404809 -0500,
1.0,"[-0.64, 0.4]",space,,,,,0.0,27.0,27.0,27.0,,,,,1637.8643308000171,,,,,,,,,,,,,,,,,,,,,,,,,,,,,,,,,,,,,,,,,,,,,,,1637.849480200035,1637.8643308000171,1637.8643308000171,1638.3647158000383,1638.3647158000383,1640.8645267999964,1640.8645267999964,1640.848613500013,space,1.0,0.5465910999919288,None,,,,,,,,,,,,,,,,,,,,,,,,nback39,1.0,2023-12-19_13h47.24.408,untitled,2023.2.3,59.94754590269487,2023-12-19 14h27.49.404809 -0500,
1.0,"[-0.64, 0.4]",space,,,,,0.0,28.0,28.0,28.0,,,,,1640.8645267999964,,,,,,,,,,,,,,,,,,,,,,,,,,,,,,,,,,,,,,,,,,,,,,,1640.8494052999886,1640.8645267999964,1640.8645267999964,1641.3642843000123,1641.3642843000123,1643.864476000017,1643.864476000017,1643.848505300004,None,0.0,,,,,,,,,,,,,,,,,,,,,,,,,,nback39,1.0,2023-12-19_13h47.24.408,untitled,2023.2.3,59.94754590269487,2023-12-19 14h27.49.404809 -0500,
3.0,"[0, 0.2]",None,,,,,0.0,29.0,29.0,29.0,,,,,1643.864476000017,,,,,,,,,,,,,,,,,,,,,,,,,,,,,,,,,,,,,,,,,,,,,,,1643.849121999985,1643.864476000017,1643.864476000017,1644.3642859000247,1644.3642859000247,1646.8643958999892,1646.8643958999892,1646.8483641000348,None,1.0,,,,,,,,,,,,,,,,,,,,,,,,,,nback39,1.0,2023-12-19_13h47.24.408,untitled,2023.2.3,59.94754590269487,2023-12-19 14h27.49.404809 -0500,
12.0,"[0.64, -0.4]",None,,,,,0.0,30.0,30.0,30.0,,,,,1646.8643958999892,,,,,,,,,,,,,,,,,,,,,,,,,,,,,,,,,,,,,,,,,,,,,,,1646.848962499993,1646.8643958999892,1646.8643958999892,1647.3642961999867,1647.3642961999867,1649.864388499991,1649.864388499991,1649.8485607000184,None,1.0,,,,,,,,,,,,,,,,,,,,,,,,,,nback39,1.0,2023-12-19_13h47.24.408,untitled,2023.2.3,59.94754590269487,2023-12-19 14h27.49.404809 -0500,
12.0,"[0.64, -0.4]",space,,,,,0.0,31.0,31.0,31.0,,,,,1649.864388499991,,,,,,,,,,,,,,,,,,,,,,,,,,,,,,,,,,,,,,,,,,,,,,,1649.849238800001,1649.864388499991,1649.864388499991,1650.3644113999908,1650.3644113999908,1652.8642878000392,1652.8642878000392,1652.8482271000394,space,1.0,0.3479756999877281,None,,,,,,,,,,,,,,,,,,,,,,,,nback39,1.0,2023-12-19_13h47.24.408,untitled,2023.2.3,59.94754590269487,2023-12-19 14h27.49.404809 -0500,
2.0,"[0.64, 0.4]",None,,,,,0.0,32.0,32.0,32.0,,,,,1652.8642878000392,,,,,,,,,,,,,,,,,,,,,,,,,,,,,,,,,,,,,,,,,,,,,,,1652.8488996000378,1652.8642878000392,1652.8642878000392,1653.364369900024,1653.364369900024,1655.8642356999917,1655.8642356999917,1655.8484215000062,None,1.0,,,,,,,,,,,,,,,,,,,,,,,,,,nback39,1.0,2023-12-19_13h47.24.408,untitled,2023.2.3,59.94754590269487,2023-12-19 14h27.49.404809 -0500,
1.0,"[-0.64, 0.4]",None,,,,,0.0,33.0,33.0,33.0,,,,,1655.8642356999917,,,,,,,,,,,,,,,,,,,,,,,,,,,,,,,,,,,,,,,,,,,,,,,1655.849072200013,1655.8642356999917,1655.8642356999917,1656.3643553000293,1656.3643553000293,1658.8641095000205,1658.8641095000205,1658.848478800035,None,1.0,,,,,,,,,,,,,,,,,,,,,,,,,,nback39,1.0,2023-12-19_13h47.24.408,untitled,2023.2.3,59.94754590269487,2023-12-19 14h27.49.404809 -0500,
7.0,"[0.3, 0]",None,,,,,0.0,34.0,34.0,34.0,,,,,1658.8641095000205,,,,,,,,,,,,,,,,,,,,,,,,,,,,,,,,,,,,,,,,,,,,,,,1658.8492881000277,1658.8641095000205,1658.8641095000205,1659.3643119999906,1659.3643119999906,1661.864311799989,1661.864311799989,1661.8484044999932,None,1.0,,,,,,,,,,,,,,,,,,,,,,,,,,nback39,1.0,2023-12-19_13h47.24.408,untitled,2023.2.3,59.94754590269487,2023-12-19 14h27.49.404809 -0500,
7.0,"[0.3, 0]",space,,,,,0.0,35.0,35.0,35.0,,,,,1661.864311799989,,,,,,,,,,,,,,,,,,,,,,,,,,,,,,,,,,,,,,,,,,,,,,,1661.849169299996,1661.864311799989,1661.864311799989,1662.3641955000348,1662.3641955000348,1664.8641897999914,1664.8641897999914,1664.8482278999873,space,1.0,0.3373214000021107,None,,,,,,,,,,,,,,,,,,,,,,,,nback39,1.0,2023-12-19_13h47.24.408,untitled,2023.2.3,59.94754590269487,2023-12-19 14h27.49.404809 -0500,
11.0,"[-0.64, -0.4]",None,,,,,0.0,36.0,36.0,36.0,,,,,1664.8641897999914,,,,,,,,,,,,,,,,,,,,,,,,,,,,,,,,,,,,,,,,,,,,,,,1664.848929500033,1664.8641897999914,1664.8641897999914,1665.3641369999968,1665.3641369999968,1667.864069800009,1667.864069800009,1667.848205199989,None,1.0,,,,,,,,,,,,,,,,,,,,,,,,,,nback39,1.0,2023-12-19_13h47.24.408,untitled,2023.2.3,59.94754590269487,2023-12-19 14h27.49.404809 -0500,
2.0,"[0.64, 0.4]",None,,,,,0.0,37.0,37.0,37.0,,,,,1667.864069800009,,,,,,,,,,,,,,,,,,,,,,,,,,,,,,,,,,,,,,,,,,,,,,,1667.848798800027,1667.864069800009,1667.864069800009,1668.3641502000391,1668.3641502000391,1670.864107800007,1670.864107800007,1670.847876499989,None,1.0,,,,,,,,,,,,,,,,,,,,,,,,,,nback39,1.0,2023-12-19_13h47.24.408,untitled,2023.2.3,59.94754590269487,2023-12-19 14h27.49.404809 -0500,
6.0,"[-0.3, 0]",None,,,,,0.0,38.0,38.0,38.0,,,,,1670.864107800007,,,,,,,,,,,,,,,,,,,,,,,,,,,,,,,,,,,,,,,,,,,,,,,1670.8485628000344,1670.864107800007,1670.864107800007,1671.3639642000198,1671.3639642000198,1673.863985300006,1673.863985300006,1673.8479322000055,None,1.0,,,,,,,,,,,,,,,,,,,,,,,,,,nback39,1.0,2023-12-19_13h47.24.408,untitled,2023.2.3,59.94754590269487,2023-12-19 14h27.49.404809 -0500,
10.0,"[0, -0.2]",None,,,,,0.0,39.0,39.0,39.0,,,,,1673.863985300006,,,,,,,,,,,,,,,,,,,,,,,,,,,,,,,,,,,,,,,,,,,,,,,1673.8485391000286,1673.863985300006,1673.863985300006,1674.3640030000242,1674.3640030000242,1676.8640045000357,1676.8640045000357,1676.8479669000371,None,1.0,,,,,,,,,,,,,,,,,,,,,,,,,,nback39,1.0,2023-12-19_13h47.24.408,untitled,2023.2.3,59.94754590269487,2023-12-19 14h27.49.404809 -0500,
,,,,,,,,,,,,,,,,,,,,,,,,,,,,,,,,,,,,,,,,,,,,,,,,,,,,,,,,,,,,,,,,,,,,,,,,,,1676.8483811999904,1676.8640045000357,1676.8640045000357,1692.1155279999948,space,15.249834300018849,None,,,,,,,,,,,,,,,,,nback39,1.0,2023-12-19_13h47.24.408,untitled,2023.2.3,59.94754590269487,2023-12-19 14h27.49.404809 -0500,
,"[0.2, 0.1]",None,,,,,,,,,0.0,0.0,0.0,0.0,1693.130327299994,,,,,,,,,,,,,,,,,,,,,,,,1692.1155747000012,1692.130313600006,1693.130327299994,1693.1142437999952,,,,,,,,,,,,,,,,,,,,,,,,,,,,,,,,,,,,,,,1693.124233599985,1693.130327299994,1693.130327299994,1693.6303183999844,1693.6303183999844,1696.1302095000285,1696.1302095000285,1696.1147093999898,None,1.0,,,,,,,nback39,1.0,2023-12-19_13h47.24.408,untitled,2023.2.3,59.94754590269487,2023-12-19 14h27.49.404809 -0500,
,"[0.64, 0.4]",None,,,,,,,,,0.0,1.0,1.0,1.0,1696.1302095000285,,,,,,,,,,,,,,,,,,,,,,,,,,,,,,,,,,,,,,,,,,,,,,,,,,,,,,,,,,,,,,,,,,1696.1157010000315,1696.1302095000285,1696.1302095000285,1696.6301749999984,1696.6301749999984,1699.130301600031,1699.130301600031,1699.1145034999936,None,1.0,,,,,,,nback39,1.0,2023-12-19_13h47.24.408,untitled,2023.2.3,59.94754590269487,2023-12-19 14h27.49.404809 -0500,
,"[-0.3, 0]",None,,,,,,,,,0.0,2.0,2.0,2.0,1699.130301600031,,,,,,,,,,,,,,,,,,,,,,,,,,,,,,,,,,,,,,,,,,,,,,,,,,,,,,,,,,,,,,,,,,1699.115297499986,1699.130301600031,1699.130301600031,1699.630282099999,1699.630282099999,1702.1300477000186,1702.1300477000186,1702.1142279999913,None,1.0,,,,,,,nback39,1.0,2023-12-19_13h47.24.408,untitled,2023.2.3,59.94754590269487,2023-12-19 14h27.49.404809 -0500,
,"[0.2, -0.1]",None,,,,,,,,,0.0,3.0,3.0,3.0,1702.1300477000186,,,,,,,,,,,,,,,,,,,,,,,,,,,,,,,,,,,,,,,,,,,,,,,,,,,,,,,,,,,,,,,,,,1702.1148377000354,1702.1300477000186,1702.1300477000186,1702.6301389000146,1702.6301389000146,1705.130068099999,1705.130068099999,1705.1141111000325,None,1.0,,,,,,,nback39,1.0,2023-12-19_13h47.24.408,untitled,2023.2.3,59.94754590269487,2023-12-19 14h27.49.404809 -0500,
,"[0, 0.2]",None,,,,,,,,,0.0,4.0,4.0,4.0,1705.130068099999,,,,,,,,,,,,,,,,,,,,,,,,,,,,,,,,,,,,,,,,,,,,,,,,,,,,,,,,,,,,,,,,,,1705.1147669000202,1705.130068099999,1705.130068099999,1705.6300781000173,1705.6300781000173,1708.130055000016,1708.130055000016,1708.1139284000385,None,1.0,,,,,,,nback39,1.0,2023-12-19_13h47.24.408,untitled,2023.2.3,59.94754590269487,2023-12-19 14h27.49.404809 -0500,
,"[0.2, -0.1]",space,,,,,,,,,0.0,5.0,5.0,5.0,1708.130055000016,,,,,,,,,,,,,,,,,,,,,,,,,,,,,,,,,,,,,,,,,,,,,,,,,,,,,,,,,,,,,,,,,,1708.1144906000118,1708.130055000016,1708.130055000016,1708.63000569999,1708.63000569999,1711.129924800014,1711.129924800014,1711.1143237000215,space,1.0,0.3679883999866433,None,,,,,nback39,1.0,2023-12-19_13h47.24.408,untitled,2023.2.3,59.94754590269487,2023-12-19 14h27.49.404809 -0500,
,"[0, -0.2]",None,,,,,,,,,0.0,6.0,6.0,6.0,1711.129924800014,,,,,,,,,,,,,,,,,,,,,,,,,,,,,,,,,,,,,,,,,,,,,,,,,,,,,,,,,,,,,,,,,,1711.115254000004,1711.129924800014,1711.129924800014,1711.6301362999948,1711.6301362999948,1714.1298977000406,1714.1298977000406,1714.114137800003,None,1.0,,,,,,,nback39,1.0,2023-12-19_13h47.24.408,untitled,2023.2.3,59.94754590269487,2023-12-19 14h27.49.404809 -0500,
,"[0.64, -0.4]",None,,,,,,,,,0.0,7.0,7.0,7.0,1714.1298977000406,,,,,,,,,,,,,,,,,,,,,,,,,,,,,,,,,,,,,,,,,,,,,,,,,,,,,,,,,,,,,,,,,,1714.1148942,1714.1298977000406,1714.1298977000406,1714.6301850000164,1714.6301850000164,1717.130054600013,1717.130054600013,1717.114117900026,None,1.0,,,,,,,nback39,1.0,2023-12-19_13h47.24.408,untitled,2023.2.3,59.94754590269487,2023-12-19 14h27.49.404809 -0500,
,"[0.3, 0]",None,,,,,,,,,0.0,8.0,8.0,8.0,1717.130054600013,,,,,,,,,,,,,,,,,,,,,,,,,,,,,,,,,,,,,,,,,,,,,,,,,,,,,,,,,,,,,,,,,,1717.1148629999952,1717.130054600013,1717.130054600013,1717.62985810003,1717.62985810003,1720.1296995999874,1720.1296995999874,1720.1141072000028,None,1.0,,,,,,,nback39,1.0,2023-12-19_13h47.24.408,untitled,2023.2.3,59.94754590269487,2023-12-19 14h27.49.404809 -0500,
,"[0.64, -0.4]",space,,,,,,,,,0.0,9.0,9.0,9.0,1720.1296995999874,,,,,,,,,,,,,,,,,,,,,,,,,,,,,,,,,,,,,,,,,,,,,,,,,,,,,,,,,,,,,,,,,,1720.114753300033,1720.1296995999874,1720.1296995999874,1720.6296515000286,1720.6296515000286,1723.1298064999864,1723.1298064999864,1723.1133272000006,space,1.0,0.3780810000025667,None,,,,,nback39,1.0,2023-12-19_13h47.24.408,untitled,2023.2.3,59.94754590269487,2023-12-19 14h27.49.404809 -0500,
,"[-0.64, 0.4]",None,,,,,,,,,0.0,10.0,10.0,10.0,1723.1298064999864,,,,,,,,,,,,,,,,,,,,,,,,,,,,,,,,,,,,,,,,,,,,,,,,,,,,,,,,,,,,,,,,,,1723.113697600027,1723.1298064999864,1723.1298064999864,1723.6299009000068,1723.6299009000068,1726.1297816000297,1726.1297816000297,1726.1140152000007,None,1.0,,,,,,,nback39,1.0,2023-12-19_13h47.24.408,untitled,2023.2.3,59.94754590269487,2023-12-19 14h27.49.404809 -0500,
,"[0.2, 0.1]",None,,,,,,,,,0.0,11.0,11.0,11.0,1726.1297816000297,,,,,,,,,,,,,,,,,,,,,,,,,,,,,,,,,,,,,,,,,,,,,,,,,,,,,,,,,,,,,,,,,,1726.1147091999885,1726.1297816000297,1726.1297816000297,1726.6297185000149,1726.6297185000149,1729.1296885000193,1729.1296885000193,1729.1139780000085,None,1.0,,,,,,,nback39,1.0,2023-12-19_13h47.24.408,untitled,2023.2.3,59.94754590269487,2023-12-19 14h27.49.404809 -0500,
,"[0.3, 0]",None,,,,,,,,,0.0,12.0,12.0,12.0,1729.1296885000193,,,,,,,,,,,,,,,,,,,,,,,,,,,,,,,,,,,,,,,,,,,,,,,,,,,,,,,,,,,,,,,,,,1729.1146449000223,1729.1296885000193,1729.1296885000193,1729.6296594000305,1729.6296594000305,1732.1297243000008,1732.1297243000008,1732.1137997999904,None,1.0,,,,,,,nback39,1.0,2023-12-19_13h47.24.408,untitled,2023.2.3,59.94754590269487,2023-12-19 14h27.49.404809 -0500,
,"[0.2, 0.1]",space,,,,,,,,,0.0,13.0,13.0,13.0,1732.1297243000008,,,,,,,,,,,,,,,,,,,,,,,,,,,,,,,,,,,,,,,,,,,,,,,,,,,,,,,,,,,,,,,,,,1732.1144635000385,1732.1297243000008,1732.1297243000008,1732.6296015999978,1732.6296015999978,1735.1294259999995,1735.1294259999995,1735.1133066000184,space,1.0,0.2903519000392407,None,,,,,nback39,1.0,2023-12-19_13h47.24.408,untitled,2023.2.3,59.94754590269487,2023-12-19 14h27.49.404809 -0500,
,"[-0.3, 0]",None,,,,,,,,,0.0,14.0,14.0,14.0,1735.1294259999995,,,,,,,,,,,,,,,,,,,,,,,,,,,,,,,,,,,,,,,,,,,,,,,,,,,,,,,,,,,,,,,,,,1735.1138096000068,1735.1294259999995,1735.1294259999995,1735.6297100000083,1735.6297100000083,1738.1295866,1738.1295866,1738.113899399992,None,1.0,,,,,,,nback39,1.0,2023-12-19_13h47.24.408,untitled,2023.2.3,59.94754590269487,2023-12-19 14h27.49.404809 -0500,
,"[0, 0.2]",None,,,,,,,,,0.0,15.0,15.0,15.0,1738.1295866,,,,,,,,,,,,,,,,,,,,,,,,,,,,,,,,,,,,,,,,,,,,,,,,,,,,,,,,,,,,,,,,,,1738.1146710999892,1738.1295866,1738.1295866,1738.6294842000352,1738.6294842000352,1741.1294179999968,1741.1294179999968,1741.1134743000148,None,1.0,,,,,,,nback39,1.0,2023-12-19_13h47.24.408,untitled,2023.2.3,59.94754590269487,2023-12-19 14h27.49.404809 -0500,
,"[-0.3, 0]",space,,,,,,,,,0.0,16.0,16.0,16.0,1741.1294179999968,,,,,,,,,,,,,,,,,,,,,,,,,,,,,,,,,,,,,,,,,,,,,,,,,,,,,,,,,,,,,,,,,,1741.1141260000295,1741.1294179999968,1741.1294179999968,1741.629470099986,1741.629470099986,1744.1294595000218,1744.1294595000218,1744.113806200039,space,1.0,0.3189406000310555,None,,,,,nback39,1.0,2023-12-19_13h47.24.408,untitled,2023.2.3,59.94754590269487,2023-12-19 14h27.49.404809 -0500,
,"[-0.64, -0.4]",None,,,,,,,,,0.0,17.0,17.0,17.0,1744.1294595000218,,,,,,,,,,,,,,,,,,,,,,,,,,,,,,,,,,,,,,,,,,,,,,,,,,,,,,,,,,,,,,,,,,1744.1147427000103,1744.1294595000218,1744.1294595000218,1744.6293253999902,1744.6293253999902,1747.129233099986,1747.129233099986,1747.1130524000037,None,1.0,,,,,,,nback39,1.0,2023-12-19_13h47.24.408,untitled,2023.2.3,59.94754590269487,2023-12-19 14h27.49.404809 -0500,
,"[-0.2, -0.1]",None,,,,,,,,,0.0,18.0,18.0,18.0,1747.129233099986,,,,,,,,,,,,,,,,,,,,,,,,,,,,,,,,,,,,,,,,,,,,,,,,,,,,,,,,,,,,,,,,,,1747.1135237999845,1747.129233099986,1747.129233099986,1747.6294367000228,1747.6294367000228,1750.1291458000196,1750.1291458000196,1750.1136305999826,None,1.0,,,,,,,nback39,1.0,2023-12-19_13h47.24.408,untitled,2023.2.3,59.94754590269487,2023-12-19 14h27.49.404809 -0500,
,"[0.2, -0.1]",None,,,,,,,,,0.0,19.0,19.0,19.0,1750.1291458000196,,,,,,,,,,,,,,,,,,,,,,,,,,,,,,,,,,,,,,,,,,,,,,,,,,,,,,,,,,,,,,,,,,1750.114508000028,1750.1291458000196,1750.1291458000196,1750.6298634000125,1750.6298634000125,1753.1291541000246,1753.1291541000246,1753.1131752000074,None,1.0,,,,,,,nback39,1.0,2023-12-19_13h47.24.408,untitled,2023.2.3,59.94754590269487,2023-12-19 14h27.49.404809 -0500,
,"[0.2, -0.1]",None,,,,,,,,,0.0,20.0,20.0,20.0,1753.1291541000246,,,,,,,,,,,,,,,,,,,,,,,,,,,,,,,,,,,,,,,,,,,,,,,,,,,,,,,,,,,,,,,,,,1753.1138909999863,1753.1291541000246,1753.1291541000246,1753.62917249999,1753.62917249999,1756.1290759000112,1756.1290759000112,1756.113502499997,None,1.0,,,,,,,nback39,1.0,2023-12-19_13h47.24.408,untitled,2023.2.3,59.94754590269487,2023-12-19 14h27.49.404809 -0500,
,"[-0.64, 0.4]",None,,,,,,,,,0.0,21.0,21.0,21.0,1756.1290759000112,,,,,,,,,,,,,,,,,,,,,,,,,,,,,,,,,,,,,,,,,,,,,,,,,,,,,,,,,,,,,,,,,,1756.114349999989,1756.1290759000112,1756.1290759000112,1756.6293342999998,1756.6293342999998,1759.1291935000336,1759.1291935000336,1759.1134529000265,None,1.0,,,,,,,nback39,1.0,2023-12-19_13h47.24.408,untitled,2023.2.3,59.94754590269487,2023-12-19 14h27.49.404809 -0500,
,"[0, 0.2]",None,,,,,,,,,0.0,22.0,22.0,22.0,1759.1291935000336,,,,,,,,,,,,,,,,,,,,,,,,,,,,,,,,,,,,,,,,,,,,,,,,,,,,,,,,,,,,,,,,,,1759.1141427000402,1759.1291935000336,1759.1291935000336,1759.6290699000238,1759.6290699000238,1762.1290969999973,1762.1290969999973,1762.1131293000071,None,1.0,,,,,,,nback39,1.0,2023-12-19_13h47.24.408,untitled,2023.2.3,59.94754590269487,2023-12-19 14h27.49.404809 -0500,
,"[0.64, -0.4]",None,,,,,,,,,0.0,23.0,23.0,23.0,1762.1290969999973,,,,,,,,,,,,,,,,,,,,,,,,,,,,,,,,,,,,,,,,,,,,,,,,,,,,,,,,,,,,,,,,,,1762.113738199987,1762.1290969999973,1762.1290969999973,1762.629142699996,1762.629142699996,1765.1289992000093,1765.1289992000093,1765.113245900022,None,1.0,,,,,,,nback39,1.0,2023-12-19_13h47.24.408,untitled,2023.2.3,59.94754590269487,2023-12-19 14h27.49.404809 -0500,
,"[0, 0.2]",space,,,,,,,,,0.0,24.0,24.0,24.0,1765.1289992000093,,,,,,,,,,,,,,,,,,,,,,,,,,,,,,,,,,,,,,,,,,,,,,,,,,,,,,,,,,,,,,,,,,1765.11392470001,1765.1289992000093,1765.1289992000093,1765.6289911000058,1765.6289911000058,1768.129126899992,1768.129126899992,1768.1130858000251,space,1.0,0.316045000043232,None,,,,,nback39,1.0,2023-12-19_13h47.24.408,untitled,2023.2.3,59.94754590269487,2023-12-19 14h27.49.404809 -0500,
,"[-0.2, 0.1]",None,,,,,,,,,0.0,25.0,25.0,25.0,1768.129126899992,,,,,,,,,,,,,,,,,,,,,,,,,,,,,,,,,,,,,,,,,,,,,,,,,,,,,,,,,,,,,,,,,,1768.113869599998,1768.129126899992,1768.129126899992,1768.6289648000384,1768.6289648000384,1771.1290149000124,1771.1290149000124,1771.1130675000022,None,1.0,,,,,,,nback39,1.0,2023-12-19_13h47.24.408,untitled,2023.2.3,59.94754590269487,2023-12-19 14h27.49.404809 -0500,
,"[0.3, 0]",None,,,,,,,,,0.0,26.0,26.0,26.0,1771.1290149000124,,,,,,,,,,,,,,,,,,,,,,,,,,,,,,,,,,,,,,,,,,,,,,,,,,,,,,,,,,,,,,,,,,1771.113693399995,1771.1290149000124,1771.1290149000124,1771.6288628000184,1771.6288628000184,1774.1288877000334,1774.1288877000334,1774.1132165000308,None,1.0,,,,,,,nback39,1.0,2023-12-19_13h47.24.408,untitled,2023.2.3,59.94754590269487,2023-12-19 14h27.49.404809 -0500,
,"[-0.2, 0.1]",space,,,,,,,,,0.0,27.0,27.0,27.0,1774.1288877000334,,,,,,,,,,,,,,,,,,,,,,,,,,,,,,,,,,,,,,,,,,,,,,,,,,,,,,,,,,,,,,,,,,1774.1139001999982,1774.1288877000334,1774.1288877000334,1774.6287627000129,1774.6287627000129,1777.1288649000344,1777.1288649000344,1777.1131208000006,space,1.0,0.319218400050886,None,,,,,nback39,1.0,2023-12-19_13h47.24.408,untitled,2023.2.3,59.94754590269487,2023-12-19 14h27.49.404809 -0500,
,"[-0.2, 0.1]",None,,,,,,,,,0.0,28.0,28.0,28.0,1777.1288649000344,,,,,,,,,,,,,,,,,,,,,,,,,,,,,,,,,,,,,,,,,,,,,,,,,,,,,,,,,,,,,,,,,,1777.113902000012,1777.1288649000344,1777.1288649000344,1777.628881199984,1777.628881199984,1780.1287625000114,1780.1287625000114,1780.1131152000162,None,1.0,,,,,,,nback39,1.0,2023-12-19_13h47.24.408,untitled,2023.2.3,59.94754590269487,2023-12-19 14h27.49.404809 -0500,
,"[0.2, 0.1]",None,,,,,,,,,0.0,29.0,29.0,29.0,1780.1287625000114,,,,,,,,,,,,,,,,,,,,,,,,,,,,,,,,,,,,,,,,,,,,,,,,,,,,,,,,,,,,,,,,,,1780.1138408000115,1780.1287625000114,1780.1287625000114,1780.628740300017,1780.628740300017,1783.12879290001,1783.12879290001,1783.1132496999926,None,1.0,,,,,,,nback39,1.0,2023-12-19_13h47.24.408,untitled,2023.2.3,59.94754590269487,2023-12-19 14h27.49.404809 -0500,
,"[-0.64, -0.4]",None,,,,,,,,,0.0,30.0,30.0,30.0,1783.12879290001,,,,,,,,,,,,,,,,,,,,,,,,,,,,,,,,,,,,,,,,,,,,,,,,,,,,,,,,,,,,,,,,,,1783.114084700006,1783.12879290001,1783.12879290001,1783.6286095000105,1783.6286095000105,1786.1285738000297,1786.1285738000297,1786.112699899997,None,1.0,,,,,,,nback39,1.0,2023-12-19_13h47.24.408,untitled,2023.2.3,59.94754590269487,2023-12-19 14h27.49.404809 -0500,
,"[0, -0.2]",None,,,,,,,,,0.0,31.0,31.0,31.0,1786.1285738000297,,,,,,,,,,,,,,,,,,,,,,,,,,,,,,,,,,,,,,,,,,,,,,,,,,,,,,,,,,,,,,,,,,1786.1133285000103,1786.1285738000297,1786.1285738000297,1786.628802900028,1786.628802900028,1789.1283829000313,1789.1283829000313,1789.1127524999902,None,1.0,,,,,,,nback39,1.0,2023-12-19_13h47.24.408,untitled,2023.2.3,59.94754590269487,2023-12-19 14h27.49.404809 -0500,
,"[-0.64, -0.4]",space,,,,,,,,,0.0,32.0,32.0,32.0,1789.1283829000313,,,,,,,,,,,,,,,,,,,,,,,,,,,,,,,,,,,,,,,,,,,,,,,,,,,,,,,,,,,,,,,,,,1789.1135611000354,1789.1283829000313,1789.1283829000313,1789.6287448999938,1789.6287448999938,1792.128460899985,1792.128460899985,1792.1131484000362,space,1.0,0.3985665999935008,None,,,,,nback39,1.0,2023-12-19_13h47.24.408,untitled,2023.2.3,59.94754590269487,2023-12-19 14h27.49.404809 -0500,
,"[0.64, 0.4]",None,,,,,,,,,0.0,33.0,33.0,33.0,1792.128460899985,,,,,,,,,,,,,,,,,,,,,,,,,,,,,,,,,,,,,,,,,,,,,,,,,,,,,,,,,,,,,,,,,,1792.114077300008,1792.128460899985,1792.128460899985,1792.6286225999938,1792.6286225999938,1795.1286896000383,1795.1286896000383,1795.1130681000068,None,1.0,,,,,,,nback39,1.0,2023-12-19_13h47.24.408,untitled,2023.2.3,59.94754590269487,2023-12-19 14h27.49.404809 -0500,
,"[-0.3, 0]",None,,,,,,,,,0.0,34.0,34.0,34.0,1795.1286896000383,,,,,,,,,,,,,,,,,,,,,,,,,,,,,,,,,,,,,,,,,,,,,,,,,,,,,,,,,,,,,,,,,,1795.113937099988,1795.1286896000383,1795.1286896000383,1795.6285273000249,1795.6285273000249,1798.1285389999975,1798.1285389999975,1798.112906800001,None,1.0,,,,,,,nback39,1.0,2023-12-19_13h47.24.408,untitled,2023.2.3,59.94754590269487,2023-12-19 14h27.49.404809 -0500,
,"[0.3, 0]",None,,,,,,,,,0.0,35.0,35.0,35.0,1798.1285389999975,,,,,,,,,,,,,,,,,,,,,,,,,,,,,,,,,,,,,,,,,,,,,,,,,,,,,,,,,,,,,,,,,,1798.113756600011,1798.1285389999975,1798.1285389999975,1798.6285253000096,1798.6285253000096,1801.1285711000091,1801.1285711000091,1801.1128647000296,None,1.0,,,,,,,nback39,1.0,2023-12-19_13h47.24.408,untitled,2023.2.3,59.94754590269487,2023-12-19 14h27.49.404809 -0500,
,"[-0.3, 0]",space,,,,,,,,,0.0,36.0,36.0,36.0,1801.1285711000091,,,,,,,,,,,,,,,,,,,,,,,,,,,,,,,,,,,,,,,,,,,,,,,,,,,,,,,,,,,,,,,,,,1801.1136749000289,1801.1285711000091,1801.1285711000091,1801.628308899992,1801.628308899992,1804.1283073000377,1804.1283073000377,1804.112974299991,space,1.0,0.3378731999546289,None,,,,,nback39,1.0,2023-12-19_13h47.24.408,untitled,2023.2.3,59.94754590269487,2023-12-19 14h27.49.404809 -0500,
,"[0, -0.2]",None,,,,,,,,,0.0,37.0,37.0,37.0,1804.1283073000377,,,,,,,,,,,,,,,,,,,,,,,,,,,,,,,,,,,,,,,,,,,,,,,,,,,,,,,,,,,,,,,,,,1804.1139427000307,1804.1283073000377,1804.1283073000377,1804.628416099993,1804.628416099993,1807.1282315999847,1807.1282315999847,1807.1122269000043,None,1.0,,,,,,,nback39,1.0,2023-12-19_13h47.24.408,untitled,2023.2.3,59.94754590269487,2023-12-19 14h27.49.404809 -0500,
,"[0.3, 0]",None,,,,,,,,,0.0,38.0,38.0,38.0,1807.1282315999847,,,,,,,,,,,,,,,,,,,,,,,,,,,,,,,,,,,,,,,,,,,,,,,,,,,,,,,,,,,,,,,,,,1807.1128008000087,1807.1282315999847,1807.1282315999847,1807.62818,1807.62818,1810.1282287000213,1810.1282287000213,1810.1127661000355,space,0.0,0.2806893000379205,None,,,,,nback39,1.0,2023-12-19_13h47.24.408,untitled,2023.2.3,59.94754590269487,2023-12-19 14h27.49.404809 -0500,
,"[0.2, 0.1]",None,,,,,,,,,0.0,39.0,39.0,39.0,1810.1282287000213,,,,,,,,,,,,,,,,,,,,,,,,,,,,,,,,,,,,,,,,,,,,,,,,,,,,,,,,,,,,,,,,,,1810.113766400027,1810.1282287000213,1810.1282287000213,1810.628699199995,1810.628699199995,1813.1281284000145,1813.1281284000145,1813.1120748000103,None,1.0,,,,,,,nback39,1.0,2023-12-19_13h47.24.408,untitled,2023.2.3,59.94754590269487,2023-12-19 14h27.49.404809 -0500,
,,,,,,,,,,,,,,,,,,,,,,,,,,,,,,,,,,,,,,,,,,,,,,,,,,,,,,,,,,,,,,,,,,,,,,,,,,,,,,,,,,,,,,,,,,,,,1813.112441300007,1813.1281284000145,1816.1281523000216,1816.1121390000333,,,,,,,,
