square,location,corrAns,trials_0.thisRepN,trials_0.thisTrialN,trials_0.thisN,trials_0.thisIndex,trials_1.thisRepN,trials_1.thisTrialN,trials_1.thisN,trials_1.thisIndex,trials_2.thisRepN,trials_2.thisTrialN,trials_2.thisN,trials_2.thisIndex,thisRow.t,notes,Instructions.started,instructions.started,key_resp.started,inst_sq11.started,Instructions.stopped,key_resp.keys,key_resp.rt,key_resp.duration,All.started,sq_1.started,sq_2.started,sq_3.started,sq_4.started,sq_5.started,sq_6.started,sq_7.started,sq_8.started,sq_9.started,sq_10.started,sq_11.started,sq_12.started,All.stopped,Fixation.started,fixation_3.started,fixation_3.stopped,Fixation.stopped,N_back_0_Trial.started,target_square_0.started,response_0.started,fixation_0.started,target_square_0.stopped,fixation_0.stopped,N_back_0_Trial.stopped,response_0.keys,response_0.corr,response_0.rt,response_0.duration,Instructions_1.started,instructions_1.started,key_resp_1.started,Instructions_1.stopped,key_resp_1.keys,key_resp_1.rt,key_resp_1.duration,N_back_1_Trial.started,target_square_1.started,response_1.started,target_square_1.stopped,fixation_1.started,fixation_1.stopped,response_1.stopped,N_back_1_Trial.stopped,response_1.keys,response_1.corr,response_1.rt,response_1.duration,Instructions_2.started,instructions_2.started,key_resp_2.started,Instructions_2.stopped,key_resp_2.keys,key_resp_2.rt,key_resp_2.duration,N_back_2_trials.started,target_square_2.started,response_2.started,fixation_2.started,target_square_2.stopped,fixation_2.stopped,N_back_2_trials.stopped,response_2.keys,response_2.corr,response_2.rt,response_2.duration,End.started,thank_you.started,End.stopped,participant,session,date,expName,psychopyVersion,frameRate,expStart,
,,,,,,,,,,,,,,,,,0.0015644999803043902,0.004527599987341091,0.004527599987341091,0.004527599987341091,1867.3655384999875,space,1867.346274600015,None,,,,,,,,,,,,,,,,,,,,,,,,,,,,,,,,,,,,,,,,,,,,,,,,,,,,,,,,,,,,,,,,,,,,,,nback47,001,2024-01-10_17h27.02.843,untitled,2023.2.3,59.95703478279254,2024-01-10 17h50.51.614914 -0500,
6,"[-0.3, 0]",None,0,0,0,0,,,,,,,,,1869.3868599999987,,,,,,,,,,1867.3655791000056,1867.3806354999833,1867.3806354999833,1867.3806354999833,1867.3806354999833,1867.3806354999833,1867.3806354999833,1867.3806354999833,1867.3806354999833,1867.3806354999833,1867.3806354999833,1867.3806354999833,1867.3806354999833,1868.3646876999992,1868.3647036000038,1868.3805086000066,1869.3868599999987,1869.3647153000056,1869.3848677999922,1869.3868599999987,1869.3868599999987,1869.863999699999,1869.897307599982,1872.3640598999918,1872.3809419999889,None,1,,,,,,,,,,,,,,,,,,,,,,,,,,,,,,,,,,,,,,,,,,,nback47,001,2024-01-10_17h27.02.843,untitled,2023.2.3,59.95703478279254,2024-01-10 17h50.51.614914 -0500,
10,"[0, -0.2]",None,0,1,1,1,,,,,,,,,1872.3973355999915,,,,,,,,,,,,,,,,,,,,,,,,,,,,1872.382022100006,1872.3973355999915,1872.3973355999915,1872.8639338999928,1872.8974520000047,1875.3638789999823,1875.380754599988,None,1,,,,,,,,,,,,,,,,,,,,,,,,,,,,,,,,,,,,,,,,,,,nback47,001,2024-01-10_17h27.02.843,untitled,2023.2.3,59.95703478279254,2024-01-10 17h50.51.614914 -0500,
11,"[-0.64, -0.4]",space,0,2,2,2,,,,,,,,,1875.397420399997,,,,,,,,,,,,,,,,,,,,,,,,,,,,1875.3814416999812,1875.397420399997,1875.397420399997,1875.8639102999878,1875.8973002999846,1878.3639813000045,1878.3807222000032,space,1,0.5866978999983985,None,,,,,,,,,,,,,,,,,,,,,,,,,,,,,,,,,,,,,,,,,nback47,001,2024-01-10_17h27.02.843,untitled,2023.2.3,59.95703478279254,2024-01-10 17h50.51.614914 -0500,
12,"[0.64, -0.4]",None,0,3,3,3,,,,,,,,,1878.3970401999832,,,,,,,,,,,,,,,,,,,,,,,,,,,,1878.3818103999947,1878.3970401999832,1878.3970401999832,1878.863806199981,1878.8970910999924,1881.3640260999964,1881.3808252000017,None,1,,,,,,,,,,,,,,,,,,,,,,,,,,,,,,,,,,,,,,,,,,,nback47,001,2024-01-10_17h27.02.843,untitled,2023.2.3,59.95703478279254,2024-01-10 17h50.51.614914 -0500,
1,"[-0.64, 0.4]",None,0,4,4,4,,,,,,,,,1881.3970914999954,,,,,,,,,,,,,,,,,,,,,,,,,,,,1881.3815445000073,1881.3970914999954,1881.3970914999954,1881.8637644999835,1881.8970664999797,1884.3639916999964,1884.3807688999805,None,1,,,,,,,,,,,,,,,,,,,,,,,,,,,,,,,,,,,,,,,,,,,nback47,001,2024-01-10_17h27.02.843,untitled,2023.2.3,59.95703478279254,2024-01-10 17h50.51.614914 -0500,
1,"[-0.64, 0.4]",None,0,5,5,5,,,,,,,,,1884.3970795999921,,,,,,,,,,,,,,,,,,,,,,,,,,,,1884.3815728999907,1884.3970795999921,1884.3970795999921,1884.8638121999975,1884.897029499989,1887.3637676000071,1887.3806652000058,None,1,,,,,,,,,,,,,,,,,,,,,,,,,,,,,,,,,,,,,,,,,,,nback47,001,2024-01-10_17h27.02.843,untitled,2023.2.3,59.95703478279254,2024-01-10 17h50.51.614914 -0500,
4,"[-0.2, 0.1]",None,0,6,6,6,,,,,,,,,1887.3970964000036,,,,,,,,,,,,,,,,,,,,,,,,,,,,1887.3814863000007,1887.3970964000036,1887.3970964000036,1887.880343500001,1887.8970891000063,1890.380529099988,1890.380688300007,None,1,,,,,,,,,,,,,,,,,,,,,,,,,,,,,,,,,,,,,,,,,,,nback47,001,2024-01-10_17h27.02.843,untitled,2023.2.3,59.95703478279254,2024-01-10 17h50.51.614914 -0500,
5,"[0.2, 0.1]",None,0,7,7,7,,,,,,,,,1890.3969248000067,,,,,,,,,,,,,,,,,,,,,,,,,,,,1890.3813036000065,1890.3969248000067,1890.3969248000067,1890.880216599995,1890.8968844999908,1893.3803876999882,1893.3805561999907,None,1,,,,,,,,,,,,,,,,,,,,,,,,,,,,,,,,,,,,,,,,,,,nback47,001,2024-01-10_17h27.02.843,untitled,2023.2.3,59.95703478279254,2024-01-10 17h50.51.614914 -0500,
11,"[-0.64, -0.4]",space,0,8,8,8,,,,,,,,,1893.396752700006,,,,,,,,,,,,,,,,,,,,,,,,,,,,1893.3812185999996,1893.396752700006,1893.396752700006,1893.8637372999801,1893.897080499999,1896.363625099999,1896.3803961999947,space,1,0.42495210000197403,None,,,,,,,,,,,,,,,,,,,,,,,,,,,,,,,,,,,,,,,,,nback47,001,2024-01-10_17h27.02.843,untitled,2023.2.3,59.95703478279254,2024-01-10 17h50.51.614914 -0500,
9,"[0.2, -0.1]",None,0,9,9,9,,,,,,,,,1896.3968840999878,,,,,,,,,,,,,,,,,,,,,,,,,,,,1896.3812169999874,1896.3968840999878,1896.3968840999878,1896.8801355999894,1896.8968664999993,1899.3802390999917,1899.380412700004,None,1,,,,,,,,,,,,,,,,,,,,,,,,,,,,,,,,,,,,,,,,,,,nback47,001,2024-01-10_17h27.02.843,untitled,2023.2.3,59.95703478279254,2024-01-10 17h50.51.614914 -0500,
8,"[-0.2, -0.1]",None,0,10,10,10,,,,,,,,,1899.3969616999966,,,,,,,,,,,,,,,,,,,,,,,,,,,,1899.3813036000065,1899.3969616999966,1899.3969616999966,1899.8802784,1899.8968475000001,1902.3801378000062,1902.3802935999993,None,1,,,,,,,,,,,,,,,,,,,,,,,,,,,,,,,,,,,,,,,,,,,nback47,001,2024-01-10_17h27.02.843,untitled,2023.2.3,59.95703478279254,2024-01-10 17h50.51.614914 -0500,
9,"[0.2, -0.1]",None,0,11,11,11,,,,,,,,,1902.396778299997,,,,,,,,,,,,,,,,,,,,,,,,,,,,1902.3808989999816,1902.396778299997,1902.396778299997,1902.8802275999915,1902.8968384999898,1905.3801203999901,1905.3803630000039,None,1,,,,,,,,,,,,,,,,,,,,,,,,,,,,,,,,,,,,,,,,,,,nback47,001,2024-01-10_17h27.02.843,untitled,2023.2.3,59.95703478279254,2024-01-10 17h50.51.614914 -0500,
6,"[-0.3, 0]",None,0,12,12,12,,,,,,,,,1905.3967953999818,,,,,,,,,,,,,,,,,,,,,,,,,,,,1905.3810636999842,1905.3967953999818,1905.3967953999818,1905.880337199982,1905.8968115999887,1908.3801923999854,1908.3804285999795,None,1,,,,,,,,,,,,,,,,,,,,,,,,,,,,,,,,,,,,,,,,,,,nback47,001,2024-01-10_17h27.02.843,untitled,2023.2.3,59.95703478279254,2024-01-10 17h50.51.614914 -0500,
9,"[0.2, -0.1]",None,0,13,13,13,,,,,,,,,1908.3966708999942,,,,,,,,,,,,,,,,,,,,,,,,,,,,1908.3811455999967,1908.3966708999942,1908.3966708999942,1908.8802685999835,1908.8965372999955,1911.3800754999975,1911.3802493999829,None,1,,,,,,,,,,,,,,,,,,,,,,,,,,,,,,,,,,,,,,,,,,,nback47,001,2024-01-10_17h27.02.843,untitled,2023.2.3,59.95703478279254,2024-01-10 17h50.51.614914 -0500,
7,"[0.3, 0]",None,0,14,14,14,,,,,,,,,1911.39676839998,,,,,,,,,,,,,,,,,,,,,,,,,,,,1911.3809405000065,1911.39676839998,1911.39676839998,1911.879916100006,1911.8966205999895,1914.3800755999982,1914.3802479000005,None,1,,,,,,,,,,,,,,,,,,,,,,,,,,,,,,,,,,,,,,,,,,,nback47,001,2024-01-10_17h27.02.843,untitled,2023.2.3,59.95703478279254,2024-01-10 17h50.51.614914 -0500,
2,"[0.64, 0.4]",None,0,15,15,15,,,,,,,,,1914.3966306000075,,,,,,,,,,,,,,,,,,,,,,,,,,,,1914.3810025999846,1914.3966306000075,1914.3966306000075,1914.8799582000065,1914.8965197999787,1917.3798466000007,1917.3799224999966,None,1,,,,,,,,,,,,,,,,,,,,,,,,,,,,,,,,,,,,,,,,,,,nback47,001,2024-01-10_17h27.02.843,untitled,2023.2.3,59.95703478279254,2024-01-10 17h50.51.614914 -0500,
2,"[0.64, 0.4]",None,0,16,16,16,,,,,,,,,1917.3964101999882,,,,,,,,,,,,,,,,,,,,,,,,,,,,1917.3802475999983,1917.3964101999882,1917.3964101999882,1917.8797621999984,1917.8963706000068,1920.3798488999892,1920.3799547999806,None,1,,,,,,,,,,,,,,,,,,,,,,,,,,,,,,,,,,,,,,,,,,,nback47,001,2024-01-10_17h27.02.843,untitled,2023.2.3,59.95703478279254,2024-01-10 17h50.51.614914 -0500,
11,"[-0.64, -0.4]",space,0,17,17,17,,,,,,,,,1920.3963652999955,,,,,,,,,,,,,,,,,,,,,,,,,,,,1920.3804102999857,1920.3963652999955,1920.3963652999955,1920.8799792999926,1920.896525899996,1923.379991099995,1923.380250599992,space,1,0.4642782999726478,None,,,,,,,,,,,,,,,,,,,,,,,,,,,,,,,,,,,,,,,,,nback47,001,2024-01-10_17h27.02.843,untitled,2023.2.3,59.95703478279254,2024-01-10 17h50.51.614914 -0500,
11,"[-0.64, -0.4]",space,0,18,18,18,,,,,,,,,1923.3965357999841,,,,,,,,,,,,,,,,,,,,,,,,,,,,1923.3811813000066,1923.3965357999841,1923.3965357999841,1923.8798905999865,1923.8965127999836,1926.3798142999876,1926.3799835999962,space,1,0.6545587000146043,None,,,,,,,,,,,,,,,,,,,,,,,,,,,,,,,,,,,,,,,,,nback47,001,2024-01-10_17h27.02.843,untitled,2023.2.3,59.95703478279254,2024-01-10 17h50.51.614914 -0500,
7,"[0.3, 0]",None,0,19,19,19,,,,,,,,,1926.3963489999878,,,,,,,,,,,,,,,,,,,,,,,,,,,,1926.3807815999899,1926.3963489999878,1926.3963489999878,1926.8797228999902,1926.8964276000042,1929.3796948999807,1929.37984519999,None,1,,,,,,,,,,,,,,,,,,,,,,,,,,,,,,,,,,,,,,,,,,,nback47,001,2024-01-10_17h27.02.843,untitled,2023.2.3,59.95703478279254,2024-01-10 17h50.51.614914 -0500,
3,"[0, 0.2]",None,0,20,20,20,,,,,,,,,1929.3963287999795,,,,,,,,,,,,,,,,,,,,,,,,,,,,1929.3804786999826,1929.3963287999795,1929.3963287999795,1929.8798560999858,1929.896398199984,1932.3796555000008,1932.3798308999976,None,1,,,,,,,,,,,,,,,,,,,,,,,,,,,,,,,,,,,,,,,,,,,nback47,001,2024-01-10_17h27.02.843,untitled,2023.2.3,59.95703478279254,2024-01-10 17h50.51.614914 -0500,
10,"[0, -0.2]",None,0,21,21,21,,,,,,,,,1932.3962352999952,,,,,,,,,,,,,,,,,,,,,,,,,,,,1932.380582199985,1932.3962352999952,1932.3962352999952,1932.8795920999837,1932.8962943999795,1935.379645899986,1935.3798115999962,None,1,,,,,,,,,,,,,,,,,,,,,,,,,,,,,,,,,,,,,,,,,,,nback47,001,2024-01-10_17h27.02.843,untitled,2023.2.3,59.95703478279254,2024-01-10 17h50.51.614914 -0500,
1,"[-0.64, 0.4]",None,0,22,22,22,,,,,,,,,1935.3965232000046,,,,,,,,,,,,,,,,,,,,,,,,,,,,1935.3804564999882,1935.3965232000046,1935.3965232000046,1935.879783499986,1935.8962410999811,1938.3797350999957,1938.379866400006,None,1,,,,,,,,,,,,,,,,,,,,,,,,,,,,,,,,,,,,,,,,,,,nback47,001,2024-01-10_17h27.02.843,untitled,2023.2.3,59.95703478279254,2024-01-10 17h50.51.614914 -0500,
2,"[0.64, 0.4]",None,0,23,23,23,,,,,,,,,1938.3961066000047,,,,,,,,,,,,,,,,,,,,,,,,,,,,1938.3803145999846,1938.3961066000047,1938.3961066000047,1938.879645399982,1938.8961990999815,1941.379570399993,1941.3797326000058,None,1,,,,,,,,,,,,,,,,,,,,,,,,,,,,,,,,,,,,,,,,,,,nback47,001,2024-01-10_17h27.02.843,untitled,2023.2.3,59.95703478279254,2024-01-10 17h50.51.614914 -0500,
6,"[-0.3, 0]",None,0,24,24,24,,,,,,,,,1941.3961529999797,,,,,,,,,,,,,,,,,,,,,,,,,,,,1941.3803860000044,1941.3961529999797,1941.3961529999797,1941.879511599982,1941.8962633000046,1944.3795385999838,1944.3797221999848,None,1,,,,,,,,,,,,,,,,,,,,,,,,,,,,,,,,,,,,,,,,,,,nback47,001,2024-01-10_17h27.02.843,untitled,2023.2.3,59.95703478279254,2024-01-10 17h50.51.614914 -0500,
3,"[0, 0.2]",None,0,25,25,25,,,,,,,,,1944.3961477999983,,,,,,,,,,,,,,,,,,,,,,,,,,,,1944.380509199982,1944.3961477999983,1944.3961477999983,1944.879661999992,1944.8962268999894,1947.3794047999836,1947.3795727999823,None,1,,,,,,,,,,,,,,,,,,,,,,,,,,,,,,,,,,,,,,,,,,,nback47,001,2024-01-10_17h27.02.843,untitled,2023.2.3,59.95703478279254,2024-01-10 17h50.51.614914 -0500,
11,"[-0.64, -0.4]",space,0,26,26,26,,,,,,,,,1947.3960453000036,,,,,,,,,,,,,,,,,,,,,,,,,,,,1947.380153599981,1947.3960453000036,1947.3960453000036,1947.879521499999,1947.8961337000073,1950.379452699999,1950.3796486000065,space,1,0.38400069999624975,None,,,,,,,,,,,,,,,,,,,,,,,,,,,,,,,,,,,,,,,,,nback47,001,2024-01-10_17h27.02.843,untitled,2023.2.3,59.95703478279254,2024-01-10 17h50.51.614914 -0500,
1,"[-0.64, 0.4]",None,0,27,27,27,,,,,,,,,1950.3961953999824,,,,,,,,,,,,,,,,,,,,,,,,,,,,1950.3805986999942,1950.3961953999824,1950.3961953999824,1950.8795955999813,1950.8960267000075,1953.3793529999966,1953.3795207999938,None,1,,,,,,,,,,,,,,,,,,,,,,,,,,,,,,,,,,,,,,,,,,,nback47,001,2024-01-10_17h27.02.843,untitled,2023.2.3,59.95703478279254,2024-01-10 17h50.51.614914 -0500,
3,"[0, 0.2]",None,0,28,28,28,,,,,,,,,1953.396057200007,,,,,,,,,,,,,,,,,,,,,,,,,,,,1953.3802071999817,1953.396057200007,1953.396057200007,1953.8794395999867,1953.8960256999999,1956.37934449999,1956.379528599995,None,1,,,,,,,,,,,,,,,,,,,,,,,,,,,,,,,,,,,,,,,,,,,nback47,001,2024-01-10_17h27.02.843,untitled,2023.2.3,59.95703478279254,2024-01-10 17h50.51.614914 -0500,
9,"[0.2, -0.1]",None,0,29,29,29,,,,,,,,,1956.3960072000045,,,,,,,,,,,,,,,,,,,,,,,,,,,,1956.380313200003,1956.3960072000045,1956.3960072000045,1956.879415000003,1956.8960039999802,1959.3792629999807,1959.3794521999953,None,1,,,,,,,,,,,,,,,,,,,,,,,,,,,,,,,,,,,,,,,,,,,nback47,001,2024-01-10_17h27.02.843,untitled,2023.2.3,59.95703478279254,2024-01-10 17h50.51.614914 -0500,
8,"[-0.2, -0.1]",None,0,30,30,30,,,,,,,,,1959.3958435999812,,,,,,,,,,,,,,,,,,,,,,,,,,,,1959.3801991000073,1959.3958435999812,1959.3958435999812,1959.8794935999904,1959.8958947999927,1962.3793124999793,1962.3795817999926,None,1,,,,,,,,,,,,,,,,,,,,,,,,,,,,,,,,,,,,,,,,,,,nback47,001,2024-01-10_17h27.02.843,untitled,2023.2.3,59.95703478279254,2024-01-10 17h50.51.614914 -0500,
12,"[0.64, -0.4]",None,0,31,31,31,,,,,,,,,1962.3959655000072,,,,,,,,,,,,,,,,,,,,,,,,,,,,1962.3803277999978,1962.3959655000072,1962.3959655000072,1962.8791204000008,1962.8958724999975,1965.3792432000046,1965.3794538999791,None,1,,,,,,,,,,,,,,,,,,,,,,,,,,,,,,,,,,,,,,,,,,,nback47,001,2024-01-10_17h27.02.843,untitled,2023.2.3,59.95703478279254,2024-01-10 17h50.51.614914 -0500,
9,"[0.2, -0.1]",None,0,32,32,32,,,,,,,,,1965.3959441999905,,,,,,,,,,,,,,,,,,,,,,,,,,,,1965.380346799997,1965.3959441999905,1965.3959441999905,1965.8792504000012,1965.895678700006,1968.3791114999913,1968.379271199985,None,1,,,,,,,,,,,,,,,,,,,,,,,,,,,,,,,,,,,,,,,,,,,nback47,001,2024-01-10_17h27.02.843,untitled,2023.2.3,59.95703478279254,2024-01-10 17h50.51.614914 -0500,
11,"[-0.64, -0.4]",space,0,33,33,33,,,,,,,,,1968.3956819000014,,,,,,,,,,,,,,,,,,,,,,,,,,,,1968.3799039000005,1968.3956819000014,1968.3956819000014,1968.879197000002,1968.8957668999792,1971.3792317000043,1971.3794196999806,space,1,0.37585690000560135,None,,,,,,,,,,,,,,,,,,,,,,,,,,,,,,,,,,,,,,,,,nback47,001,2024-01-10_17h27.02.843,untitled,2023.2.3,59.95703478279254,2024-01-10 17h50.51.614914 -0500,
7,"[0.3, 0]",None,0,34,34,34,,,,,,,,,1971.395677499997,,,,,,,,,,,,,,,,,,,,,,,,,,,,1971.3803092000016,1971.395677499997,1971.395677499997,1971.8790726999869,1971.8956708000042,1974.3790309999895,1974.379184999998,None,1,,,,,,,,,,,,,,,,,,,,,,,,,,,,,,,,,,,,,,,,,,,nback47,001,2024-01-10_17h27.02.843,untitled,2023.2.3,59.95703478279254,2024-01-10 17h50.51.614914 -0500,
11,"[-0.64, -0.4]",space,0,35,35,35,,,,,,,,,1974.3956907999818,,,,,,,,,,,,,,,,,,,,,,,,,,,,1974.3797898000048,1974.3956907999818,1974.3956907999818,1974.878967800003,1974.8956714999804,1977.379162199999,1977.3793825999892,space,1,0.3500495000043884,None,,,,,,,,,,,,,,,,,,,,,,,,,,,,,,,,,,,,,,,,,nback47,001,2024-01-10_17h27.02.843,untitled,2023.2.3,59.95703478279254,2024-01-10 17h50.51.614914 -0500,
4,"[-0.2, 0.1]",None,0,36,36,36,,,,,,,,,1977.3957003999967,,,,,,,,,,,,,,,,,,,,,,,,,,,,1977.3804051000043,1977.3957003999967,1977.3957003999967,1977.8789049999905,1977.895480599982,1980.3789258000033,1980.379094200005,None,1,,,,,,,,,,,,,,,,,,,,,,,,,,,,,,,,,,,,,,,,,,,nback47,001,2024-01-10_17h27.02.843,untitled,2023.2.3,59.95703478279254,2024-01-10 17h50.51.614914 -0500,
5,"[0.2, 0.1]",None,0,37,37,37,,,,,,,,,1980.3955811999913,,,,,,,,,,,,,,,,,,,,,,,,,,,,1980.3799067999935,1980.3955811999913,1980.3955811999913,1980.8789216000005,1980.895529100002,1983.3789820999955,1983.379162600002,None,1,,,,,,,,,,,,,,,,,,,,,,,,,,,,,,,,,,,,,,,,,,,nback47,001,2024-01-10_17h27.02.843,untitled,2023.2.3,59.95703478279254,2024-01-10 17h50.51.614914 -0500,
6,"[-0.3, 0]",None,0,38,38,38,,,,,,,,,1983.3955267999845,,,,,,,,,,,,,,,,,,,,,,,,,,,,1983.3797994999913,1983.3955267999845,1983.3955267999845,1983.8789655999863,1983.895490099996,1986.3788241999864,1986.3790015999984,None,1,,,,,,,,,,,,,,,,,,,,,,,,,,,,,,,,,,,,,,,,,,,nback47,001,2024-01-10_17h27.02.843,untitled,2023.2.3,59.95703478279254,2024-01-10 17h50.51.614914 -0500,
11,"[-0.64, -0.4]",space,0,39,39,39,,,,,,,,,1986.3954160999856,,,,,,,,,,,,,,,,,,,,,,,,,,,,1986.3797559999803,1986.3954160999856,1986.3954160999856,1986.8788387999812,1986.8954584999883,1989.378945400007,1989.3791233999946,space,1,0.5235972000227775,None,,,,,,,,,,,,,,,,,,,,,,,,,,,,,,,,,,,,,,,,,nback47,001,2024-01-10_17h27.02.843,untitled,2023.2.3,59.95703478279254,2024-01-10 17h50.51.614914 -0500,
,,,,,,,,,,,,,,,,,,,,,,,,,,,,,,,,,,,,,,,,,,,,,,,,,,,,,,1989.3798624000046,1989.3956183999835,1989.3956183999835,2001.5803038000013,space,12.17225309999776,None,,,,,,,,,,,,,,,,,,,,,,,,,,,,,,,,,,nback47,001,2024-01-10_17h27.02.843,untitled,2023.2.3,59.95703478279254,2024-01-10 17h50.51.614914 -0500,
10,"[0, -0.2]",None,,,,,0,0,0,0,,,,,2002.596085600002,,,,,,,,,,,,,,,,,,,,,,,,2001.580346200004,2001.595156700001,2002.596085600002,2002.579277199984,,,,,,,,,,,,,,,,,,,2002.5939983999997,2002.596085600002,2002.596085600002,2003.095276499982,2003.095276499982,2005.5952800999803,2005.5952800999803,2005.5797794999962,None,1,,,,,,,,,,,,,,,,,,,,,,,,nback47,001,2024-01-10_17h27.02.843,untitled,2023.2.3,59.95703478279254,2024-01-10 17h50.51.614914 -0500,
5,"[0.2, 0.1]",None,,,,,0,1,1,1,,,,,2005.5952800999803,,,,,,,,,,,,,,,,,,,,,,,,,,,,,,,,,,,,,,,,,,,,,,2005.5807407999819,2005.5952800999803,2005.5952800999803,2006.0952988000063,2006.0952988000063,2008.5951352999837,2008.5951352999837,2008.5791181999957,None,1,,,,,,,,,,,,,,,,,,,,,,,,nback47,001,2024-01-10_17h27.02.843,untitled,2023.2.3,59.95703478279254,2024-01-10 17h50.51.614914 -0500,
6,"[-0.3, 0]",None,,,,,0,2,2,2,,,,,2008.5951352999837,,,,,,,,,,,,,,,,,,,,,,,,,,,,,,,,,,,,,,,,,,,,,,2008.5797325999883,2008.5951352999837,2008.5951352999837,2009.0952703999938,2009.0952703999938,2011.5952626999933,2011.5952626999933,2011.5794098000042,None,1,,,,,,,,,,,,,,,,,,,,,,,,nback47,001,2024-01-10_17h27.02.843,untitled,2023.2.3,59.95703478279254,2024-01-10 17h50.51.614914 -0500,
6,"[-0.3, 0]",space,,,,,0,3,3,3,,,,,2011.5952626999933,,,,,,,,,,,,,,,,,,,,,,,,,,,,,,,,,,,,,,,,,,,,,,2011.5801905999833,2011.5952626999933,2011.5952626999933,2012.0951347999799,2012.0951347999799,2014.594878599979,2014.594878599979,2014.5789893000037,space,1,0.41068729999824427,None,,,,,,,,,,,,,,,,,,,,,,nback47,001,2024-01-10_17h27.02.843,untitled,2023.2.3,59.95703478279254,2024-01-10 17h50.51.614914 -0500,
12,"[0.64, -0.4]",None,,,,,0,4,4,4,,,,,2014.594878599979,,,,,,,,,,,,,,,,,,,,,,,,,,,,,,,,,,,,,,,,,,,,,,2014.579910200002,2014.594878599979,2014.594878599979,2015.0949333999888,2015.0949333999888,2017.595009199984,2017.595009199984,2017.5793341999815,None,1,,,,,,,,,,,,,,,,,,,,,,,,nback47,001,2024-01-10_17h27.02.843,untitled,2023.2.3,59.95703478279254,2024-01-10 17h50.51.614914 -0500,
10,"[0, -0.2]",None,,,,,0,5,5,5,,,,,2017.595009199984,,,,,,,,,,,,,,,,,,,,,,,,,,,,,,,,,,,,,,,,,,,,,,2017.5802382999973,2017.595009199984,2017.595009199984,2018.0951315999846,2018.0951315999846,2020.5949064999877,2020.5949064999877,2020.5790306999988,None,1,,,,,,,,,,,,,,,,,,,,,,,,nback47,001,2024-01-10_17h27.02.843,untitled,2023.2.3,59.95703478279254,2024-01-10 17h50.51.614914 -0500,
2,"[0.64, 0.4]",None,,,,,0,6,6,6,,,,,2020.5949064999877,,,,,,,,,,,,,,,,,,,,,,,,,,,,,,,,,,,,,,,,,,,,,,2020.579682599986,2020.5949064999877,2020.5949064999877,2021.0949566999916,2021.0949566999916,2023.59487109998,2023.59487109998,2023.5790679999918,None,1,,,,,,,,,,,,,,,,,,,,,,,,nback47,001,2024-01-10_17h27.02.843,untitled,2023.2.3,59.95703478279254,2024-01-10 17h50.51.614914 -0500,
9,"[0.2, -0.1]",None,,,,,0,7,7,7,,,,,2023.59487109998,,,,,,,,,,,,,,,,,,,,,,,,,,,,,,,,,,,,,,,,,,,,,,2023.5797428999795,2023.59487109998,2023.59487109998,2024.094762099994,2024.094762099994,2026.594858299999,2026.594858299999,2026.579146300006,None,1,,,,,,,,,,,,,,,,,,,,,,,,nback47,001,2024-01-10_17h27.02.843,untitled,2023.2.3,59.95703478279254,2024-01-10 17h50.51.614914 -0500,
9,"[0.2, -0.1]",space,,,,,0,8,8,8,,,,,2026.594858299999,,,,,,,,,,,,,,,,,,,,,,,,,,,,,,,,,,,,,,,,,,,,,,2026.579888599983,2026.594858299999,2026.594858299999,2027.094972299994,2027.094972299994,2029.5949057999824,2029.5949057999824,2029.5790693000017,space,1,0.3689357999828644,None,,,,,,,,,,,,,,,,,,,,,,nback47,001,2024-01-10_17h27.02.843,untitled,2023.2.3,59.95703478279254,2024-01-10 17h50.51.614914 -0500,
6,"[-0.3, 0]",None,,,,,0,9,9,9,,,,,2029.5949057999824,,,,,,,,,,,,,,,,,,,,,,,,,,,,,,,,,,,,,,,,,,,,,,2029.579852099996,2029.5949057999824,2029.5949057999824,2030.0948505999986,2030.0948505999986,2032.5947565999813,2032.5947565999813,2032.5789019999793,None,1,,,,,,,,,,,,,,,,,,,,,,,,nback47,001,2024-01-10_17h27.02.843,untitled,2023.2.3,59.95703478279254,2024-01-10 17h50.51.614914 -0500,
11,"[-0.64, -0.4]",None,,,,,0,10,10,10,,,,,2032.5947565999813,,,,,,,,,,,,,,,,,,,,,,,,,,,,,,,,,,,,,,,,,,,,,,2032.5795153999934,2032.5947565999813,2032.5947565999813,2033.0947603999812,2033.0947603999812,2035.594752200006,2035.594752200006,2035.5789590000059,None,1,,,,,,,,,,,,,,,,,,,,,,,,nback47,001,2024-01-10_17h27.02.843,untitled,2023.2.3,59.95703478279254,2024-01-10 17h50.51.614914 -0500,
11,"[-0.64, -0.4]",space,,,,,0,11,11,11,,,,,2035.594752200006,,,,,,,,,,,,,,,,,,,,,,,,,,,,,,,,,,,,,,,,,,,,,,2035.5796230999986,2035.594752200006,2035.594752200006,2036.094641899981,2036.094641899981,2038.5947539999906,2038.5947539999906,2038.5792082999833,space,1,0.3857283999968786,None,,,,,,,,,,,,,,,,,,,,,,nback47,001,2024-01-10_17h27.02.843,untitled,2023.2.3,59.95703478279254,2024-01-10 17h50.51.614914 -0500,
4,"[-0.2, 0.1]",None,,,,,0,12,12,12,,,,,2038.5947539999906,,,,,,,,,,,,,,,,,,,,,,,,,,,,,,,,,,,,,,,,,,,,,,2038.5801367999811,2038.5947539999906,2038.5947539999906,2039.0946889999905,2039.0946889999905,2041.5945615999808,2041.5945615999808,2041.5787530999805,None,1,,,,,,,,,,,,,,,,,,,,,,,,nback47,001,2024-01-10_17h27.02.843,untitled,2023.2.3,59.95703478279254,2024-01-10 17h50.51.614914 -0500,
3,"[0, 0.2]",None,,,,,0,13,13,13,,,,,2041.5945615999808,,,,,,,,,,,,,,,,,,,,,,,,,,,,,,,,,,,,,,,,,,,,,,2041.5794466999942,2041.5945615999808,2041.5945615999808,2042.094676299981,2042.094676299981,2044.5944880000025,2044.5944880000025,2044.578666699992,None,1,,,,,,,,,,,,,,,,,,,,,,,,nback47,001,2024-01-10_17h27.02.843,untitled,2023.2.3,59.95703478279254,2024-01-10 17h50.51.614914 -0500,
3,"[0, 0.2]",space,,,,,0,14,14,14,,,,,2044.5944880000025,,,,,,,,,,,,,,,,,,,,,,,,,,,,,,,,,,,,,,,,,,,,,,2044.579232899996,2044.5944880000025,2044.5944880000025,2045.0944224999985,2045.0944224999985,2047.594338099996,2047.594338099996,2047.5786736999871,space,1,0.3401746000163257,None,,,,,,,,,,,,,,,,,,,,,,nback47,001,2024-01-10_17h27.02.843,untitled,2023.2.3,59.95703478279254,2024-01-10 17h50.51.614914 -0500,
8,"[-0.2, -0.1]",None,,,,,0,15,15,15,,,,,2047.594338099996,,,,,,,,,,,,,,,,,,,,,,,,,,,,,,,,,,,,,,,,,,,,,,2047.5794646999857,2047.594338099996,2047.594338099996,2048.094487299997,2048.094487299997,2050.5944820999866,2050.5944820999866,2050.578581799986,None,1,,,,,,,,,,,,,,,,,,,,,,,,nback47,001,2024-01-10_17h27.02.843,untitled,2023.2.3,59.95703478279254,2024-01-10 17h50.51.614914 -0500,
1,"[-0.64, 0.4]",None,,,,,0,16,16,16,,,,,2050.5944820999866,,,,,,,,,,,,,,,,,,,,,,,,,,,,,,,,,,,,,,,,,,,,,,2050.5792334,2050.5944820999866,2050.5944820999866,2051.0944448999944,2051.0944448999944,2053.5945265000046,2053.5945265000046,2053.578580899979,None,1,,,,,,,,,,,,,,,,,,,,,,,,nback47,001,2024-01-10_17h27.02.843,untitled,2023.2.3,59.95703478279254,2024-01-10 17h50.51.614914 -0500,
2,"[0.64, 0.4]",None,,,,,0,17,17,17,,,,,2053.5945265000046,,,,,,,,,,,,,,,,,,,,,,,,,,,,,,,,,,,,,,,,,,,,,,2053.5792309999815,2053.5945265000046,2053.5945265000046,2054.094501099986,2054.094501099986,2056.5943142999895,2056.5943142999895,2056.5787763999833,None,1,,,,,,,,,,,,,,,,,,,,,,,,nback47,001,2024-01-10_17h27.02.843,untitled,2023.2.3,59.95703478279254,2024-01-10 17h50.51.614914 -0500,
4,"[-0.2, 0.1]",None,,,,,0,18,18,18,,,,,2056.5943142999895,,,,,,,,,,,,,,,,,,,,,,,,,,,,,,,,,,,,,,,,,,,,,,2056.579549499991,2056.5943142999895,2056.5943142999895,2057.094373400003,2057.094373400003,2059.5942338999885,2059.5942338999885,2059.5786200999864,None,1,,,,,,,,,,,,,,,,,,,,,,,,nback47,001,2024-01-10_17h27.02.843,untitled,2023.2.3,59.95703478279254,2024-01-10 17h50.51.614914 -0500,
4,"[-0.2, 0.1]",space,,,,,0,19,19,19,,,,,2059.5942338999885,,,,,,,,,,,,,,,,,,,,,,,,,,,,,,,,,,,,,,,,,,,,,,2059.5793604000064,2059.5942338999885,2059.5942338999885,2060.0943017999816,2060.0943017999816,2062.594381600007,2062.594381600007,2062.578428299981,space,1,0.45404660000349395,None,,,,,,,,,,,,,,,,,,,,,,nback47,001,2024-01-10_17h27.02.843,untitled,2023.2.3,59.95703478279254,2024-01-10 17h50.51.614914 -0500,
8,"[-0.2, -0.1]",None,,,,,0,20,20,20,,,,,2062.594381600007,,,,,,,,,,,,,,,,,,,,,,,,,,,,,,,,,,,,,,,,,,,,,,2062.579207600007,2062.594381600007,2062.594381600007,2063.0944349000056,2063.0944349000056,2065.5943408999883,2065.5943408999883,2065.578424699983,None,1,,,,,,,,,,,,,,,,,,,,,,,,nback47,001,2024-01-10_17h27.02.843,untitled,2023.2.3,59.95703478279254,2024-01-10 17h50.51.614914 -0500,
5,"[0.2, 0.1]",None,,,,,0,21,21,21,,,,,2065.5943408999883,,,,,,,,,,,,,,,,,,,,,,,,,,,,,,,,,,,,,,,,,,,,,,2065.5790754999907,2065.5943408999883,2065.5943408999883,2066.0942948999873,2066.0942948999873,2068.594199199986,2068.594199199986,2068.5781035999826,None,1,,,,,,,,,,,,,,,,,,,,,,,,nback47,001,2024-01-10_17h27.02.843,untitled,2023.2.3,59.95703478279254,2024-01-10 17h50.51.614914 -0500,
5,"[0.2, 0.1]",space,,,,,0,22,22,22,,,,,2068.594199199986,,,,,,,,,,,,,,,,,,,,,,,,,,,,,,,,,,,,,,,,,,,,,,2068.5786233999825,2068.594199199986,2068.594199199986,2069.0940375000064,2069.0940375000064,2071.594166099996,2071.594166099996,2071.578675800003,space,1,0.38362079998478293,None,,,,,,,,,,,,,,,,,,,,,,nback47,001,2024-01-10_17h27.02.843,untitled,2023.2.3,59.95703478279254,2024-01-10 17h50.51.614914 -0500,
1,"[-0.64, 0.4]",None,,,,,0,23,23,23,,,,,2071.594166099996,,,,,,,,,,,,,,,,,,,,,,,,,,,,,,,,,,,,,,,,,,,,,,2071.5795559999824,2071.594166099996,2071.594166099996,2072.0942536999937,2072.0942536999937,2074.594093599997,2074.594093599997,2074.5782018000027,None,1,,,,,,,,,,,,,,,,,,,,,,,,nback47,001,2024-01-10_17h27.02.843,untitled,2023.2.3,59.95703478279254,2024-01-10 17h50.51.614914 -0500,
3,"[0, 0.2]",None,,,,,0,24,24,24,,,,,2074.594093599997,,,,,,,,,,,,,,,,,,,,,,,,,,,,,,,,,,,,,,,,,,,,,,2074.578844899981,2074.594093599997,2074.594093599997,2075.0940909000055,2075.0940909000055,2077.593989599991,2077.593989599991,2077.578319799999,None,1,,,,,,,,,,,,,,,,,,,,,,,,nback47,001,2024-01-10_17h27.02.843,untitled,2023.2.3,59.95703478279254,2024-01-10 17h50.51.614914 -0500,
6,"[-0.3, 0]",None,,,,,0,25,25,25,,,,,2077.593989599991,,,,,,,,,,,,,,,,,,,,,,,,,,,,,,,,,,,,,,,,,,,,,,2077.5790092999814,2077.593989599991,2077.593989599991,2078.0940787,2078.0940787,2080.5940787,2080.5940787,2080.5779877000023,None,1,,,,,,,,,,,,,,,,,,,,,,,,nback47,001,2024-01-10_17h27.02.843,untitled,2023.2.3,59.95703478279254,2024-01-10 17h50.51.614914 -0500,
1,"[-0.64, 0.4]",None,,,,,0,26,26,26,,,,,2080.5940787,,,,,,,,,,,,,,,,,,,,,,,,,,,,,,,,,,,,,,,,,,,,,,2080.578630200005,2080.5940787,2080.5940787,2081.0939055999916,2081.0939055999916,2083.5940137,2083.5940137,2083.578079500003,None,1,,,,,,,,,,,,,,,,,,,,,,,,nback47,001,2024-01-10_17h27.02.843,untitled,2023.2.3,59.95703478279254,2024-01-10 17h50.51.614914 -0500,
1,"[-0.64, 0.4]",space,,,,,0,27,27,27,,,,,2083.5940137,,,,,,,,,,,,,,,,,,,,,,,,,,,,,,,,,,,,,,,,,,,,,,2083.57871479998,2083.5940137,2083.5940137,2084.0941004999913,2084.0941004999913,2086.5941007999936,2086.5941007999936,2086.5783316000015,space,1,0.33277340000495315,None,,,,,,,,,,,,,,,,,,,,,,nback47,001,2024-01-10_17h27.02.843,untitled,2023.2.3,59.95703478279254,2024-01-10 17h50.51.614914 -0500,
1,"[-0.64, 0.4]",space,,,,,0,28,28,28,,,,,2086.5941007999936,,,,,,,,,,,,,,,,,,,,,,,,,,,,,,,,,,,,,,,,,,,,,,2086.5792235999834,2086.5941007999936,2086.5941007999936,2087.09394359999,2087.09394359999,2089.5938995000033,2089.5938995000033,2089.577905299986,None,0,,,,,,,,,,,,,,,,,,,,,,,,nback47,001,2024-01-10_17h27.02.843,untitled,2023.2.3,59.95703478279254,2024-01-10 17h50.51.614914 -0500,
3,"[0, 0.2]",None,,,,,0,29,29,29,,,,,2089.5938995000033,,,,,,,,,,,,,,,,,,,,,,,,,,,,,,,,,,,,,,,,,,,,,,2089.578549400001,2089.5938995000033,2089.5938995000033,2090.0938279999828,2090.0938279999828,2092.5939074000053,2092.5939074000053,2092.5783633999818,None,1,,,,,,,,,,,,,,,,,,,,,,,,nback47,001,2024-01-10_17h27.02.843,untitled,2023.2.3,59.95703478279254,2024-01-10 17h50.51.614914 -0500,
12,"[0.64, -0.4]",None,,,,,0,30,30,30,,,,,2092.5939074000053,,,,,,,,,,,,,,,,,,,,,,,,,,,,,,,,,,,,,,,,,,,,,,2092.5790945999906,2092.5939074000053,2092.5939074000053,2093.093948199996,2093.093948199996,2095.593770699983,2095.593770699983,2095.577840999991,None,1,,,,,,,,,,,,,,,,,,,,,,,,nback47,001,2024-01-10_17h27.02.843,untitled,2023.2.3,59.95703478279254,2024-01-10 17h50.51.614914 -0500,
12,"[0.64, -0.4]",space,,,,,0,31,31,31,,,,,2095.593770699983,,,,,,,,,,,,,,,,,,,,,,,,,,,,,,,,,,,,,,,,,,,,,,2095.5783974999795,2095.593770699983,2095.593770699983,2096.0938559999922,2096.0938559999922,2098.593743799982,2098.593743799982,2098.577785899979,space,1,0.504040800005896,None,,,,,,,,,,,,,,,,,,,,,,nback47,001,2024-01-10_17h27.02.843,untitled,2023.2.3,59.95703478279254,2024-01-10 17h50.51.614914 -0500,
2,"[0.64, 0.4]",None,,,,,0,32,32,32,,,,,2098.593743799982,,,,,,,,,,,,,,,,,,,,,,,,,,,,,,,,,,,,,,,,,,,,,,2098.578557800007,2098.593743799982,2098.593743799982,2099.093647200003,2099.093647200003,2101.5937413999927,2101.5937413999927,2101.5780801000074,None,1,,,,,,,,,,,,,,,,,,,,,,,,nback47,001,2024-01-10_17h27.02.843,untitled,2023.2.3,59.95703478279254,2024-01-10 17h50.51.614914 -0500,
1,"[-0.64, 0.4]",None,,,,,0,33,33,33,,,,,2101.5937413999927,,,,,,,,,,,,,,,,,,,,,,,,,,,,,,,,,,,,,,,,,,,,,,2101.578849399986,2101.5937413999927,2101.5937413999927,2102.093845800002,2102.093845800002,2104.5935997999914,2104.5935997999914,2104.5774604000035,None,1,,,,,,,,,,,,,,,,,,,,,,,,nback47,001,2024-01-10_17h27.02.843,untitled,2023.2.3,59.95703478279254,2024-01-10 17h50.51.614914 -0500,
7,"[0.3, 0]",None,,,,,0,34,34,34,,,,,2104.5935997999914,,,,,,,,,,,,,,,,,,,,,,,,,,,,,,,,,,,,,,,,,,,,,,2104.578014400002,2104.5935997999914,2104.5935997999914,2105.0935866000073,2105.0935866000073,2107.5936950999894,2107.5936950999894,2107.5776228999894,None,1,,,,,,,,,,,,,,,,,,,,,,,,nback47,001,2024-01-10_17h27.02.843,untitled,2023.2.3,59.95703478279254,2024-01-10 17h50.51.614914 -0500,
7,"[0.3, 0]",space,,,,,0,35,35,35,,,,,2107.5936950999894,,,,,,,,,,,,,,,,,,,,,,,,,,,,,,,,,,,,,,,,,,,,,,2107.5782640999823,2107.5936950999894,2107.5936950999894,2108.0937098999857,2108.0937098999857,2110.5936477999785,2110.5936477999785,2110.5778510999808,space,1,1.0003598000039347,None,,,,,,,,,,,,,,,,,,,,,,nback47,001,2024-01-10_17h27.02.843,untitled,2023.2.3,59.95703478279254,2024-01-10 17h50.51.614914 -0500,
11,"[-0.64, -0.4]",None,,,,,0,36,36,36,,,,,2110.5936477999785,,,,,,,,,,,,,,,,,,,,,,,,,,,,,,,,,,,,,,,,,,,,,,2110.5787704999966,2110.5936477999785,2110.5936477999785,2111.0935155999905,2111.0935155999905,2113.5934766999853,2113.5934766999853,2113.577612299996,None,1,,,,,,,,,,,,,,,,,,,,,,,,nback47,001,2024-01-10_17h27.02.843,untitled,2023.2.3,59.95703478279254,2024-01-10 17h50.51.614914 -0500,
2,"[0.64, 0.4]",None,,,,,0,37,37,37,,,,,2113.5934766999853,,,,,,,,,,,,,,,,,,,,,,,,,,,,,,,,,,,,,,,,,,,,,,2113.578333799989,2113.5934766999853,2113.5934766999853,2114.093489699997,2114.093489699997,2116.5934863,2116.5934863,2116.5776985999837,None,1,,,,,,,,,,,,,,,,,,,,,,,,nback47,001,2024-01-10_17h27.02.843,untitled,2023.2.3,59.95703478279254,2024-01-10 17h50.51.614914 -0500,
6,"[-0.3, 0]",None,,,,,0,38,38,38,,,,,2116.5934863,,,,,,,,,,,,,,,,,,,,,,,,,,,,,,,,,,,,,,,,,,,,,,2116.5783111999917,2116.5934863,2116.5934863,2117.0933728999807,2117.0933728999807,2119.593442799989,2119.593442799989,2119.577422799979,None,1,,,,,,,,,,,,,,,,,,,,,,,,nback47,001,2024-01-10_17h27.02.843,untitled,2023.2.3,59.95703478279254,2024-01-10 17h50.51.614914 -0500,
10,"[0, -0.2]",None,,,,,0,39,39,39,,,,,2119.593442799989,,,,,,,,,,,,,,,,,,,,,,,,,,,,,,,,,,,,,,,,,,,,,,2119.578093499993,2119.593442799989,2119.593442799989,2120.093490200001,2120.093490200001,2122.593505800003,2122.593505800003,2122.577863399987,None,1,,,,,,,,,,,,,,,,,,,,,,,,nback47,001,2024-01-10_17h27.02.843,untitled,2023.2.3,59.95703478279254,2024-01-10 17h50.51.614914 -0500,
,,,,,,,,,,,,,,,,,,,,,,,,,,,,,,,,,,,,,,,,,,,,,,,,,,,,,,,,,,,,,,,,,,,,,,,,,2122.578400600003,2122.593505800003,2122.593505800003,2136.4611929999955,space,13.861520499980543,None,,,,,,,,,,,,,,,nback47,001,2024-01-10_17h27.02.843,untitled,2023.2.3,59.95703478279254,2024-01-10 17h50.51.614914 -0500,
,"[0.2, 0.1]",None,,,,,,,,,0,0,0,0,2137.478722400003,,,,,,,,,,,,,,,,,,,,,,,,2136.461228500004,2136.4766678999877,2137.478722400003,2137.4606509000005,,,,,,,,,,,,,,,,,,,,,,,,,,,,,,,,,,,,,,2137.476625499985,2137.478722400003,2137.478722400003,2137.9763956999814,2137.9932052999793,2140.4765093000024,2140.476700900006,None,1,,,,,,nback47,001,2024-01-10_17h27.02.843,untitled,2023.2.3,59.95703478279254,2024-01-10 17h50.51.614914 -0500,
,"[0.64, 0.4]",None,,,,,,,,,0,1,1,1,2140.4930892999982,,,,,,,,,,,,,,,,,,,,,,,,,,,,,,,,,,,,,,,,,,,,,,,,,,,,,,,,,,,,,,,,,2140.477626399981,2140.4930892999982,2140.4930892999982,2140.976787099993,2140.9930437000003,2143.476439799997,2143.4766211999813,None,1,,,,,,nback47,001,2024-01-10_17h27.02.843,untitled,2023.2.3,59.95703478279254,2024-01-10 17h50.51.614914 -0500,
,"[-0.3, 0]",None,,,,,,,,,0,2,2,2,2143.49307159998,,,,,,,,,,,,,,,,,,,,,,,,,,,,,,,,,,,,,,,,,,,,,,,,,,,,,,,,,,,,,,,,,2143.477374499984,2143.49307159998,2143.49307159998,2143.9763865999994,2143.993040500005,2146.476493199996,2146.4766812000016,None,1,,,,,,nback47,001,2024-01-10_17h27.02.843,untitled,2023.2.3,59.95703478279254,2024-01-10 17h50.51.614914 -0500,
,"[0.2, -0.1]",None,,,,,,,,,0,3,3,3,2146.492995799985,,,,,,,,,,,,,,,,,,,,,,,,,,,,,,,,,,,,,,,,,,,,,,,,,,,,,,,,,,,,,,,,,2146.4775582999864,2146.492995799985,2146.492995799985,2146.9761950999964,2146.992957099981,2149.476288899983,2149.4764791000052,None,1,,,,,,nback47,001,2024-01-10_17h27.02.843,untitled,2023.2.3,59.95703478279254,2024-01-10 17h50.51.614914 -0500,
,"[0, 0.2]",None,,,,,,,,,0,4,4,4,2149.492885099986,,,,,,,,,,,,,,,,,,,,,,,,,,,,,,,,,,,,,,,,,,,,,,,,,,,,,,,,,,,,,,,,,2149.477225599985,2149.492885099986,2149.492885099986,2149.9764379999833,2149.9927667999873,2152.476244099991,2152.4764140000043,None,1,,,,,,nback47,001,2024-01-10_17h27.02.843,untitled,2023.2.3,59.95703478279254,2024-01-10 17h50.51.614914 -0500,
,"[0.2, -0.1]",space,,,,,,,,,0,5,5,5,2152.492895500007,,,,,,,,,,,,,,,,,,,,,,,,,,,,,,,,,,,,,,,,,,,,,,,,,,,,,,,,,,,,,,,,,2152.4770926999918,2152.492895500007,2152.492895500007,2152.9762319999863,2152.9926866999886,2155.4762753999967,2155.476467600005,space,1,0.5122685999958776,None,,,,nback47,001,2024-01-10_17h27.02.843,untitled,2023.2.3,59.95703478279254,2024-01-10 17h50.51.614914 -0500,
,"[0, -0.2]",None,,,,,,,,,0,6,6,6,2155.49275819998,,,,,,,,,,,,,,,,,,,,,,,,,,,,,,,,,,,,,,,,,,,,,,,,,,,,,,,,,,,,,,,,,2155.477430400002,2155.49275819998,2155.49275819998,2155.97630129999,2155.9929808999877,2158.476116399979,2158.476293399988,None,1,,,,,,nback47,001,2024-01-10_17h27.02.843,untitled,2023.2.3,59.95703478279254,2024-01-10 17h50.51.614914 -0500,
,"[0.64, -0.4]",None,,,,,,,,,0,7,7,7,2158.4928489000013,,,,,,,,,,,,,,,,,,,,,,,,,,,,,,,,,,,,,,,,,,,,,,,,,,,,,,,,,,,,,,,,,2158.476976999984,2158.4928489000013,2158.4928489000013,2158.9761925000057,2158.992901299993,2161.476275599998,2161.476444300002,None,1,,,,,,nback47,001,2024-01-10_17h27.02.843,untitled,2023.2.3,59.95703478279254,2024-01-10 17h50.51.614914 -0500,
,"[0.3, 0]",None,,,,,,,,,0,8,8,8,2161.492761100002,,,,,,,,,,,,,,,,,,,,,,,,,,,,,,,,,,,,,,,,,,,,,,,,,,,,,,,,,,,,,,,,,2161.4770835999807,2161.492761100002,2161.492761100002,2161.976176700002,2161.992702699994,2164.476021999988,2164.4761892999813,None,1,,,,,,nback47,001,2024-01-10_17h27.02.843,untitled,2023.2.3,59.95703478279254,2024-01-10 17h50.51.614914 -0500,
,"[0.64, -0.4]",space,,,,,,,,,0,9,9,9,2164.4927720999985,,,,,,,,,,,,,,,,,,,,,,,,,,,,,,,,,,,,,,,,,,,,,,,,,,,,,,,,,,,,,,,,,2164.4768785999913,2164.4927720999985,2164.4927720999985,2164.9762838000024,2164.992701499985,2167.476097100007,2167.476276500005,space,1,0.3954231000097934,None,,,,nback47,001,2024-01-10_17h27.02.843,untitled,2023.2.3,59.95703478279254,2024-01-10 17h50.51.614914 -0500,
,"[-0.64, 0.4]",None,,,,,,,,,0,10,10,10,2167.492682799988,,,,,,,,,,,,,,,,,,,,,,,,,,,,,,,,,,,,,,,,,,,,,,,,,,,,,,,,,,,,,,,,,2167.477134399989,2167.492682799988,2167.492682799988,2167.976033599989,2167.992610699992,2170.476197699987,2170.4763993999804,None,1,,,,,,nback47,001,2024-01-10_17h27.02.843,untitled,2023.2.3,59.95703478279254,2024-01-10 17h50.51.614914 -0500,
,"[0.2, 0.1]",None,,,,,,,,,0,11,11,11,2170.492769400007,,,,,,,,,,,,,,,,,,,,,,,,,,,,,,,,,,,,,,,,,,,,,,,,,,,,,,,,,,,,,,,,,2170.47725929998,2170.492769400007,2170.492769400007,2170.975903399987,2170.992517100007,2173.476067999989,2173.476271199994,None,1,,,,,,nback47,001,2024-01-10_17h27.02.843,untitled,2023.2.3,59.95703478279254,2024-01-10 17h50.51.614914 -0500,
,"[0.3, 0]",None,,,,,,,,,0,12,12,12,2173.492552699987,,,,,,,,,,,,,,,,,,,,,,,,,,,,,,,,,,,,,,,,,,,,,,,,,,,,,,,,,,,,,,,,,2173.477121599979,2173.492552699987,2173.492552699987,2173.9758211000008,2173.9924603999825,2176.475800999993,2176.475951600005,None,1,,,,,,nback47,001,2024-01-10_17h27.02.843,untitled,2023.2.3,59.95703478279254,2024-01-10 17h50.51.614914 -0500,
,"[0.2, 0.1]",space,,,,,,,,,0,13,13,13,2176.49253019999,,,,,,,,,,,,,,,,,,,,,,,,,,,,,,,,,,,,,,,,,,,,,,,,,,,,,,,,,,,,,,,,,2176.476546799997,2176.49253019999,2176.49253019999,2176.9757906000013,2176.9924536999897,2179.475794099999,2179.4759673999797,space,1,1.0726625000243075,None,,,,nback47,001,2024-01-10_17h27.02.843,untitled,2023.2.3,59.95703478279254,2024-01-10 17h50.51.614914 -0500,
,"[-0.3, 0]",None,,,,,,,,,0,14,14,14,2179.4925084999995,,,,,,,,,,,,,,,,,,,,,,,,,,,,,,,,,,,,,,,,,,,,,,,,,,,,,,,,,,,,,,,,,2179.4768571000022,2179.4925084999995,2179.4925084999995,2179.9757385999837,2179.9923534999834,2182.475779200002,2182.475977299997,None,1,,,,,,nback47,001,2024-01-10_17h27.02.843,untitled,2023.2.3,59.95703478279254,2024-01-10 17h50.51.614914 -0500,
,"[0, 0.2]",None,,,,,,,,,0,15,15,15,2182.49241169999,,,,,,,,,,,,,,,,,,,,,,,,,,,,,,,,,,,,,,,,,,,,,,,,,,,,,,,,,,,,,,,,,2182.4767780999828,2182.49241169999,2182.49241169999,2182.9757179000007,2182.9923407000024,2185.475695800007,2185.475920900004,None,1,,,,,,nback47,001,2024-01-10_17h27.02.843,untitled,2023.2.3,59.95703478279254,2024-01-10 17h50.51.614914 -0500,
,"[-0.3, 0]",space,,,,,,,,,0,16,16,16,2185.492347499996,,,,,,,,,,,,,,,,,,,,,,,,,,,,,,,,,,,,,,,,,,,,,,,,,,,,,,,,,,,,,,,,,2185.476646199997,2185.492347499996,2185.492347499996,2185.9757344999816,2185.9924790999794,2188.4757149999787,2188.4758837999834,space,1,0.9445687000115868,None,,,,nback47,001,2024-01-10_17h27.02.843,untitled,2023.2.3,59.95703478279254,2024-01-10 17h50.51.614914 -0500,
,"[-0.64, -0.4]",None,,,,,,,,,0,17,17,17,2188.4922668999934,,,,,,,,,,,,,,,,,,,,,,,,,,,,,,,,,,,,,,,,,,,,,,,,,,,,,,,,,,,,,,,,,2188.4766609999933,2188.4922668999934,2188.4922668999934,2188.975657999981,2188.992485099996,2191.4756093999895,2191.47578779998,None,1,,,,,,nback47,001,2024-01-10_17h27.02.843,untitled,2023.2.3,59.95703478279254,2024-01-10 17h50.51.614914 -0500,
,"[-0.2, -0.1]",None,,,,,,,,,0,18,18,18,2191.492249999981,,,,,,,,,,,,,,,,,,,,,,,,,,,,,,,,,,,,,,,,,,,,,,,,,,,,,,,,,,,,,,,,,2191.4765213000064,2191.492249999981,2191.492249999981,2191.975660199998,2191.9922664999904,2194.4755724999995,2194.4757492000062,None,1,,,,,,nback47,001,2024-01-10_17h27.02.843,untitled,2023.2.3,59.95703478279254,2024-01-10 17h50.51.614914 -0500,
,"[0.2, -0.1]",None,,,,,,,,,0,19,19,19,2194.4921639999957,,,,,,,,,,,,,,,,,,,,,,,,,,,,,,,,,,,,,,,,,,,,,,,,,,,,,,,,,,,,,,,,,2194.4764297000074,2194.4921639999957,2194.4921639999957,2194.975525899994,2194.9922109000036,2197.475581100007,2197.475781999994,None,1,,,,,,nback47,001,2024-01-10_17h27.02.843,untitled,2023.2.3,59.95703478279254,2024-01-10 17h50.51.614914 -0500,
,"[0.2, -0.1]",None,,,,,,,,,0,20,20,20,2197.4922560999985,,,,,,,,,,,,,,,,,,,,,,,,,,,,,,,,,,,,,,,,,,,,,,,,,,,,,,,,,,,,,,,,,2197.476466699998,2197.4922560999985,2197.4922560999985,2197.975684300007,2197.992102899996,2200.475677599985,2200.4758444000036,None,1,,,,,,nback47,001,2024-01-10_17h27.02.843,untitled,2023.2.3,59.95703478279254,2024-01-10 17h50.51.614914 -0500,
,"[-0.64, 0.4]",None,,,,,,,,,0,21,21,21,2200.4921876000008,,,,,,,,,,,,,,,,,,,,,,,,,,,,,,,,,,,,,,,,,,,,,,,,,,,,,,,,,,,,,,,,,2200.4764893999964,2200.4921876000008,2200.4921876000008,2200.975440099981,2200.9922113000066,2203.4754208999802,2203.4755903999903,None,1,,,,,,nback47,001,2024-01-10_17h27.02.843,untitled,2023.2.3,59.95703478279254,2024-01-10 17h50.51.614914 -0500,
,"[0, 0.2]",None,,,,,,,,,0,22,22,22,2203.4920264999964,,,,,,,,,,,,,,,,,,,,,,,,,,,,,,,,,,,,,,,,,,,,,,,,,,,,,,,,,,,,,,,,,2203.4762647000025,2203.4920264999964,2203.4920264999964,2203.9755678999936,2203.992221099994,2206.475368299987,2206.475547399983,None,1,,,,,,nback47,001,2024-01-10_17h27.02.843,untitled,2023.2.3,59.95703478279254,2024-01-10 17h50.51.614914 -0500,
,"[0.64, -0.4]",None,,,,,,,,,0,23,23,23,2206.4920724999974,,,,,,,,,,,,,,,,,,,,,,,,,,,,,,,,,,,,,,,,,,,,,,,,,,,,,,,,,,,,,,,,,2206.476261999982,2206.4920724999974,2206.4920724999974,2206.9753862999787,2206.9918386999925,2209.475316199998,2209.4754867999873,None,1,,,,,,nback47,001,2024-01-10_17h27.02.843,untitled,2023.2.3,59.95703478279254,2024-01-10 17h50.51.614914 -0500,
,"[0, 0.2]",space,,,,,,,,,0,24,24,24,2209.491848000005,,,,,,,,,,,,,,,,,,,,,,,,,,,,,,,,,,,,,,,,,,,,,,,,,,,,,,,,,,,,,,,,,2209.476216899988,2209.491848000005,2209.491848000005,2209.975240700005,2209.9919623000023,2212.475218399981,2212.475440399983,space,1,0.9957158000033814,None,,,,nback47,001,2024-01-10_17h27.02.843,untitled,2023.2.3,59.95703478279254,2024-01-10 17h50.51.614914 -0500,
,"[-0.2, 0.1]",None,,,,,,,,,0,25,25,25,2212.4918642999837,,,,,,,,,,,,,,,,,,,,,,,,,,,,,,,,,,,,,,,,,,,,,,,,,,,,,,,,,,,,,,,,,2212.4762559999945,2212.4918642999837,2212.4918642999837,2212.975339800003,2212.992071399989,2215.475320800004,2215.4754917999962,None,1,,,,,,nback47,001,2024-01-10_17h27.02.843,untitled,2023.2.3,59.95703478279254,2024-01-10 17h50.51.614914 -0500,
,"[0.3, 0]",None,,,,,,,,,0,26,26,26,2215.492005999986,,,,,,,,,,,,,,,,,,,,,,,,,,,,,,,,,,,,,,,,,,,,,,,,,,,,,,,,,,,,,,,,,2215.4761522999906,2215.492005999986,2215.492005999986,2215.975171600003,2215.991953699995,2218.475141200004,2218.475309500005,None,1,,,,,,nback47,001,2024-01-10_17h27.02.843,untitled,2023.2.3,59.95703478279254,2024-01-10 17h50.51.614914 -0500,
,"[-0.2, 0.1]",space,,,,,,,,,0,27,27,27,2218.491739899997,,,,,,,,,,,,,,,,,,,,,,,,,,,,,,,,,,,,,,,,,,,,,,,,,,,,,,,,,,,,,,,,,2218.4759567999863,2218.491739899997,2218.491739899997,2218.9751073999796,2218.991936799983,2221.475277099991,2221.4754402999824,space,1,1.1525013000064064,None,,,,nback47,001,2024-01-10_17h27.02.843,untitled,2023.2.3,59.95703478279254,2024-01-10 17h50.51.614914 -0500,
,"[-0.2, 0.1]",None,,,,,,,,,0,28,28,28,2221.4918063999794,,,,,,,,,,,,,,,,,,,,,,,,,,,,,,,,,,,,,,,,,,,,,,,,,,,,,,,,,,,,,,,,,2221.4763035999786,2221.4918063999794,2221.4918063999794,2221.9752457999857,2221.9917648999835,2224.475136699999,2224.475313300005,None,1,,,,,,nback47,001,2024-01-10_17h27.02.843,untitled,2023.2.3,59.95703478279254,2024-01-10 17h50.51.614914 -0500,
,"[0.2, 0.1]",None,,,,,,,,,0,29,29,29,2224.4918079999916,,,,,,,,,,,,,,,,,,,,,,,,,,,,,,,,,,,,,,,,,,,,,,,,,,,,,,,,,,,,,,,,,2224.4760242000048,2224.4918079999916,2224.4918079999916,2224.975216299994,2224.9917205999955,2227.475097699993,2227.4752563000075,None,1,,,,,,nback47,001,2024-01-10_17h27.02.843,untitled,2023.2.3,59.95703478279254,2024-01-10 17h50.51.614914 -0500,
,"[-0.64, -0.4]",None,,,,,,,,,0,30,30,30,2227.4916459999804,,,,,,,,,,,,,,,,,,,,,,,,,,,,,,,,,,,,,,,,,,,,,,,,,,,,,,,,,,,,,,,,,2227.475867500005,2227.4916459999804,2227.4916459999804,2227.97514949998,2227.9918109999853,2230.4750544999843,2230.4752181999793,None,1,,,,,,nback47,001,2024-01-10_17h27.02.843,untitled,2023.2.3,59.95703478279254,2024-01-10 17h50.51.614914 -0500,
,"[0, -0.2]",None,,,,,,,,,0,31,31,31,2230.4915621999826,,,,,,,,,,,,,,,,,,,,,,,,,,,,,,,,,,,,,,,,,,,,,,,,,,,,,,,,,,,,,,,,,2230.475908399996,2230.4915621999826,2230.4915621999826,2230.9750341000035,2230.991527999984,2233.4749391999794,2233.4751417999796,None,1,,,,,,nback47,001,2024-01-10_17h27.02.843,untitled,2023.2.3,59.95703478279254,2024-01-10 17h50.51.614914 -0500,
,"[-0.64, -0.4]",space,,,,,,,,,0,32,32,32,2233.4914970999816,,,,,,,,,,,,,,,,,,,,,,,,,,,,,,,,,,,,,,,,,,,,,,,,,,,,,,,,,,,,,,,,,2233.475857099984,2233.4914970999816,2233.4914970999816,2233.9749777999823,2233.991651999997,2236.4747725999914,2236.4749400999863,space,1,1.0399029000254814,None,,,,nback47,001,2024-01-10_17h27.02.843,untitled,2023.2.3,59.95703478279254,2024-01-10 17h50.51.614914 -0500,
,"[0.64, 0.4]",None,,,,,,,,,0,33,33,33,2236.491550000006,,,,,,,,,,,,,,,,,,,,,,,,,,,,,,,,,,,,,,,,,,,,,,,,,,,,,,,,,,,,,,,,,2236.4757188999793,2236.491550000006,2236.491550000006,2236.9748832999903,2236.991523899982,2239.474956799997,2239.475159900001,None,1,,,,,,nback47,001,2024-01-10_17h27.02.843,untitled,2023.2.3,59.95703478279254,2024-01-10 17h50.51.614914 -0500,
,"[-0.3, 0]",None,,,,,,,,,0,34,34,34,2239.491466199979,,,,,,,,,,,,,,,,,,,,,,,,,,,,,,,,,,,,,,,,,,,,,,,,,,,,,,,,,,,,,,,,,2239.4759214999794,2239.491466199979,2239.491466199979,2239.974842900003,2239.9914145999937,2242.474861099996,2242.475050399982,None,1,,,,,,nback47,001,2024-01-10_17h27.02.843,untitled,2023.2.3,59.95703478279254,2024-01-10 17h50.51.614914 -0500,
,"[0.3, 0]",None,,,,,,,,,0,35,35,35,2242.4915542999806,,,,,,,,,,,,,,,,,,,,,,,,,,,,,,,,,,,,,,,,,,,,,,,,,,,,,,,,,,,,,,,,,2242.4758007999917,2242.4915542999806,2242.4915542999806,2242.9749445999914,2242.991381700005,2245.474916199979,2245.475108999992,None,1,,,,,,nback47,001,2024-01-10_17h27.02.843,untitled,2023.2.3,59.95703478279254,2024-01-10 17h50.51.614914 -0500,
,"[-0.3, 0]",space,,,,,,,,,0,36,36,36,2245.491323299997,,,,,,,,,,,,,,,,,,,,,,,,,,,,,,,,,,,,,,,,,,,,,,,,,,,,,,,,,,,,,,,,,2245.47591009998,2245.491323299997,2245.491323299997,2245.9748077999975,2245.9914445999893,2248.4748775000044,2248.4750779999886,space,1,0.8977280000108294,None,,,,nback47,001,2024-01-10_17h27.02.843,untitled,2023.2.3,59.95703478279254,2024-01-10 17h50.51.614914 -0500,
,"[0, -0.2]",None,,,,,,,,,0,37,37,37,2248.491401199979,,,,,,,,,,,,,,,,,,,,,,,,,,,,,,,,,,,,,,,,,,,,,,,,,,,,,,,,,,,,,,,,,2248.4760450999893,2248.491401199979,2248.491401199979,2248.9747033999884,2248.9913309999974,2251.474682400003,2251.474850700004,None,1,,,,,,nback47,001,2024-01-10_17h27.02.843,untitled,2023.2.3,59.95703478279254,2024-01-10 17h50.51.614914 -0500,
,"[0.3, 0]",None,,,,,,,,,0,38,38,38,2251.491520199983,,,,,,,,,,,,,,,,,,,,,,,,,,,,,,,,,,,,,,,,,,,,,,,,,,,,,,,,,,,,,,,,,2251.475492800004,2251.491520199983,2251.491520199983,2251.974616099993,2251.9912865999795,2254.4746382999874,2254.474815499998,None,1,,,,,,nback47,001,2024-01-10_17h27.02.843,untitled,2023.2.3,59.95703478279254,2024-01-10 17h50.51.614914 -0500,
,"[0.2, 0.1]",None,,,,,,,,,0,39,39,39,2254.4913648999936,,,,,,,,,,,,,,,,,,,,,,,,,,,,,,,,,,,,,,,,,,,,,,,,,,,,,,,,,,,,,,,,,2254.475521399989,2254.4913648999936,2254.4913648999936,2254.974851999985,2254.9914333999914,2257.4746358999982,2257.4748496999964,None,1,,,,,,nback47,001,2024-01-10_17h27.02.843,untitled,2023.2.3,59.95703478279254,2024-01-10 17h50.51.614914 -0500,
,,,,,,,,,,,,,,,,,,,,,,,,,,,,,,,,,,,,,,,,,,,,,,,,,,,,,,,,,,,,,,,,,,,,,,,,,,,,,,,,,,,,,,,,,,,2257.475426899997,2257.491333199985,2260.474954300007,,,,,,,,
