square,location,corrAns,trials_0.thisRepN,trials_0.thisTrialN,trials_0.thisN,trials_0.thisIndex,trials_1.thisRepN,trials_1.thisTrialN,trials_1.thisN,trials_1.thisIndex,trials_2.thisRepN,trials_2.thisTrialN,trials_2.thisN,trials_2.thisIndex,thisRow.t,notes,Instructions.started,instructions.started,key_resp.started,inst_sq11.started,Instructions.stopped,key_resp.keys,key_resp.rt,key_resp.duration,All.started,sq_1.started,sq_2.started,sq_3.started,sq_4.started,sq_5.started,sq_6.started,sq_7.started,sq_8.started,sq_9.started,sq_10.started,sq_11.started,sq_12.started,All.stopped,Fixation.started,fixation_3.started,fixation_3.stopped,Fixation.stopped,N_back_0_Trial.started,target_square_0.started,response_0.started,fixation_0.started,target_square_0.stopped,fixation_0.stopped,response_0.stopped,N_back_0_Trial.stopped,response_0.keys,response_0.corr,response_0.rt,response_0.duration,Instructions_1.started,instructions_1.started,key_resp_1.started,Instructions_1.stopped,key_resp_1.keys,key_resp_1.rt,key_resp_1.duration,N_back_1_Trial.started,target_square_1.started,response_1.started,target_square_1.stopped,fixation_1.started,fixation_1.stopped,response_1.stopped,N_back_1_Trial.stopped,response_1.keys,response_1.corr,response_1.rt,response_1.duration,Instructions_2.started,instructions_2.started,key_resp_2.started,Instructions_2.stopped,key_resp_2.keys,key_resp_2.rt,key_resp_2.duration,N_back_2_trials.started,target_square_2.started,response_2.started,target_square_2.stopped,fixation_2.started,fixation_2.stopped,response_2.stopped,N_back_2_trials.stopped,response_2.keys,response_2.corr,response_2.rt,response_2.duration,End.started,thank_you.started,thank_you.stopped,End.stopped,participant,session,date,expName,psychopyVersion,frameRate,expStart,
,,,,,,,,,,,,,,,,,0.0014533000066876411,0.008067799994023517,0.008067799994023517,0.008067799994023517,35.499910699989414,space,35.48635459999787,None,,,,,,,,,,,,,,,,,,,,,,,,,,,,,,,,,,,,,,,,,,,,,,,,,,,,,,,,,,,,,,,,,,,,,,,,,nback28,001,2023-12-14_17h46.02.251,untitled,2023.2.3,60.02339712716013,2023-12-14 18h29.07.666701 -0500,
6,"[-0.3, 0]",None,0,0,0,0,,,,,,,,,37.51500970000052,,,,,,,,,,35.49994159999187,35.5150394999946,35.5150394999946,35.5150394999946,35.5150394999946,35.5150394999946,35.5150394999946,35.5150394999946,35.5150394999946,35.5150394999946,35.5150394999946,35.5150394999946,35.5150394999946,36.49903259999701,36.49904759999481,36.514969599986216,37.51500970000052,37.49925799999619,37.51177139999345,37.51500970000052,37.51500970000052,37.998346199980006,38.01498390000779,40.498496599990176,40.51507729999139,40.49928429999272,None,1,,,,,,,,,,,,,,,,,,,,,,,,,,,,,,,,,,,,,,,,,,,,,nback28,001,2023-12-14_17h46.02.251,untitled,2023.2.3,60.02339712716013,2023-12-14 18h29.07.666701 -0500,
10,"[0, -0.2]",None,0,1,1,1,,,,,,,,,40.51507729999139,,,,,,,,,,,,,,,,,,,,,,,,,,,,40.500173299980816,40.51507729999139,40.51507729999139,40.99833719999879,41.014973899989855,43.498502400005236,43.515174000000115,43.49940780000179,None,1,,,,,,,,,,,,,,,,,,,,,,,,,,,,,,,,,,,,,,,,,,,,,nback28,001,2023-12-14_17h46.02.251,untitled,2023.2.3,60.02339712716013,2023-12-14 18h29.07.666701 -0500,
11,"[-0.64, -0.4]",space,0,2,2,2,,,,,,,,,43.515174000000115,,,,,,,,,,,,,,,,,,,,,,,,,,,,43.50023669999791,43.515174000000115,43.515174000000115,43.998296300007496,44.01498239999637,46.498215400002664,46.5150262999814,46.49912459999905,space,1,0.4233749999839347,None,,,,,,,,,,,,,,,,,,,,,,,,,,,,,,,,,,,,,,,,,,,nback28,001,2023-12-14_17h46.02.251,untitled,2023.2.3,60.02339712716013,2023-12-14 18h29.07.666701 -0500,
12,"[0.64, -0.4]",None,0,3,3,3,,,,,,,,,46.5150262999814,,,,,,,,,,,,,,,,,,,,,,,,,,,,46.500219199981075,46.5150262999814,46.5150262999814,46.998245900002075,47.01492529999814,49.49832869999227,49.514884999982314,49.49928910000017,None,1,,,,,,,,,,,,,,,,,,,,,,,,,,,,,,,,,,,,,,,,,,,,,nback28,001,2023-12-14_17h46.02.251,untitled,2023.2.3,60.02339712716013,2023-12-14 18h29.07.666701 -0500,
1,"[-0.64, 0.4]",None,0,4,4,4,,,,,,,,,49.514884999982314,,,,,,,,,,,,,,,,,,,,,,,,,,,,49.50015119998716,49.514884999982314,49.514884999982314,49.99835829998483,50.01505210000323,52.49820770000224,52.51475689999643,52.49892270000419,None,1,,,,,,,,,,,,,,,,,,,,,,,,,,,,,,,,,,,,,,,,,,,,,nback28,001,2023-12-14_17h46.02.251,untitled,2023.2.3,60.02339712716013,2023-12-14 18h29.07.666701 -0500,
1,"[-0.64, 0.4]",None,0,5,5,5,,,,,,,,,52.51475689999643,,,,,,,,,,,,,,,,,,,,,,,,,,,,52.49930530000711,52.51475689999643,52.51475689999643,52.99813429999631,53.014861100004055,55.498228499986,55.51494900000398,55.49914189998526,None,1,,,,,,,,,,,,,,,,,,,,,,,,,,,,,,,,,,,,,,,,,,,,,nback28,001,2023-12-14_17h46.02.251,untitled,2023.2.3,60.02339712716013,2023-12-14 18h29.07.666701 -0500,
4,"[-0.2, 0.1]",None,0,6,6,6,,,,,,,,,55.51494900000398,,,,,,,,,,,,,,,,,,,,,,,,,,,,55.49987749999855,55.51494900000398,55.51494900000398,55.99823659998947,56.01508489999105,58.4980033999891,58.514801899989834,58.49860309998621,None,1,,,,,,,,,,,,,,,,,,,,,,,,,,,,,,,,,,,,,,,,,,,,,nback28,001,2023-12-14_17h46.02.251,untitled,2023.2.3,60.02339712716013,2023-12-14 18h29.07.666701 -0500,
5,"[0.2, 0.1]",None,0,7,7,7,,,,,,,,,58.514801899989834,,,,,,,,,,,,,,,,,,,,,,,,,,,,58.49912100000074,58.514801899989834,58.514801899989834,58.998125899990555,59.01470139998128,61.498105000006035,61.51473199998145,61.49885079998057,None,1,,,,,,,,,,,,,,,,,,,,,,,,,,,,,,,,,,,,,,,,,,,,,nback28,001,2023-12-14_17h46.02.251,untitled,2023.2.3,60.02339712716013,2023-12-14 18h29.07.666701 -0500,
11,"[-0.64, -0.4]",space,0,8,8,8,,,,,,,,,61.51473199998145,,,,,,,,,,,,,,,,,,,,,,,,,,,,61.49972719998914,61.51473199998145,61.51473199998145,61.99802769999951,62.01487439998891,64.49806529999478,64.5147566999949,64.49888599998667,space,1,0.3889192000206094,None,,,,,,,,,,,,,,,,,,,,,,,,,,,,,,,,,,,,,,,,,,,nback28,001,2023-12-14_17h46.02.251,untitled,2023.2.3,60.02339712716013,2023-12-14 18h29.07.666701 -0500,
9,"[0.2, -0.1]",None,0,9,9,9,,,,,,,,,64.5147566999949,,,,,,,,,,,,,,,,,,,,,,,,,,,,64.49981459998526,64.5147566999949,64.5147566999949,65.0147963000054,65.0147963000054,67.51457279999158,67.51457279999158,67.4986558999808,None,1,,,,,,,,,,,,,,,,,,,,,,,,,,,,,,,,,,,,,,,,,,,,,nback28,001,2023-12-14_17h46.02.251,untitled,2023.2.3,60.02339712716013,2023-12-14 18h29.07.666701 -0500,
8,"[-0.2, -0.1]",None,0,10,10,10,,,,,,,,,67.51457279999158,,,,,,,,,,,,,,,,,,,,,,,,,,,,67.49933540000347,67.51457279999158,67.51457279999158,68.01485109998612,68.01485109998612,70.51457569998456,70.51457569998456,70.49876289998065,None,1,,,,,,,,,,,,,,,,,,,,,,,,,,,,,,,,,,,,,,,,,,,,,nback28,001,2023-12-14_17h46.02.251,untitled,2023.2.3,60.02339712716013,2023-12-14 18h29.07.666701 -0500,
9,"[0.2, -0.1]",None,0,11,11,11,,,,,,,,,70.51457569998456,,,,,,,,,,,,,,,,,,,,,,,,,,,,70.49945989999105,70.51457569998456,70.51457569998456,71.01473199998145,71.01473199998145,73.51445879999665,73.51445879999665,73.49871009998606,None,1,,,,,,,,,,,,,,,,,,,,,,,,,,,,,,,,,,,,,,,,,,,,,nback28,001,2023-12-14_17h46.02.251,untitled,2023.2.3,60.02339712716013,2023-12-14 18h29.07.666701 -0500,
6,"[-0.3, 0]",None,0,12,12,12,,,,,,,,,73.51445879999665,,,,,,,,,,,,,,,,,,,,,,,,,,,,73.49936899999739,73.51445879999665,73.51445879999665,74.014588799997,74.014588799997,76.514468999987,76.514468999987,76.49850260000676,None,1,,,,,,,,,,,,,,,,,,,,,,,,,,,,,,,,,,,,,,,,,,,,,nback28,001,2023-12-14_17h46.02.251,untitled,2023.2.3,60.02339712716013,2023-12-14 18h29.07.666701 -0500,
9,"[0.2, -0.1]",None,0,13,13,13,,,,,,,,,76.514468999987,,,,,,,,,,,,,,,,,,,,,,,,,,,,76.49918559999787,76.514468999987,76.514468999987,77.01460860000225,77.01460860000225,79.51447679998819,79.51447679998819,79.4989130999893,None,1,,,,,,,,,,,,,,,,,,,,,,,,,,,,,,,,,,,,,,,,,,,,,nback28,001,2023-12-14_17h46.02.251,untitled,2023.2.3,60.02339712716013,2023-12-14 18h29.07.666701 -0500,
7,"[0.3, 0]",None,0,14,14,14,,,,,,,,,79.51447679998819,,,,,,,,,,,,,,,,,,,,,,,,,,,,79.49984030000633,79.51447679998819,79.51447679998819,80.01456720000715,80.01456720000715,82.51455739999074,82.51455739999074,82.49875989998691,None,1,,,,,,,,,,,,,,,,,,,,,,,,,,,,,,,,,,,,,,,,,,,,,nback28,001,2023-12-14_17h46.02.251,untitled,2023.2.3,60.02339712716013,2023-12-14 18h29.07.666701 -0500,
2,"[0.64, 0.4]",None,0,15,15,15,,,,,,,,,82.51455739999074,,,,,,,,,,,,,,,,,,,,,,,,,,,,82.49949560000096,82.51455739999074,82.51455739999074,83.01443749997998,83.01443749997998,85.5143843999831,85.5143843999831,85.4984717000043,None,1,,,,,,,,,,,,,,,,,,,,,,,,,,,,,,,,,,,,,,,,,,,,,nback28,001,2023-12-14_17h46.02.251,untitled,2023.2.3,60.02339712716013,2023-12-14 18h29.07.666701 -0500,
2,"[0.64, 0.4]",None,0,16,16,16,,,,,,,,,85.5143843999831,,,,,,,,,,,,,,,,,,,,,,,,,,,,85.49913009998272,85.5143843999831,85.5143843999831,86.01441430000705,86.01441430000705,88.51435270000366,88.51435270000366,88.49891429999843,None,1,,,,,,,,,,,,,,,,,,,,,,,,,,,,,,,,,,,,,,,,,,,,,nback28,001,2023-12-14_17h46.02.251,untitled,2023.2.3,60.02339712716013,2023-12-14 18h29.07.666701 -0500,
11,"[-0.64, -0.4]",space,0,17,17,17,,,,,,,,,88.51435270000366,,,,,,,,,,,,,,,,,,,,,,,,,,,,88.49974149998161,88.51435270000366,88.51435270000366,89.01428129998385,89.01428129998385,91.51438449998386,91.51438449998386,91.4985694999923,space,1,0.37564139999449253,None,,,,,,,,,,,,,,,,,,,,,,,,,,,,,,,,,,,,,,,,,,,nback28,001,2023-12-14_17h46.02.251,untitled,2023.2.3,60.02339712716013,2023-12-14 18h29.07.666701 -0500,
11,"[-0.64, -0.4]",space,0,18,18,18,,,,,,,,,91.51438449998386,,,,,,,,,,,,,,,,,,,,,,,,,,,,91.49958969998988,91.51438449998386,91.51438449998386,92.01435979999951,92.01435979999951,94.51428129998385,94.51428129998385,94.49856419998105,space,1,0.4840791999886278,None,,,,,,,,,,,,,,,,,,,,,,,,,,,,,,,,,,,,,,,,,,,nback28,001,2023-12-14_17h46.02.251,untitled,2023.2.3,60.02339712716013,2023-12-14 18h29.07.666701 -0500,
7,"[0.3, 0]",None,0,19,19,19,,,,,,,,,94.51428129998385,,,,,,,,,,,,,,,,,,,,,,,,,,,,94.49953359999927,94.51428129998385,94.51428129998385,95.01440089999232,95.01440089999232,97.51415909998468,97.51415909998468,97.49864800000796,None,1,,,,,,,,,,,,,,,,,,,,,,,,,,,,,,,,,,,,,,,,,,,,,nback28,001,2023-12-14_17h46.02.251,untitled,2023.2.3,60.02339712716013,2023-12-14 18h29.07.666701 -0500,
3,"[0, 0.2]",None,0,20,20,20,,,,,,,,,97.51415909998468,,,,,,,,,,,,,,,,,,,,,,,,,,,,97.49950279999757,97.51415909998468,97.51415909998468,98.01412419998087,98.01412419998087,100.51414899999509,100.51414899999509,100.49827159999404,None,1,,,,,,,,,,,,,,,,,,,,,,,,,,,,,,,,,,,,,,,,,,,,,nback28,001,2023-12-14_17h46.02.251,untitled,2023.2.3,60.02339712716013,2023-12-14 18h29.07.666701 -0500,
10,"[0, -0.2]",None,0,21,21,21,,,,,,,,,100.51414899999509,,,,,,,,,,,,,,,,,,,,,,,,,,,,100.49894669998321,100.51414899999509,100.51414899999509,101.01416359998984,101.01416359998984,103.51391129998956,103.51391129998956,103.49802699999418,None,1,,,,,,,,,,,,,,,,,,,,,,,,,,,,,,,,,,,,,,,,,,,,,nback28,001,2023-12-14_17h46.02.251,untitled,2023.2.3,60.02339712716013,2023-12-14 18h29.07.666701 -0500,
1,"[-0.64, 0.4]",None,0,22,22,22,,,,,,,,,103.51391129998956,,,,,,,,,,,,,,,,,,,,,,,,,,,,103.49834170000395,103.51391129998956,103.51391129998956,104.0142394999857,104.0142394999857,106.51409330000752,106.51409330000752,106.49810919997981,None,1,,,,,,,,,,,,,,,,,,,,,,,,,,,,,,,,,,,,,,,,,,,,,nback28,001,2023-12-14_17h46.02.251,untitled,2023.2.3,60.02339712716013,2023-12-14 18h29.07.666701 -0500,
2,"[0.64, 0.4]",None,0,23,23,23,,,,,,,,,106.51409330000752,,,,,,,,,,,,,,,,,,,,,,,,,,,,106.49879739998141,106.51409330000752,106.51409330000752,107.01399350000429,107.01399350000429,109.5138966999948,109.5138966999948,109.49822949999361,None,1,,,,,,,,,,,,,,,,,,,,,,,,,,,,,,,,,,,,,,,,,,,,,nback28,001,2023-12-14_17h46.02.251,untitled,2023.2.3,60.02339712716013,2023-12-14 18h29.07.666701 -0500,
6,"[-0.3, 0]",None,0,24,24,24,,,,,,,,,109.5138966999948,,,,,,,,,,,,,,,,,,,,,,,,,,,,109.49897159999819,109.5138966999948,109.5138966999948,110.01387379999505,110.01387379999505,112.51375650000409,112.51375650000409,112.49757059998228,None,1,,,,,,,,,,,,,,,,,,,,,,,,,,,,,,,,,,,,,,,,,,,,,nback28,001,2023-12-14_17h46.02.251,untitled,2023.2.3,60.02339712716013,2023-12-14 18h29.07.666701 -0500,
3,"[0, 0.2]",None,0,25,25,25,,,,,,,,,112.51375650000409,,,,,,,,,,,,,,,,,,,,,,,,,,,,112.49790719998418,112.51375650000409,112.51375650000409,113.01378249999834,113.01378249999834,115.51395170000615,115.51395170000615,115.49815820000367,None,1,,,,,,,,,,,,,,,,,,,,,,,,,,,,,,,,,,,,,,,,,,,,,nback28,001,2023-12-14_17h46.02.251,untitled,2023.2.3,60.02339712716013,2023-12-14 18h29.07.666701 -0500,
11,"[-0.64, -0.4]",space,0,26,26,26,,,,,,,,,115.51395170000615,,,,,,,,,,,,,,,,,,,,,,,,,,,,115.49889889999758,115.51395170000615,115.51395170000615,116.0138702999975,116.0138702999975,118.5137442999985,118.5137442999985,118.49785419998807,space,1,0.42936660000123084,None,,,,,,,,,,,,,,,,,,,,,,,,,,,,,,,,,,,,,,,,,,,nback28,001,2023-12-14_17h46.02.251,untitled,2023.2.3,60.02339712716013,2023-12-14 18h29.07.666701 -0500,
1,"[-0.64, 0.4]",None,0,27,27,27,,,,,,,,,118.5137442999985,,,,,,,,,,,,,,,,,,,,,,,,,,,,118.4985858,118.5137442999985,118.5137442999985,119.0137909000041,119.0137909000041,121.51382759999251,121.51382759999251,121.49794929998461,None,1,,,,,,,,,,,,,,,,,,,,,,,,,,,,,,,,,,,,,,,,,,,,,nback28,001,2023-12-14_17h46.02.251,untitled,2023.2.3,60.02339712716013,2023-12-14 18h29.07.666701 -0500,
3,"[0, 0.2]",None,0,28,28,28,,,,,,,,,121.51382759999251,,,,,,,,,,,,,,,,,,,,,,,,,,,,121.49865639998461,121.51382759999251,121.51382759999251,122.01391009998042,122.01391009998042,124.51356079999823,124.51356079999823,124.49808980000671,None,1,,,,,,,,,,,,,,,,,,,,,,,,,,,,,,,,,,,,,,,,,,,,,nback28,001,2023-12-14_17h46.02.251,untitled,2023.2.3,60.02339712716013,2023-12-14 18h29.07.666701 -0500,
9,"[0.2, -0.1]",None,0,29,29,29,,,,,,,,,124.51356079999823,,,,,,,,,,,,,,,,,,,,,,,,,,,,124.49893149998388,124.51356079999823,124.51356079999823,125.01364619997912,125.01364619997912,127.51358949998394,127.51358949998394,127.49746779998532,None,1,,,,,,,,,,,,,,,,,,,,,,,,,,,,,,,,,,,,,,,,,,,,,nback28,001,2023-12-14_17h46.02.251,untitled,2023.2.3,60.02339712716013,2023-12-14 18h29.07.666701 -0500,
8,"[-0.2, -0.1]",None,0,30,30,30,,,,,,,,,127.51358949998394,,,,,,,,,,,,,,,,,,,,,,,,,,,,127.49796869998681,127.51358949998394,127.51358949998394,128.01346610000473,128.01346610000473,130.51361150000594,130.51361150000594,130.498019199993,None,1,,,,,,,,,,,,,,,,,,,,,,,,,,,,,,,,,,,,,,,,,,,,,nback28,001,2023-12-14_17h46.02.251,untitled,2023.2.3,60.02339712716013,2023-12-14 18h29.07.666701 -0500,
12,"[0.64, -0.4]",None,0,31,31,31,,,,,,,,,130.51361150000594,,,,,,,,,,,,,,,,,,,,,,,,,,,,130.49889089999488,130.51361150000594,130.51361150000594,131.01351279998198,131.01351279998198,133.5136544999841,133.5136544999841,133.49787970000762,None,1,,,,,,,,,,,,,,,,,,,,,,,,,,,,,,,,,,,,,,,,,,,,,nback28,001,2023-12-14_17h46.02.251,untitled,2023.2.3,60.02339712716013,2023-12-14 18h29.07.666701 -0500,
9,"[0.2, -0.1]",None,0,32,32,32,,,,,,,,,133.5136544999841,,,,,,,,,,,,,,,,,,,,,,,,,,,,133.4986585000006,133.5136544999841,133.5136544999841,134.0136804000067,134.0136804000067,136.51355899998453,136.51355899998453,136.49777709998307,None,1,,,,,,,,,,,,,,,,,,,,,,,,,,,,,,,,,,,,,,,,,,,,,nback28,001,2023-12-14_17h46.02.251,untitled,2023.2.3,60.02339712716013,2023-12-14 18h29.07.666701 -0500,
11,"[-0.64, -0.4]",space,0,33,33,33,,,,,,,,,136.51355899998453,,,,,,,,,,,,,,,,,,,,,,,,,,,,136.49856239999644,136.51355899998453,136.51355899998453,137.01338359998772,137.01338359998772,139.51368010000442,139.51368010000442,139.49803620000603,space,1,0.3968559000059031,None,,,,,,,,,,,,,,,,,,,,,,,,,,,,,,,,,,,,,,,,,,,nback28,001,2023-12-14_17h46.02.251,untitled,2023.2.3,60.02339712716013,2023-12-14 18h29.07.666701 -0500,
7,"[0.3, 0]",None,0,34,34,34,,,,,,,,,139.51368010000442,,,,,,,,,,,,,,,,,,,,,,,,,,,,139.4991461999889,139.51368010000442,139.51368010000442,140.0134834999917,140.0134834999917,142.51344789998257,142.51344789998257,142.4974971000047,None,1,,,,,,,,,,,,,,,,,,,,,,,,,,,,,,,,,,,,,,,,,,,,,nback28,001,2023-12-14_17h46.02.251,untitled,2023.2.3,60.02339712716013,2023-12-14 18h29.07.666701 -0500,
11,"[-0.64, -0.4]",space,0,35,35,35,,,,,,,,,142.51344789998257,,,,,,,,,,,,,,,,,,,,,,,,,,,,142.49802349999663,142.51344789998257,142.51344789998257,143.01364019999164,143.01364019999164,145.51327199998195,145.51327199998195,145.49748689998523,space,1,0.44632230000570416,None,,,,,,,,,,,,,,,,,,,,,,,,,,,,,,,,,,,,,,,,,,,nback28,001,2023-12-14_17h46.02.251,untitled,2023.2.3,60.02339712716013,2023-12-14 18h29.07.666701 -0500,
4,"[-0.2, 0.1]",None,0,36,36,36,,,,,,,,,145.51327199998195,,,,,,,,,,,,,,,,,,,,,,,,,,,,145.49835019998136,145.51327199998195,145.51327199998195,146.0135370999924,146.0135370999924,148.51327949998085,148.51327949998085,148.49723389997962,None,1,,,,,,,,,,,,,,,,,,,,,,,,,,,,,,,,,,,,,,,,,,,,,nback28,001,2023-12-14_17h46.02.251,untitled,2023.2.3,60.02339712716013,2023-12-14 18h29.07.666701 -0500,
5,"[0.2, 0.1]",None,0,37,37,37,,,,,,,,,148.51327949998085,,,,,,,,,,,,,,,,,,,,,,,,,,,,148.49789949998376,148.51327949998085,148.51327949998085,149.01333699998213,149.01333699998213,151.51328579999972,151.51328579999972,151.49743200000376,None,1,,,,,,,,,,,,,,,,,,,,,,,,,,,,,,,,,,,,,,,,,,,,,nback28,001,2023-12-14_17h46.02.251,untitled,2023.2.3,60.02339712716013,2023-12-14 18h29.07.666701 -0500,
6,"[-0.3, 0]",None,0,38,38,38,,,,,,,,,151.51328579999972,,,,,,,,,,,,,,,,,,,,,,,,,,,,151.49812289999682,151.51328579999972,151.51328579999972,152.0132850999944,152.0132850999944,154.51331320000463,154.51331320000463,154.49770010000793,None,1,,,,,,,,,,,,,,,,,,,,,,,,,,,,,,,,,,,,,,,,,,,,,nback28,001,2023-12-14_17h46.02.251,untitled,2023.2.3,60.02339712716013,2023-12-14 18h29.07.666701 -0500,
11,"[-0.64, -0.4]",space,0,39,39,39,,,,,,,,,154.51331320000463,,,,,,,,,,,,,,,,,,,,,,,,,,,,154.49859159998596,154.51331320000463,154.51331320000463,155.01331189999473,155.01331189999473,157.51321720000124,157.51321720000124,157.49721149998368,space,1,0.42483499998343177,None,,,,,,,,,,,,,,,,,,,,,,,,,,,,,,,,,,,,,,,,,,,nback28,001,2023-12-14_17h46.02.251,untitled,2023.2.3,60.02339712716013,2023-12-14 18h29.07.666701 -0500,
,,,,,,,,,,,,,,,,,,,,,,,,,,,,,,,,,,,,,,,,,,,,,,,,,,,,,,,157.4976999000064,157.51321720000124,157.51321720000124,180.56427489998168,space,23.037661199981812,None,,,,,,,,,,,,,,,,,,,,,,,,,,,,,,,,,,,,nback28,001,2023-12-14_17h46.02.251,untitled,2023.2.3,60.02339712716013,2023-12-14 18h29.07.666701 -0500,
10,"[0, -0.2]",None,,,,,0,0,0,0,,,,,181.5792703999905,,,,,,,,,,,,,,,,,,,,,,,,180.56431149999844,180.57937510000193,181.5792703999905,181.56338989999495,,,,,,,,,,,,,,,,,,,,181.5723580000049,181.5792703999905,181.5792703999905,182.07931679999456,182.07931679999456,184.57929460000014,184.57929460000014,184.56336239998927,None,1,,,,,,,,,,,,,,,,,,,,,,,,,,nback28,001,2023-12-14_17h46.02.251,untitled,2023.2.3,60.02339712716013,2023-12-14 18h29.07.666701 -0500,
5,"[0.2, 0.1]",None,,,,,0,1,1,1,,,,,184.57929460000014,,,,,,,,,,,,,,,,,,,,,,,,,,,,,,,,,,,,,,,,,,,,,,,184.56415389999165,184.57929460000014,184.57929460000014,185.07928159998846,185.07928159998846,187.57929769999464,187.57929769999464,187.56387129999348,None,1,,,,,,,,,,,,,,,,,,,,,,,,,,nback28,001,2023-12-14_17h46.02.251,untitled,2023.2.3,60.02339712716013,2023-12-14 18h29.07.666701 -0500,
6,"[-0.3, 0]",None,,,,,0,2,2,2,,,,,187.57929769999464,,,,,,,,,,,,,,,,,,,,,,,,,,,,,,,,,,,,,,,,,,,,,,,187.564696299989,187.57929769999464,187.57929769999464,188.07913019999978,188.07913019999978,190.57913599998574,190.57913599998574,190.56322089998866,None,1,,,,,,,,,,,,,,,,,,,,,,,,,,nback28,001,2023-12-14_17h46.02.251,untitled,2023.2.3,60.02339712716013,2023-12-14 18h29.07.666701 -0500,
6,"[-0.3, 0]",space,,,,,0,3,3,3,,,,,190.57913599998574,,,,,,,,,,,,,,,,,,,,,,,,,,,,,,,,,,,,,,,,,,,,,,,190.5638689000043,190.57913599998574,190.57913599998574,191.07928259999608,191.07928259999608,193.57930079998914,193.57930079998914,193.56328400000348,space,1,0.5335781000030693,None,,,,,,,,,,,,,,,,,,,,,,,,nback28,001,2023-12-14_17h46.02.251,untitled,2023.2.3,60.02339712716013,2023-12-14 18h29.07.666701 -0500,
12,"[0.64, -0.4]",None,,,,,0,4,4,4,,,,,193.57930079998914,,,,,,,,,,,,,,,,,,,,,,,,,,,,,,,,,,,,,,,,,,,,,,,193.56419159998768,193.57930079998914,193.57930079998914,194.079287200002,194.079287200002,196.57905309999478,196.57905309999478,196.56374329997925,None,1,,,,,,,,,,,,,,,,,,,,,,,,,,nback28,001,2023-12-14_17h46.02.251,untitled,2023.2.3,60.02339712716013,2023-12-14 18h29.07.666701 -0500,
10,"[0, -0.2]",None,,,,,0,5,5,5,,,,,196.57905309999478,,,,,,,,,,,,,,,,,,,,,,,,,,,,,,,,,,,,,,,,,,,,,,,196.5645988000033,196.57905309999478,196.57905309999478,197.07919419999234,197.07919419999234,199.57898570000543,199.57898570000543,199.56360170000698,None,1,,,,,,,,,,,,,,,,,,,,,,,,,,nback28,001,2023-12-14_17h46.02.251,untitled,2023.2.3,60.02339712716013,2023-12-14 18h29.07.666701 -0500,
2,"[0.64, 0.4]",None,,,,,0,6,6,6,,,,,199.57898570000543,,,,,,,,,,,,,,,,,,,,,,,,,,,,,,,,,,,,,,,,,,,,,,,199.5643780999817,199.57898570000543,199.57898570000543,200.0791321999859,200.0791321999859,202.57896290000645,202.57896290000645,202.56320929998765,None,1,,,,,,,,,,,,,,,,,,,,,,,,,,nback28,001,2023-12-14_17h46.02.251,untitled,2023.2.3,60.02339712716013,2023-12-14 18h29.07.666701 -0500,
9,"[0.2, -0.1]",None,,,,,0,7,7,7,,,,,202.57896290000645,,,,,,,,,,,,,,,,,,,,,,,,,,,,,,,,,,,,,,,,,,,,,,,202.5639075000072,202.57896290000645,202.57896290000645,203.0790436999814,203.0790436999814,205.57894350000424,205.57894350000424,205.56265509998775,None,1,,,,,,,,,,,,,,,,,,,,,,,,,,nback28,001,2023-12-14_17h46.02.251,untitled,2023.2.3,60.02339712716013,2023-12-14 18h29.07.666701 -0500,
9,"[0.2, -0.1]",space,,,,,0,8,8,8,,,,,205.57894350000424,,,,,,,,,,,,,,,,,,,,,,,,,,,,,,,,,,,,,,,,,,,,,,,205.5629515000037,205.57894350000424,205.57894350000424,206.07891399998334,206.07891399998334,208.57889929998782,208.57889929998782,208.56341339999926,space,1,0.5229480999987572,None,,,,,,,,,,,,,,,,,,,,,,,,nback28,001,2023-12-14_17h46.02.251,untitled,2023.2.3,60.02339712716013,2023-12-14 18h29.07.666701 -0500,
6,"[-0.3, 0]",None,,,,,0,9,9,9,,,,,208.57889929998782,,,,,,,,,,,,,,,,,,,,,,,,,,,,,,,,,,,,,,,,,,,,,,,208.56458049998037,208.57889929998782,208.57889929998782,209.07897629999206,209.07897629999206,211.57878159999382,211.57878159999382,211.56284579998464,None,1,,,,,,,,,,,,,,,,,,,,,,,,,,nback28,001,2023-12-14_17h46.02.251,untitled,2023.2.3,60.02339712716013,2023-12-14 18h29.07.666701 -0500,
11,"[-0.64, -0.4]",None,,,,,0,10,10,10,,,,,211.57878159999382,,,,,,,,,,,,,,,,,,,,,,,,,,,,,,,,,,,,,,,,,,,,,,,211.5634982000047,211.57878159999382,211.57878159999382,212.07885560000432,212.07885560000432,214.5788227999874,214.5788227999874,214.56316560000414,None,1,,,,,,,,,,,,,,,,,,,,,,,,,,nback28,001,2023-12-14_17h46.02.251,untitled,2023.2.3,60.02339712716013,2023-12-14 18h29.07.666701 -0500,
11,"[-0.64, -0.4]",space,,,,,0,11,11,11,,,,,214.5788227999874,,,,,,,,,,,,,,,,,,,,,,,,,,,,,,,,,,,,,,,,,,,,,,,214.5639969999902,214.5788227999874,214.5788227999874,215.07877890000236,215.07877890000236,217.5787425999879,217.5787425999879,217.56279060000088,space,1,0.39691370000946335,None,,,,,,,,,,,,,,,,,,,,,,,,nback28,001,2023-12-14_17h46.02.251,untitled,2023.2.3,60.02339712716013,2023-12-14 18h29.07.666701 -0500,
4,"[-0.2, 0.1]",None,,,,,0,12,12,12,,,,,217.5787425999879,,,,,,,,,,,,,,,,,,,,,,,,,,,,,,,,,,,,,,,,,,,,,,,217.5636440999806,217.5787425999879,217.5787425999879,218.07860909999,218.07860909999,220.57846249997965,220.57846249997965,220.56251789999078,None,1,,,,,,,,,,,,,,,,,,,,,,,,,,nback28,001,2023-12-14_17h46.02.251,untitled,2023.2.3,60.02339712716013,2023-12-14 18h29.07.666701 -0500,
3,"[0, 0.2]",None,,,,,0,13,13,13,,,,,220.57846249997965,,,,,,,,,,,,,,,,,,,,,,,,,,,,,,,,,,,,,,,,,,,,,,,220.5631172999856,220.57846249997965,220.57846249997965,221.07882860000245,221.07882860000245,223.57854919999954,223.57854919999954,223.56271229998674,None,1,,,,,,,,,,,,,,,,,,,,,,,,,,nback28,001,2023-12-14_17h46.02.251,untitled,2023.2.3,60.02339712716013,2023-12-14 18h29.07.666701 -0500,
3,"[0, 0.2]",space,,,,,0,14,14,14,,,,,223.57854919999954,,,,,,,,,,,,,,,,,,,,,,,,,,,,,,,,,,,,,,,,,,,,,,,223.5632846999797,223.57854919999954,223.57854919999954,224.0787800999824,224.0787800999824,226.57840919998125,226.57840919998125,226.56221949998871,space,1,0.4530349999840837,None,,,,,,,,,,,,,,,,,,,,,,,,nback28,001,2023-12-14_17h46.02.251,untitled,2023.2.3,60.02339712716013,2023-12-14 18h29.07.666701 -0500,
8,"[-0.2, -0.1]",None,,,,,0,15,15,15,,,,,226.57840919998125,,,,,,,,,,,,,,,,,,,,,,,,,,,,,,,,,,,,,,,,,,,,,,,226.56261779999477,226.57840919998125,226.57840919998125,227.07823670000653,227.07823670000653,229.57833449999453,229.57833449999453,229.56254250000347,None,1,,,,,,,,,,,,,,,,,,,,,,,,,,nback28,001,2023-12-14_17h46.02.251,untitled,2023.2.3,60.02339712716013,2023-12-14 18h29.07.666701 -0500,
1,"[-0.64, 0.4]",None,,,,,0,16,16,16,,,,,229.57833449999453,,,,,,,,,,,,,,,,,,,,,,,,,,,,,,,,,,,,,,,,,,,,,,,229.56291479998617,229.57833449999453,229.57833449999453,230.0785809000081,230.0785809000081,232.5784020999854,232.5784020999854,232.5623387999949,None,1,,,,,,,,,,,,,,,,,,,,,,,,,,nback28,001,2023-12-14_17h46.02.251,untitled,2023.2.3,60.02339712716013,2023-12-14 18h29.07.666701 -0500,
2,"[0.64, 0.4]",None,,,,,0,17,17,17,,,,,232.5784020999854,,,,,,,,,,,,,,,,,,,,,,,,,,,,,,,,,,,,,,,,,,,,,,,232.5629987999855,232.5784020999854,232.5784020999854,233.0783545000013,233.0783545000013,235.57856209998135,235.57856209998135,235.56283640000038,None,1,,,,,,,,,,,,,,,,,,,,,,,,,,nback28,001,2023-12-14_17h46.02.251,untitled,2023.2.3,60.02339712716013,2023-12-14 18h29.07.666701 -0500,
4,"[-0.2, 0.1]",None,,,,,0,18,18,18,,,,,235.57856209998135,,,,,,,,,,,,,,,,,,,,,,,,,,,,,,,,,,,,,,,,,,,,,,,235.56360379999387,235.57856209998135,235.57856209998135,236.07834919999004,236.07834919999004,238.57837239999208,238.57837239999208,238.56258130000788,None,1,,,,,,,,,,,,,,,,,,,,,,,,,,nback28,001,2023-12-14_17h46.02.251,untitled,2023.2.3,60.02339712716013,2023-12-14 18h29.07.666701 -0500,
4,"[-0.2, 0.1]",space,,,,,0,19,19,19,,,,,238.57837239999208,,,,,,,,,,,,,,,,,,,,,,,,,,,,,,,,,,,,,,,,,,,,,,,238.56319379998604,238.57837239999208,238.57837239999208,239.0782830999815,239.0782830999815,241.57828039999004,241.57828039999004,241.56269699998666,space,1,0.7196653000137303,None,,,,,,,,,,,,,,,,,,,,,,,,nback28,001,2023-12-14_17h46.02.251,untitled,2023.2.3,60.02339712716013,2023-12-14 18h29.07.666701 -0500,
8,"[-0.2, -0.1]",None,,,,,0,20,20,20,,,,,241.57828039999004,,,,,,,,,,,,,,,,,,,,,,,,,,,,,,,,,,,,,,,,,,,,,,,241.5636036999931,241.57828039999004,241.57828039999004,242.07828289997997,242.07828289997997,244.57830779999495,244.57830779999495,244.56251079999493,None,1,,,,,,,,,,,,,,,,,,,,,,,,,,nback28,001,2023-12-14_17h46.02.251,untitled,2023.2.3,60.02339712716013,2023-12-14 18h29.07.666701 -0500,
5,"[0.2, 0.1]",None,,,,,0,21,21,21,,,,,244.57830779999495,,,,,,,,,,,,,,,,,,,,,,,,,,,,,,,,,,,,,,,,,,,,,,,244.56317169999238,244.57830779999495,244.57830779999495,245.0785047999816,245.0785047999816,247.57835589998285,247.57835589998285,247.56264889999875,None,1,,,,,,,,,,,,,,,,,,,,,,,,,,nback28,001,2023-12-14_17h46.02.251,untitled,2023.2.3,60.02339712716013,2023-12-14 18h29.07.666701 -0500,
5,"[0.2, 0.1]",space,,,,,0,22,22,22,,,,,247.57835589998285,,,,,,,,,,,,,,,,,,,,,,,,,,,,,,,,,,,,,,,,,,,,,,,247.5634528999799,247.57835589998285,247.57835589998285,248.07835830000113,248.07835830000113,250.5780698999879,250.5780698999879,250.5623418999894,space,1,0.5337825000169687,None,,,,,,,,,,,,,,,,,,,,,,,,nback28,001,2023-12-14_17h46.02.251,untitled,2023.2.3,60.02339712716013,2023-12-14 18h29.07.666701 -0500,
1,"[-0.64, 0.4]",None,,,,,0,23,23,23,,,,,250.5780698999879,,,,,,,,,,,,,,,,,,,,,,,,,,,,,,,,,,,,,,,,,,,,,,,250.56312459998298,250.5780698999879,250.5780698999879,251.07827830000315,251.07827830000315,253.5783104999864,253.5783104999864,253.5625100999896,None,1,,,,,,,,,,,,,,,,,,,,,,,,,,nback28,001,2023-12-14_17h46.02.251,untitled,2023.2.3,60.02339712716013,2023-12-14 18h29.07.666701 -0500,
3,"[0, 0.2]",None,,,,,0,24,24,24,,,,,253.5783104999864,,,,,,,,,,,,,,,,,,,,,,,,,,,,,,,,,,,,,,,,,,,,,,,253.5632554999902,253.5783104999864,253.5783104999864,254.07806460000575,254.07806460000575,256.5779692000069,256.5779692000069,256.5622350999911,None,1,,,,,,,,,,,,,,,,,,,,,,,,,,nback28,001,2023-12-14_17h46.02.251,untitled,2023.2.3,60.02339712716013,2023-12-14 18h29.07.666701 -0500,
6,"[-0.3, 0]",None,,,,,0,25,25,25,,,,,256.5779692000069,,,,,,,,,,,,,,,,,,,,,,,,,,,,,,,,,,,,,,,,,,,,,,,256.5629403000057,256.5779692000069,256.5779692000069,257.0781225999817,257.0781225999817,259.5780603000021,259.5780603000021,259.5623522999813,None,1,,,,,,,,,,,,,,,,,,,,,,,,,,nback28,001,2023-12-14_17h46.02.251,untitled,2023.2.3,60.02339712716013,2023-12-14 18h29.07.666701 -0500,
1,"[-0.64, 0.4]",None,,,,,0,26,26,26,,,,,259.5780603000021,,,,,,,,,,,,,,,,,,,,,,,,,,,,,,,,,,,,,,,,,,,,,,,259.56303469999693,259.5780603000021,259.5780603000021,260.0782460999908,260.0782460999908,262.57786359998863,262.57786359998863,262.56220929999836,None,1,,,,,,,,,,,,,,,,,,,,,,,,,,nback28,001,2023-12-14_17h46.02.251,untitled,2023.2.3,60.02339712716013,2023-12-14 18h29.07.666701 -0500,
1,"[-0.64, 0.4]",space,,,,,0,27,27,27,,,,,262.57786359998863,,,,,,,,,,,,,,,,,,,,,,,,,,,,,,,,,,,,,,,,,,,,,,,262.56292130000656,262.57786359998863,262.57786359998863,263.0777912999911,263.0777912999911,265.5777737000026,265.5777737000026,265.5622810999921,space,1,0.5178544000082184,None,,,,,,,,,,,,,,,,,,,,,,,,nback28,001,2023-12-14_17h46.02.251,untitled,2023.2.3,60.02339712716013,2023-12-14 18h29.07.666701 -0500,
1,"[-0.64, 0.4]",space,,,,,0,28,28,28,,,,,265.5777737000026,,,,,,,,,,,,,,,,,,,,,,,,,,,,,,,,,,,,,,,,,,,,,,,265.5632073000015,265.5777737000026,265.5777737000026,266.0776668000035,266.0776668000035,268.5779387000075,268.5779387000075,268.5619472999824,None,0,,,,,,,,,,,,,,,,,,,,,,,,,,nback28,001,2023-12-14_17h46.02.251,untitled,2023.2.3,60.02339712716013,2023-12-14 18h29.07.666701 -0500,
3,"[0, 0.2]",None,,,,,0,29,29,29,,,,,268.5779387000075,,,,,,,,,,,,,,,,,,,,,,,,,,,,,,,,,,,,,,,,,,,,,,,268.5626099999936,268.5779387000075,268.5779387000075,269.07784849999007,269.07784849999007,271.5777839999937,271.5777839999937,271.5621781999944,None,1,,,,,,,,,,,,,,,,,,,,,,,,,,nback28,001,2023-12-14_17h46.02.251,untitled,2023.2.3,60.02339712716013,2023-12-14 18h29.07.666701 -0500,
12,"[0.64, -0.4]",None,,,,,0,30,30,30,,,,,271.5777839999937,,,,,,,,,,,,,,,,,,,,,,,,,,,,,,,,,,,,,,,,,,,,,,,271.56296819998533,271.5777839999937,271.5777839999937,272.07763739998336,272.07763739998336,274.57774779998,274.57774779998,274.5620077000058,None,1,,,,,,,,,,,,,,,,,,,,,,,,,,nback28,001,2023-12-14_17h46.02.251,untitled,2023.2.3,60.02339712716013,2023-12-14 18h29.07.666701 -0500,
12,"[0.64, -0.4]",space,,,,,0,31,31,31,,,,,274.57774779998,,,,,,,,,,,,,,,,,,,,,,,,,,,,,,,,,,,,,,,,,,,,,,,274.56271949998336,274.57774779998,274.57774779998,275.0775702999963,275.0775702999963,277.57753369997954,277.57753369997954,277.56139899999835,space,1,0.5588519000157248,None,,,,,,,,,,,,,,,,,,,,,,,,nback28,001,2023-12-14_17h46.02.251,untitled,2023.2.3,60.02339712716013,2023-12-14 18h29.07.666701 -0500,
2,"[0.64, 0.4]",None,,,,,0,32,32,32,,,,,277.57753369997954,,,,,,,,,,,,,,,,,,,,,,,,,,,,,,,,,,,,,,,,,,,,,,,277.5618070999917,277.57753369997954,277.57753369997954,278.07764730000054,278.07764730000054,280.57757510000374,280.57757510000374,280.56139149999944,None,1,,,,,,,,,,,,,,,,,,,,,,,,,,nback28,001,2023-12-14_17h46.02.251,untitled,2023.2.3,60.02339712716013,2023-12-14 18h29.07.666701 -0500,
1,"[-0.64, 0.4]",None,,,,,0,33,33,33,,,,,280.57757510000374,,,,,,,,,,,,,,,,,,,,,,,,,,,,,,,,,,,,,,,,,,,,,,,280.5617618999968,280.57757510000374,280.57757510000374,281.07740509998985,281.07740509998985,283.5774332000001,283.5774332000001,283.56182149998494,None,1,,,,,,,,,,,,,,,,,,,,,,,,,,nback28,001,2023-12-14_17h46.02.251,untitled,2023.2.3,60.02339712716013,2023-12-14 18h29.07.666701 -0500,
7,"[0.3, 0]",None,,,,,0,34,34,34,,,,,283.5774332000001,,,,,,,,,,,,,,,,,,,,,,,,,,,,,,,,,,,,,,,,,,,,,,,283.5622890999948,283.5774332000001,283.5774332000001,284.07746460000635,284.07746460000635,286.5775567999808,286.5775567999808,286.5615198999876,None,1,,,,,,,,,,,,,,,,,,,,,,,,,,nback28,001,2023-12-14_17h46.02.251,untitled,2023.2.3,60.02339712716013,2023-12-14 18h29.07.666701 -0500,
7,"[0.3, 0]",space,,,,,0,35,35,35,,,,,286.5775567999808,,,,,,,,,,,,,,,,,,,,,,,,,,,,,,,,,,,,,,,,,,,,,,,286.56187429997954,286.5775567999808,286.5775567999808,287.0775775999937,287.0775775999937,289.5774620999873,289.5774620999873,289.5614679999999,space,1,0.6317681999935303,None,,,,,,,,,,,,,,,,,,,,,,,,nback28,001,2023-12-14_17h46.02.251,untitled,2023.2.3,60.02339712716013,2023-12-14 18h29.07.666701 -0500,
11,"[-0.64, -0.4]",None,,,,,0,36,36,36,,,,,289.5774620999873,,,,,,,,,,,,,,,,,,,,,,,,,,,,,,,,,,,,,,,,,,,,,,,289.5619752999919,289.5774620999873,289.5774620999873,290.07752200000687,290.07752200000687,292.5772927000071,292.5772927000071,292.5612309999997,None,1,,,,,,,,,,,,,,,,,,,,,,,,,,nback28,001,2023-12-14_17h46.02.251,untitled,2023.2.3,60.02339712716013,2023-12-14 18h29.07.666701 -0500,
2,"[0.64, 0.4]",None,,,,,0,37,37,37,,,,,292.5772927000071,,,,,,,,,,,,,,,,,,,,,,,,,,,,,,,,,,,,,,,,,,,,,,,292.5616288000019,292.5772927000071,292.5772927000071,293.0774198999861,293.0774198999861,295.5774960999843,295.5774960999843,295.56147970000166,None,1,,,,,,,,,,,,,,,,,,,,,,,,,,nback28,001,2023-12-14_17h46.02.251,untitled,2023.2.3,60.02339712716013,2023-12-14 18h29.07.666701 -0500,
6,"[-0.3, 0]",None,,,,,0,38,38,38,,,,,295.5774960999843,,,,,,,,,,,,,,,,,,,,,,,,,,,,,,,,,,,,,,,,,,,,,,,295.5620844999794,295.5774960999843,295.5774960999843,296.0772623999801,296.0772623999801,298.5773101999948,298.5773101999948,298.56166159998975,None,1,,,,,,,,,,,,,,,,,,,,,,,,,,nback28,001,2023-12-14_17h46.02.251,untitled,2023.2.3,60.02339712716013,2023-12-14 18h29.07.666701 -0500,
10,"[0, -0.2]",None,,,,,0,39,39,39,,,,,298.5773101999948,,,,,,,,,,,,,,,,,,,,,,,,,,,,,,,,,,,,,,,,,,,,,,,298.5620984999987,298.5773101999948,298.5773101999948,299.07734429999255,299.07734429999255,301.5774317999894,301.5774317999894,301.5616339999833,None,1,,,,,,,,,,,,,,,,,,,,,,,,,,nback28,001,2023-12-14_17h46.02.251,untitled,2023.2.3,60.02339712716013,2023-12-14 18h29.07.666701 -0500,
,,,,,,,,,,,,,,,,,,,,,,,,,,,,,,,,,,,,,,,,,,,,,,,,,,,,,,,,,,,,,,,,,,,,,,,,,,301.5621867000009,301.5774317999894,301.5774317999894,325.42876549999346,space,23.838916799984872,None,,,,,,,,,,,,,,,,,nback28,001,2023-12-14_17h46.02.251,untitled,2023.2.3,60.02339712716013,2023-12-14 18h29.07.666701 -0500,
,"[0.2, 0.1]",None,,,,,,,,,0,0,0,0,326.4435795999889,,,,,,,,,,,,,,,,,,,,,,,,325.42881359998137,325.4437345000042,326.4435795999889,326.4275606999872,,,,,,,,,,,,,,,,,,,,,,,,,,,,,,,,,,,,,,,326.4408246999956,326.4435795999889,326.4435795999889,326.9436575,326.9436575,329.4434485999809,329.4434485999809,329.42732469999464,None,1,,,,,,,nback28,001,2023-12-14_17h46.02.251,untitled,2023.2.3,60.02339712716013,2023-12-14 18h29.07.666701 -0500,
,"[0.64, 0.4]",None,,,,,,,,,0,1,1,1,329.4434485999809,,,,,,,,,,,,,,,,,,,,,,,,,,,,,,,,,,,,,,,,,,,,,,,,,,,,,,,,,,,,,,,,,,329.42794150000555,329.4434485999809,329.4434485999809,329.94359340000665,329.94359340000665,332.44348369998625,332.44348369998625,332.4275701000006,None,1,,,,,,,nback28,001,2023-12-14_17h46.02.251,untitled,2023.2.3,60.02339712716013,2023-12-14 18h29.07.666701 -0500,
,"[-0.3, 0]",None,,,,,,,,,0,2,2,2,332.44348369998625,,,,,,,,,,,,,,,,,,,,,,,,,,,,,,,,,,,,,,,,,,,,,,,,,,,,,,,,,,,,,,,,,,332.4282329999842,332.44348369998625,332.44348369998625,332.9435434000043,332.9435434000043,335.44350979998126,335.44350979998126,335.4276020999823,None,1,,,,,,,nback28,001,2023-12-14_17h46.02.251,untitled,2023.2.3,60.02339712716013,2023-12-14 18h29.07.666701 -0500,
,"[0.2, -0.1]",None,,,,,,,,,0,3,3,3,335.44350979998126,,,,,,,,,,,,,,,,,,,,,,,,,,,,,,,,,,,,,,,,,,,,,,,,,,,,,,,,,,,,,,,,,,335.4282408999861,335.44350979998126,335.44350979998126,335.9434565999836,335.9434565999836,338.4434501999931,338.4434501999931,338.4277110999974,None,1,,,,,,,nback28,001,2023-12-14_17h46.02.251,untitled,2023.2.3,60.02339712716013,2023-12-14 18h29.07.666701 -0500,
,"[0, 0.2]",None,,,,,,,,,0,4,4,4,338.4434501999931,,,,,,,,,,,,,,,,,,,,,,,,,,,,,,,,,,,,,,,,,,,,,,,,,,,,,,,,,,,,,,,,,,338.42845249999664,338.4434501999931,338.4434501999931,338.94340059999377,338.94340059999377,341.4433658999915,341.4433658999915,341.42751849998604,None,1,,,,,,,nback28,001,2023-12-14_17h46.02.251,untitled,2023.2.3,60.02339712716013,2023-12-14 18h29.07.666701 -0500,
,"[0.2, -0.1]",space,,,,,,,,,0,5,5,5,341.4433658999915,,,,,,,,,,,,,,,,,,,,,,,,,,,,,,,,,,,,,,,,,,,,,,,,,,,,,,,,,,,,,,,,,,341.42817559998366,341.4433658999915,341.4433658999915,341.94340240000747,341.94340240000747,344.44315069998265,344.44315069998265,344.4275733999966,space,1,0.7560532999923453,None,,,,,nback28,001,2023-12-14_17h46.02.251,untitled,2023.2.3,60.02339712716013,2023-12-14 18h29.07.666701 -0500,
,"[0, -0.2]",None,,,,,,,,,0,6,6,6,344.44315069998265,,,,,,,,,,,,,,,,,,,,,,,,,,,,,,,,,,,,,,,,,,,,,,,,,,,,,,,,,,,,,,,,,,344.42865659997915,344.44315069998265,344.44315069998265,344.94341999999597,344.94341999999597,347.4431726000039,347.4431726000039,347.4274487000075,None,1,,,,,,,nback28,001,2023-12-14_17h46.02.251,untitled,2023.2.3,60.02339712716013,2023-12-14 18h29.07.666701 -0500,
,"[0.64, -0.4]",None,,,,,,,,,0,7,7,7,347.4431726000039,,,,,,,,,,,,,,,,,,,,,,,,,,,,,,,,,,,,,,,,,,,,,,,,,,,,,,,,,,,,,,,,,,347.42817689999356,347.4431726000039,347.4431726000039,347.9433583999926,347.9433583999926,350.4431304000027,350.4431304000027,350.42701189999934,None,1,,,,,,,nback28,001,2023-12-14_17h46.02.251,untitled,2023.2.3,60.02339712716013,2023-12-14 18h29.07.666701 -0500,
,"[0.3, 0]",None,,,,,,,,,0,8,8,8,350.4431304000027,,,,,,,,,,,,,,,,,,,,,,,,,,,,,,,,,,,,,,,,,,,,,,,,,,,,,,,,,,,,,,,,,,350.4273867000011,350.4431304000027,350.4431304000027,350.94312529999297,350.94312529999297,353.4432378000056,353.4432378000056,353.42721389999497,None,1,,,,,,,nback28,001,2023-12-14_17h46.02.251,untitled,2023.2.3,60.02339712716013,2023-12-14 18h29.07.666701 -0500,
,"[0.64, -0.4]",space,,,,,,,,,0,9,9,9,353.4432378000056,,,,,,,,,,,,,,,,,,,,,,,,,,,,,,,,,,,,,,,,,,,,,,,,,,,,,,,,,,,,,,,,,,353.4278459000052,353.4432378000056,353.4432378000056,353.9432279999892,353.9432279999892,356.44304650000413,356.44304650000413,356.4271887000068,space,1,0.562681600014912,None,,,,,nback28,001,2023-12-14_17h46.02.251,untitled,2023.2.3,60.02339712716013,2023-12-14 18h29.07.666701 -0500,
,"[-0.64, 0.4]",None,,,,,,,,,0,10,10,10,356.44304650000413,,,,,,,,,,,,,,,,,,,,,,,,,,,,,,,,,,,,,,,,,,,,,,,,,,,,,,,,,,,,,,,,,,356.42790139999124,356.44304650000413,356.44304650000413,356.9433024000027,356.9433024000027,359.4431182999979,359.4431182999979,359.42738189999363,None,1,,,,,,,nback28,001,2023-12-14_17h46.02.251,untitled,2023.2.3,60.02339712716013,2023-12-14 18h29.07.666701 -0500,
,"[0.2, 0.1]",None,,,,,,,,,0,11,11,11,359.4431182999979,,,,,,,,,,,,,,,,,,,,,,,,,,,,,,,,,,,,,,,,,,,,,,,,,,,,,,,,,,,,,,,,,,359.4279222000041,359.4431182999979,359.4431182999979,359.94318609999027,359.94318609999027,362.44305989998975,362.44305989998975,362.4270530999929,None,1,,,,,,,nback28,001,2023-12-14_17h46.02.251,untitled,2023.2.3,60.02339712716013,2023-12-14 18h29.07.666701 -0500,
,"[0.3, 0]",None,,,,,,,,,0,12,12,12,362.44305989998975,,,,,,,,,,,,,,,,,,,,,,,,,,,,,,,,,,,,,,,,,,,,,,,,,,,,,,,,,,,,,,,,,,362.4276706999808,362.44305989998975,362.44305989998975,362.94288109999616,362.94288109999616,365.44292359999963,365.44292359999963,365.42718259998946,None,1,,,,,,,nback28,001,2023-12-14_17h46.02.251,untitled,2023.2.3,60.02339712716013,2023-12-14 18h29.07.666701 -0500,
,"[0.2, 0.1]",space,,,,,,,,,0,13,13,13,365.44292359999963,,,,,,,,,,,,,,,,,,,,,,,,,,,,,,,,,,,,,,,,,,,,,,,,,,,,,,,,,,,,,,,,,,365.4279775999894,365.44292359999963,365.44292359999963,365.9430892999808,365.9430892999808,368.442973600002,368.442973600002,368.4272923999815,None,0,,,,,,,nback28,001,2023-12-14_17h46.02.251,untitled,2023.2.3,60.02339712716013,2023-12-14 18h29.07.666701 -0500,
,"[-0.3, 0]",None,,,,,,,,,0,14,14,14,368.442973600002,,,,,,,,,,,,,,,,,,,,,,,,,,,,,,,,,,,,,,,,,,,,,,,,,,,,,,,,,,,,,,,,,,368.4280346999876,368.442973600002,368.442973600002,368.9430002000008,368.9430002000008,371.44291169999633,371.44291169999633,371.42728089998127,space,0,1.7239792000036687,None,,,,,nback28,001,2023-12-14_17h46.02.251,untitled,2023.2.3,60.02339712716013,2023-12-14 18h29.07.666701 -0500,
,"[0, 0.2]",None,,,,,,,,,0,15,15,15,371.44291169999633,,,,,,,,,,,,,,,,,,,,,,,,,,,,,,,,,,,,,,,,,,,,,,,,,,,,,,,,,,,,,,,,,,371.42831839999417,371.44291169999633,371.44291169999633,371.9429728999967,371.9429728999967,374.4429869999876,374.4429869999876,374.4272932999884,None,1,,,,,,,nback28,001,2023-12-14_17h46.02.251,untitled,2023.2.3,60.02339712716013,2023-12-14 18h29.07.666701 -0500,
,"[-0.3, 0]",space,,,,,,,,,0,16,16,16,374.4429869999876,,,,,,,,,,,,,,,,,,,,,,,,,,,,,,,,,,,,,,,,,,,,,,,,,,,,,,,,,,,,,,,,,,374.4280824000016,374.4429869999876,374.4429869999876,374.94295739999507,374.94295739999507,377.4429816000047,377.4429816000047,377.4270011000044,None,0,,,,,,,nback28,001,2023-12-14_17h46.02.251,untitled,2023.2.3,60.02339712716013,2023-12-14 18h29.07.666701 -0500,
,"[-0.64, -0.4]",None,,,,,,,,,0,17,17,17,377.4429816000047,,,,,,,,,,,,,,,,,,,,,,,,,,,,,,,,,,,,,,,,,,,,,,,,,,,,,,,,,,,,,,,,,,377.4277902999893,377.4429816000047,377.4429816000047,377.9427453999815,377.9427453999815,380.4427979000029,380.4427979000029,380.42688509999425,None,1,,,,,,,nback28,001,2023-12-14_17h46.02.251,untitled,2023.2.3,60.02339712716013,2023-12-14 18h29.07.666701 -0500,
,"[-0.2, -0.1]",None,,,,,,,,,0,18,18,18,380.4427979000029,,,,,,,,,,,,,,,,,,,,,,,,,,,,,,,,,,,,,,,,,,,,,,,,,,,,,,,,,,,,,,,,,,380.4275762999896,380.4427979000029,380.4427979000029,380.942985200003,380.942985200003,383.4425583999837,383.4425583999837,383.42644059998565,None,1,,,,,,,nback28,001,2023-12-14_17h46.02.251,untitled,2023.2.3,60.02339712716013,2023-12-14 18h29.07.666701 -0500,
,"[0.2, -0.1]",None,,,,,,,,,0,19,19,19,383.4425583999837,,,,,,,,,,,,,,,,,,,,,,,,,,,,,,,,,,,,,,,,,,,,,,,,,,,,,,,,,,,,,,,,,,383.42703669998446,383.4425583999837,383.4425583999837,383.9428723999881,383.9428723999881,386.4426608000067,386.4426608000067,386.4268293000059,None,1,,,,,,,nback28,001,2023-12-14_17h46.02.251,untitled,2023.2.3,60.02339712716013,2023-12-14 18h29.07.666701 -0500,
,"[0.2, -0.1]",None,,,,,,,,,0,20,20,20,386.4426608000067,,,,,,,,,,,,,,,,,,,,,,,,,,,,,,,,,,,,,,,,,,,,,,,,,,,,,,,,,,,,,,,,,,386.42761260000407,386.4426608000067,386.4426608000067,386.94263710000087,386.94263710000087,389.4425945999974,389.4425945999974,389.4269209000049,None,1,,,,,,,nback28,001,2023-12-14_17h46.02.251,untitled,2023.2.3,60.02339712716013,2023-12-14 18h29.07.666701 -0500,
,"[-0.64, 0.4]",None,,,,,,,,,0,21,21,21,389.4425945999974,,,,,,,,,,,,,,,,,,,,,,,,,,,,,,,,,,,,,,,,,,,,,,,,,,,,,,,,,,,,,,,,,,389.42769439998665,389.4425945999974,389.4425945999974,389.94258929998614,389.94258929998614,392.4424397999828,392.4424397999828,392.4264551999804,None,1,,,,,,,nback28,001,2023-12-14_17h46.02.251,untitled,2023.2.3,60.02339712716013,2023-12-14 18h29.07.666701 -0500,
,"[0, 0.2]",None,,,,,,,,,0,22,22,22,392.4424397999828,,,,,,,,,,,,,,,,,,,,,,,,,,,,,,,,,,,,,,,,,,,,,,,,,,,,,,,,,,,,,,,,,,392.4270266999956,392.4424397999828,392.4424397999828,392.94255929999053,392.94255929999053,395.4425318999856,395.4425318999856,395.42649489999167,None,1,,,,,,,nback28,001,2023-12-14_17h46.02.251,untitled,2023.2.3,60.02339712716013,2023-12-14 18h29.07.666701 -0500,
,"[0.64, -0.4]",None,,,,,,,,,0,23,23,23,395.4425318999856,,,,,,,,,,,,,,,,,,,,,,,,,,,,,,,,,,,,,,,,,,,,,,,,,,,,,,,,,,,,,,,,,,395.42715489998227,395.4425318999856,395.4425318999856,395.9425779999874,395.9425779999874,398.44233259998146,398.44233259998146,398.4264813000045,None,1,,,,,,,nback28,001,2023-12-14_17h46.02.251,untitled,2023.2.3,60.02339712716013,2023-12-14 18h29.07.666701 -0500,
,"[0, 0.2]",space,,,,,,,,,0,24,24,24,398.44233259998146,,,,,,,,,,,,,,,,,,,,,,,,,,,,,,,,,,,,,,,,,,,,,,,,,,,,,,,,,,,,,,,,,,398.4270595999842,398.44233259998146,398.44233259998146,398.94245189998765,398.94245189998765,401.44231869999203,401.44231869999203,401.42648619998363,space,1,0.6435644000011962,None,,,,,nback28,001,2023-12-14_17h46.02.251,untitled,2023.2.3,60.02339712716013,2023-12-14 18h29.07.666701 -0500,
,"[-0.2, 0.1]",None,,,,,,,,,0,25,25,25,401.44231869999203,,,,,,,,,,,,,,,,,,,,,,,,,,,,,,,,,,,,,,,,,,,,,,,,,,,,,,,,,,,,,,,,,,401.4274605999817,401.44231869999203,401.44231869999203,401.94254630000796,401.94254630000796,404.44222520000767,404.44222520000767,404.4265580000065,None,1,,,,,,,nback28,001,2023-12-14_17h46.02.251,untitled,2023.2.3,60.02339712716013,2023-12-14 18h29.07.666701 -0500,
,"[0.3, 0]",None,,,,,,,,,0,26,26,26,404.44222520000767,,,,,,,,,,,,,,,,,,,,,,,,,,,,,,,,,,,,,,,,,,,,,,,,,,,,,,,,,,,,,,,,,,404.42727109999396,404.44222520000767,404.44222520000767,404.9424093999842,404.9424093999842,407.44225500000175,407.44225500000175,407.42657209999743,None,1,,,,,,,nback28,001,2023-12-14_17h46.02.251,untitled,2023.2.3,60.02339712716013,2023-12-14 18h29.07.666701 -0500,
,"[-0.2, 0.1]",space,,,,,,,,,0,27,27,27,407.44225500000175,,,,,,,,,,,,,,,,,,,,,,,,,,,,,,,,,,,,,,,,,,,,,,,,,,,,,,,,,,,,,,,,,,407.42738760000793,407.44225500000175,407.44225500000175,407.94235379999736,407.94235379999736,410.44228160000057,410.44228160000057,410.4259710999904,space,1,0.6956270000082441,None,,,,,nback28,001,2023-12-14_17h46.02.251,untitled,2023.2.3,60.02339712716013,2023-12-14 18h29.07.666701 -0500,
,"[-0.2, 0.1]",None,,,,,,,,,0,28,28,28,410.44228160000057,,,,,,,,,,,,,,,,,,,,,,,,,,,,,,,,,,,,,,,,,,,,,,,,,,,,,,,,,,,,,,,,,,410.426618700003,410.44228160000057,410.44228160000057,410.9422814999998,410.9422814999998,413.44220580000547,413.44220580000547,413.42636399998446,None,1,,,,,,,nback28,001,2023-12-14_17h46.02.251,untitled,2023.2.3,60.02339712716013,2023-12-14 18h29.07.666701 -0500,
,"[0.2, 0.1]",None,,,,,,,,,0,29,29,29,413.44220580000547,,,,,,,,,,,,,,,,,,,,,,,,,,,,,,,,,,,,,,,,,,,,,,,,,,,,,,,,,,,,,,,,,,413.42702709999867,413.44220580000547,413.44220580000547,413.9423218999873,413.9423218999873,416.44216029997915,416.44216029997915,416.4264903999865,None,1,,,,,,,nback28,001,2023-12-14_17h46.02.251,untitled,2023.2.3,60.02339712716013,2023-12-14 18h29.07.666701 -0500,
,"[-0.64, -0.4]",None,,,,,,,,,0,30,30,30,416.44216029997915,,,,,,,,,,,,,,,,,,,,,,,,,,,,,,,,,,,,,,,,,,,,,,,,,,,,,,,,,,,,,,,,,,416.42733740000403,416.44216029997915,416.44216029997915,416.9422773999977,416.9422773999977,419.44213989999844,419.44213989999844,419.4265284999856,None,1,,,,,,,nback28,001,2023-12-14_17h46.02.251,untitled,2023.2.3,60.02339712716013,2023-12-14 18h29.07.666701 -0500,
,"[0, -0.2]",None,,,,,,,,,0,31,31,31,419.44213989999844,,,,,,,,,,,,,,,,,,,,,,,,,,,,,,,,,,,,,,,,,,,,,,,,,,,,,,,,,,,,,,,,,,419.4273222000047,419.44213989999844,419.44213989999844,419.94219859997975,419.94219859997975,422.4419765000057,422.4419765000057,422.4263832999859,None,1,,,,,,,nback28,001,2023-12-14_17h46.02.251,untitled,2023.2.3,60.02339712716013,2023-12-14 18h29.07.666701 -0500,
,"[-0.64, -0.4]",space,,,,,,,,,0,32,32,32,422.4419765000057,,,,,,,,,,,,,,,,,,,,,,,,,,,,,,,,,,,,,,,,,,,,,,,,,,,,,,,,,,,,,,,,,,422.4272781999898,422.4419765000057,422.4419765000057,422.9420475999941,422.9420475999941,425.44200429998455,425.44200429998455,425.426106400002,space,1,0.564428699988639,None,,,,,nback28,001,2023-12-14_17h46.02.251,untitled,2023.2.3,60.02339712716013,2023-12-14 18h29.07.666701 -0500,
,"[0.64, 0.4]",None,,,,,,,,,0,33,33,33,425.44200429998455,,,,,,,,,,,,,,,,,,,,,,,,,,,,,,,,,,,,,,,,,,,,,,,,,,,,,,,,,,,,,,,,,,425.4269993999915,425.44200429998455,425.44200429998455,425.94200769998133,425.94200769998133,428.4420310999849,428.4420310999849,428.4256647999864,None,1,,,,,,,nback28,001,2023-12-14_17h46.02.251,untitled,2023.2.3,60.02339712716013,2023-12-14 18h29.07.666701 -0500,
,"[-0.3, 0]",None,,,,,,,,,0,34,34,34,428.4420310999849,,,,,,,,,,,,,,,,,,,,,,,,,,,,,,,,,,,,,,,,,,,,,,,,,,,,,,,,,,,,,,,,,,428.426231999998,428.4420310999849,428.4420310999849,428.9418869999936,428.9418869999936,431.44187749997946,431.44187749997946,431.4259416999994,None,1,,,,,,,nback28,001,2023-12-14_17h46.02.251,untitled,2023.2.3,60.02339712716013,2023-12-14 18h29.07.666701 -0500,
,"[0.3, 0]",None,,,,,,,,,0,35,35,35,431.44187749997946,,,,,,,,,,,,,,,,,,,,,,,,,,,,,,,,,,,,,,,,,,,,,,,,,,,,,,,,,,,,,,,,,,431.4266379000037,431.44187749997946,431.44187749997946,431.9419765000057,431.9419765000057,434.4417671999836,434.4417671999836,434.42606929998146,None,1,,,,,,,nback28,001,2023-12-14_17h46.02.251,untitled,2023.2.3,60.02339712716013,2023-12-14 18h29.07.666701 -0500,
,"[-0.3, 0]",space,,,,,,,,,0,36,36,36,434.4417671999836,,,,,,,,,,,,,,,,,,,,,,,,,,,,,,,,,,,,,,,,,,,,,,,,,,,,,,,,,,,,,,,,,,434.42678159999195,434.4417671999836,434.4417671999836,434.9419912000012,434.9419912000012,437.4418551999843,437.4418551999843,437.42584189999616,space,1,0.6073569000000134,None,,,,,nback28,001,2023-12-14_17h46.02.251,untitled,2023.2.3,60.02339712716013,2023-12-14 18h29.07.666701 -0500,
,"[0, -0.2]",None,,,,,,,,,0,37,37,37,437.4418551999843,,,,,,,,,,,,,,,,,,,,,,,,,,,,,,,,,,,,,,,,,,,,,,,,,,,,,,,,,,,,,,,,,,437.4266746999929,437.4418551999843,437.4418551999843,437.9417937999824,437.9417937999824,440.4416100999806,440.4416100999806,440.42544759999146,None,1,,,,,,,nback28,001,2023-12-14_17h46.02.251,untitled,2023.2.3,60.02339712716013,2023-12-14 18h29.07.666701 -0500,
,"[0.3, 0]",None,,,,,,,,,0,38,38,38,440.4416100999806,,,,,,,,,,,,,,,,,,,,,,,,,,,,,,,,,,,,,,,,,,,,,,,,,,,,,,,,,,,,,,,,,,440.4259715999942,440.4416100999806,440.4416100999806,440.9417904999864,440.9417904999864,443.4417146999913,443.4417146999913,443.42597720000776,None,1,,,,,,,nback28,001,2023-12-14_17h46.02.251,untitled,2023.2.3,60.02339712716013,2023-12-14 18h29.07.666701 -0500,
,"[0.2, 0.1]",None,,,,,,,,,0,39,39,39,443.4417146999913,,,,,,,,,,,,,,,,,,,,,,,,,,,,,,,,,,,,,,,,,,,,,,,,,,,,,,,,,,,,,,,,,,443.42670999999973,443.4417146999913,443.4417146999913,443.9416438000044,443.9416438000044,446.44172899998375,446.44172899998375,446.4260140999977,None,1,,,,,,,nback28,001,2023-12-14_17h46.02.251,untitled,2023.2.3,60.02339712716013,2023-12-14 18h29.07.666701 -0500,
,,,,,,,,,,,,,,,,,,,,,,,,,,,,,,,,,,,,,,,,,,,,,,,,,,,,,,,,,,,,,,,,,,,,,,,,,,,,,,,,,,,,,,,,,,,,,446.42651930000284,446.44172899998375,449.4415192999877,449.42560749998665,,,,,,,,
