square,location,corrAns,trials_0.thisRepN,trials_0.thisTrialN,trials_0.thisN,trials_0.thisIndex,trials_1.thisRepN,trials_1.thisTrialN,trials_1.thisN,trials_1.thisIndex,trials_2.thisRepN,trials_2.thisTrialN,trials_2.thisN,trials_2.thisIndex,thisRow.t,notes,Instructions.started,instructions.started,key_resp.started,inst_sq11.started,Instructions.stopped,key_resp.keys,key_resp.rt,key_resp.duration,All.started,sq_1.started,sq_2.started,sq_3.started,sq_4.started,sq_5.started,sq_6.started,sq_7.started,sq_8.started,sq_9.started,sq_10.started,sq_11.started,sq_12.started,All.stopped,Fixation.started,fixation_3.started,fixation_3.stopped,Fixation.stopped,N_back_0_Trial.started,target_square_0.started,response_0.started,fixation_0.started,target_square_0.stopped,fixation_0.stopped,N_back_0_Trial.stopped,response_0.keys,response_0.corr,response_0.rt,response_0.duration,Instructions_1.started,instructions_1.started,key_resp_1.started,Instructions_1.stopped,key_resp_1.keys,key_resp_1.rt,key_resp_1.duration,N_back_1_Trial.started,target_square_1.started,response_1.started,fixation_1.started,target_square_1.stopped,fixation_1.stopped,N_back_1_Trial.stopped,response_1.keys,response_1.corr,response_1.rt,response_1.duration,Instructions_2.started,instructions_2.started,key_resp_2.started,Instructions_2.stopped,key_resp_2.keys,key_resp_2.rt,key_resp_2.duration,N_back_2_trials.started,target_square_2.started,response_2.started,target_square_2.stopped,fixation_2.started,fixation_2.stopped,response_2.stopped,N_back_2_trials.stopped,response_2.keys,response_2.corr,response_2.rt,response_2.duration,End.started,thank_you.started,thank_you.stopped,End.stopped,participant,session,date,expName,psychopyVersion,frameRate,expStart,
,,,,,,,,,,,,,,,,,0.0014668000512756407,0.004019800049718469,0.004019800049718469,0.004019800049718469,2115.6220662000123,space,2115.6030270000338,None,,,,,,,,,,,,,,,,,,,,,,,,,,,,,,,,,,,,,,,,,,,,,,,,,,,,,,,,,,,,,,,,,,,,,,,nback56,001,2024-01-16_09h18.02.280,untitled,2023.2.3,59.983036800702514,2024-01-16 10h00.11.539102 -0500,
6,"[-0.3, 0]",None,0,0,0,0,,,,,,,,,2117.6424411000335,,,,,,,,,,2115.622106200026,2115.6373114000307,2115.6373114000307,2115.6373114000307,2115.6373114000307,2115.6373114000307,2115.6373114000307,2115.6373114000307,2115.6373114000307,2115.6373114000307,2115.6373114000307,2115.6373114000307,2115.6373114000307,2116.6213068000507,2116.6213226000546,2116.6370933,2117.6424411000335,2117.621428900049,2117.640499500034,2117.6424411000335,2117.6424411000335,2118.120764200052,2118.1540481000557,2120.620655000035,2120.637472600036,None,1,,,,,,,,,,,,,,,,,,,,,,,,,,,,,,,,,,,,,,,,,,,,nback56,001,2024-01-16_09h18.02.280,untitled,2023.2.3,59.983036800702514,2024-01-16 10h00.11.539102 -0500,
10,"[0, -0.2]",None,0,1,1,1,,,,,,,,,2120.654031000042,,,,,,,,,,,,,,,,,,,,,,,,,,,,2120.6384649000247,2120.654031000042,2120.654031000042,2121.1207474000403,2121.1540634999983,2123.62054730003,2123.63739410002,None,1,,,,,,,,,,,,,,,,,,,,,,,,,,,,,,,,,,,,,,,,,,,,nback56,001,2024-01-16_09h18.02.280,untitled,2023.2.3,59.983036800702514,2024-01-16 10h00.11.539102 -0500,
11,"[-0.64, -0.4]",space,0,2,2,2,,,,,,,,,2123.653974500019,,,,,,,,,,,,,,,,,,,,,,,,,,,,2123.6381658000173,2123.653974500019,2123.653974500019,2124.120451499999,2124.1545663000434,2126.6204878000426,2126.637299400056,space,1,0.5027226000092924,None,,,,,,,,,,,,,,,,,,,,,,,,,,,,,,,,,,,,,,,,,,nback56,001,2024-01-16_09h18.02.280,untitled,2023.2.3,59.983036800702514,2024-01-16 10h00.11.539102 -0500,
12,"[0.64, -0.4]",None,0,3,3,3,,,,,,,,,2126.654075700033,,,,,,,,,,,,,,,,,,,,,,,,,,,,2126.6384194000275,2126.654075700033,2126.654075700033,2127.1206366000115,2127.1538761000265,2129.620545700018,2129.6373284000438,None,1,,,,,,,,,,,,,,,,,,,,,,,,,,,,,,,,,,,,,,,,,,,,nback56,001,2024-01-16_09h18.02.280,untitled,2023.2.3,59.983036800702514,2024-01-16 10h00.11.539102 -0500,
1,"[-0.64, 0.4]",None,0,4,4,4,,,,,,,,,2129.653938000032,,,,,,,,,,,,,,,,,,,,,,,,,,,,2129.63813690003,2129.653938000032,2129.653938000032,2130.1202689000056,2130.153794200043,2132.6203261000337,2132.6371561000124,None,1,,,,,,,,,,,,,,,,,,,,,,,,,,,,,,,,,,,,,,,,,,,,nback56,001,2024-01-16_09h18.02.280,untitled,2023.2.3,59.983036800702514,2024-01-16 10h00.11.539102 -0500,
1,"[-0.64, 0.4]",None,0,5,5,5,,,,,,,,,2132.65383200004,,,,,,,,,,,,,,,,,,,,,,,,,,,,2132.637918500055,2132.65383200004,2132.65383200004,2133.1203548000194,2133.153700500028,2135.620275699999,2135.6370541000506,None,1,,,,,,,,,,,,,,,,,,,,,,,,,,,,,,,,,,,,,,,,,,,,nback56,001,2024-01-16_09h18.02.280,untitled,2023.2.3,59.983036800702514,2024-01-16 10h00.11.539102 -0500,
4,"[-0.2, 0.1]",None,0,6,6,6,,,,,,,,,2135.653666500002,,,,,,,,,,,,,,,,,,,,,,,,,,,,2135.6376704000286,2135.653666500002,2135.653666500002,2136.1204502000473,2136.1538538000314,2138.6203880000394,2138.6371374000446,None,1,,,,,,,,,,,,,,,,,,,,,,,,,,,,,,,,,,,,,,,,,,,,nback56,001,2024-01-16_09h18.02.280,untitled,2023.2.3,59.983036800702514,2024-01-16 10h00.11.539102 -0500,
5,"[0.2, 0.1]",None,0,7,7,7,,,,,,,,,2138.653808700037,,,,,,,,,,,,,,,,,,,,,,,,,,,,2138.6379191000015,2138.653808700037,2138.653808700037,2139.1370752000366,2139.1537311000284,2141.6368614000385,2141.637069700053,None,1,,,,,,,,,,,,,,,,,,,,,,,,,,,,,,,,,,,,,,,,,,,,nback56,001,2024-01-16_09h18.02.280,untitled,2023.2.3,59.983036800702514,2024-01-16 10h00.11.539102 -0500,
11,"[-0.64, -0.4]",space,0,8,8,8,,,,,,,,,2141.6537000000244,,,,,,,,,,,,,,,,,,,,,,,,,,,,2141.637841800053,2141.6537000000244,2141.6537000000244,2142.136843300017,2142.1536360000027,2144.636823000037,2144.6371440000366,space,1,0.42086319997906685,None,,,,,,,,,,,,,,,,,,,,,,,,,,,,,,,,,,,,,,,,,,nback56,001,2024-01-16_09h18.02.280,untitled,2023.2.3,59.983036800702514,2024-01-16 10h00.11.539102 -0500,
9,"[0.2, -0.1]",None,0,9,9,9,,,,,,,,,2144.6537244000356,,,,,,,,,,,,,,,,,,,,,,,,,,,,2144.6380276000127,2144.6537244000356,2144.6537244000356,2145.1367768000346,2145.15353760001,2147.636789100012,2147.6369604000356,None,1,,,,,,,,,,,,,,,,,,,,,,,,,,,,,,,,,,,,,,,,,,,,nback56,001,2024-01-16_09h18.02.280,untitled,2023.2.3,59.983036800702514,2024-01-16 10h00.11.539102 -0500,
8,"[-0.2, -0.1]",None,0,10,10,10,,,,,,,,,2147.6535798000405,,,,,,,,,,,,,,,,,,,,,,,,,,,,2147.637790000008,2147.6535798000405,2147.6535798000405,2148.1367334000533,2148.15352490003,2150.636896800017,2150.6371184000163,None,1,,,,,,,,,,,,,,,,,,,,,,,,,,,,,,,,,,,,,,,,,,,,nback56,001,2024-01-16_09h18.02.280,untitled,2023.2.3,59.983036800702514,2024-01-16 10h00.11.539102 -0500,
9,"[0.2, -0.1]",None,0,11,11,11,,,,,,,,,2150.653605600004,,,,,,,,,,,,,,,,,,,,,,,,,,,,2150.638016800047,2150.653605600004,2150.653605600004,2151.1366521000164,2151.1536291000084,2153.6366438000114,2153.636818800005,None,1,,,,,,,,,,,,,,,,,,,,,,,,,,,,,,,,,,,,,,,,,,,,nback56,001,2024-01-16_09h18.02.280,untitled,2023.2.3,59.983036800702514,2024-01-16 10h00.11.539102 -0500,
6,"[-0.3, 0]",None,0,12,12,12,,,,,,,,,2153.6534721000353,,,,,,,,,,,,,,,,,,,,,,,,,,,,2153.637663200032,2153.6534721000353,2153.6534721000353,2154.136681200005,2154.153565100045,2156.636647800042,2156.6368470000452,None,1,,,,,,,,,,,,,,,,,,,,,,,,,,,,,,,,,,,,,,,,,,,,nback56,001,2024-01-16_09h18.02.280,untitled,2023.2.3,59.983036800702514,2024-01-16 10h00.11.539102 -0500,
9,"[0.2, -0.1]",None,0,13,13,13,,,,,,,,,2156.65326000005,,,,,,,,,,,,,,,,,,,,,,,,,,,,2156.6376376000117,2156.65326000005,2156.65326000005,2157.1367212000187,2157.1533331000246,2159.636504000053,2159.6366724000545,None,1,,,,,,,,,,,,,,,,,,,,,,,,,,,,,,,,,,,,,,,,,,,,nback56,001,2024-01-16_09h18.02.280,untitled,2023.2.3,59.983036800702514,2024-01-16 10h00.11.539102 -0500,
7,"[0.3, 0]",None,0,14,14,14,,,,,,,,,2159.653355700022,,,,,,,,,,,,,,,,,,,,,,,,,,,,2159.6373555000173,2159.653355700022,2159.653355700022,2160.1367274000077,2160.1535196000477,2162.636734800006,2162.63694940001,None,1,,,,,,,,,,,,,,,,,,,,,,,,,,,,,,,,,,,,,,,,,,,,nback56,001,2024-01-16_09h18.02.280,untitled,2023.2.3,59.983036800702514,2024-01-16 10h00.11.539102 -0500,
2,"[0.64, 0.4]",None,0,15,15,15,,,,,,,,,2162.6533041000366,,,,,,,,,,,,,,,,,,,,,,,,,,,,2162.637829300016,2162.6533041000366,2162.6533041000366,2163.136459500005,2163.153321400052,2165.6364867000375,2165.636692400032,None,1,,,,,,,,,,,,,,,,,,,,,,,,,,,,,,,,,,,,,,,,,,,,nback56,001,2024-01-16_09h18.02.280,untitled,2023.2.3,59.983036800702514,2024-01-16 10h00.11.539102 -0500,
2,"[0.64, 0.4]",None,0,16,16,16,,,,,,,,,2165.653214400052,,,,,,,,,,,,,,,,,,,,,,,,,,,,2165.6374872000306,2165.653214400052,2165.653214400052,2166.1366082000313,2166.1531776000047,2168.6363665000536,2168.636546100024,None,1,,,,,,,,,,,,,,,,,,,,,,,,,,,,,,,,,,,,,,,,,,,,nback56,001,2024-01-16_09h18.02.280,untitled,2023.2.3,59.983036800702514,2024-01-16 10h00.11.539102 -0500,
11,"[-0.64, -0.4]",space,0,17,17,17,,,,,,,,,2168.65319750004,,,,,,,,,,,,,,,,,,,,,,,,,,,,2168.6373613000032,2168.65319750004,2168.65319750004,2169.1366413000505,2169.153208100004,2171.6365467000287,2171.6367449000245,space,1,0.44655900000361726,None,,,,,,,,,,,,,,,,,,,,,,,,,,,,,,,,,,,,,,,,,,nback56,001,2024-01-16_09h18.02.280,untitled,2023.2.3,59.983036800702514,2024-01-16 10h00.11.539102 -0500,
11,"[-0.64, -0.4]",space,0,18,18,18,,,,,,,,,2171.653058100026,,,,,,,,,,,,,,,,,,,,,,,,,,,,2171.637712100055,2171.653058100026,2171.653058100026,2172.136560700019,2172.1530232000514,2174.6363867000327,2174.6365858000354,space,1,0.5242318999953568,None,,,,,,,,,,,,,,,,,,,,,,,,,,,,,,,,,,,,,,,,,,nback56,001,2024-01-16_09h18.02.280,untitled,2023.2.3,59.983036800702514,2024-01-16 10h00.11.539102 -0500,
7,"[0.3, 0]",None,0,19,19,19,,,,,,,,,2174.6531697000028,,,,,,,,,,,,,,,,,,,,,,,,,,,,2174.637510600034,2174.6531697000028,2174.6531697000028,2175.1364175000344,2175.153094100009,2177.6363009000197,2177.6364983000094,None,1,,,,,,,,,,,,,,,,,,,,,,,,,,,,,,,,,,,,,,,,,,,,nback56,001,2024-01-16_09h18.02.280,untitled,2023.2.3,59.983036800702514,2024-01-16 10h00.11.539102 -0500,
3,"[0, 0.2]",None,0,20,20,20,,,,,,,,,2177.652969900053,,,,,,,,,,,,,,,,,,,,,,,,,,,,2177.637285100005,2177.652969900053,2177.652969900053,2178.1363997000153,2178.1529679000378,2180.6360336000216,2180.636170300015,None,1,,,,,,,,,,,,,,,,,,,,,,,,,,,,,,,,,,,,,,,,,,,,nback56,001,2024-01-16_09h18.02.280,untitled,2023.2.3,59.983036800702514,2024-01-16 10h00.11.539102 -0500,
10,"[0, -0.2]",None,0,21,21,21,,,,,,,,,2180.6527901000227,,,,,,,,,,,,,,,,,,,,,,,,,,,,2180.6366239000345,2180.6527901000227,2180.6527901000227,2181.1362607000046,2181.1529221000383,2183.636104300036,2183.636275800003,None,1,,,,,,,,,,,,,,,,,,,,,,,,,,,,,,,,,,,,,,,,,,,,nback56,001,2024-01-16_09h18.02.280,untitled,2023.2.3,59.983036800702514,2024-01-16 10h00.11.539102 -0500,
1,"[-0.64, 0.4]",None,0,22,22,22,,,,,,,,,2183.6529847000493,,,,,,,,,,,,,,,,,,,,,,,,,,,,2183.6369406000013,2183.6529847000493,2183.6529847000493,2184.136334400042,2184.1529111000127,2186.6362239000155,2186.636487800046,None,1,,,,,,,,,,,,,,,,,,,,,,,,,,,,,,,,,,,,,,,,,,,,nback56,001,2024-01-16_09h18.02.280,untitled,2023.2.3,59.983036800702514,2024-01-16 10h00.11.539102 -0500,
2,"[0.64, 0.4]",None,0,23,23,23,,,,,,,,,2186.6528366000275,,,,,,,,,,,,,,,,,,,,,,,,,,,,2186.6387306000106,2186.6528366000275,2186.6528366000275,2187.136239900021,2187.153087100014,2189.6361616000067,2189.6363797000377,None,1,,,,,,,,,,,,,,,,,,,,,,,,,,,,,,,,,,,,,,,,,,,,nback56,001,2024-01-16_09h18.02.280,untitled,2023.2.3,59.983036800702514,2024-01-16 10h00.11.539102 -0500,
6,"[-0.3, 0]",None,0,24,24,24,,,,,,,,,2189.652716700046,,,,,,,,,,,,,,,,,,,,,,,,,,,,2189.637318000023,2189.652716700046,2189.652716700046,2190.136018600024,2190.152755600051,2192.6360395000083,2192.6362301000045,None,1,,,,,,,,,,,,,,,,,,,,,,,,,,,,,,,,,,,,,,,,,,,,nback56,001,2024-01-16_09h18.02.280,untitled,2023.2.3,59.983036800702514,2024-01-16 10h00.11.539102 -0500,
3,"[0, 0.2]",None,0,25,25,25,,,,,,,,,2192.6527217000257,,,,,,,,,,,,,,,,,,,,,,,,,,,,2192.637083000038,2192.6527217000257,2192.6527217000257,2193.1360889000352,2193.1527355000144,2195.6358750000363,2195.636064900027,None,1,,,,,,,,,,,,,,,,,,,,,,,,,,,,,,,,,,,,,,,,,,,,nback56,001,2024-01-16_09h18.02.280,untitled,2023.2.3,59.983036800702514,2024-01-16 10h00.11.539102 -0500,
11,"[-0.64, -0.4]",space,0,26,26,26,,,,,,,,,2195.6526533000288,,,,,,,,,,,,,,,,,,,,,,,,,,,,2195.6368154000374,2195.6526533000288,2195.6526533000288,2196.1358263000147,2196.1526188999997,2198.635903200018,2198.6361136000487,space,1,0.407703600008972,None,,,,,,,,,,,,,,,,,,,,,,,,,,,,,,,,,,,,,,,,,,nback56,001,2024-01-16_09h18.02.280,untitled,2023.2.3,59.983036800702514,2024-01-16 10h00.11.539102 -0500,
1,"[-0.64, 0.4]",None,0,27,27,27,,,,,,,,,2198.652715400036,,,,,,,,,,,,,,,,,,,,,,,,,,,,2198.6371503000264,2198.652715400036,2198.652715400036,2199.135811300017,2199.152652400022,2201.6358512000297,2201.636043000035,None,1,,,,,,,,,,,,,,,,,,,,,,,,,,,,,,,,,,,,,,,,,,,,nback56,001,2024-01-16_09h18.02.280,untitled,2023.2.3,59.983036800702514,2024-01-16 10h00.11.539102 -0500,
3,"[0, 0.2]",None,0,28,28,28,,,,,,,,,2201.6524361000047,,,,,,,,,,,,,,,,,,,,,,,,,,,,2201.6367313000374,2201.6524361000047,2201.6524361000047,2202.1359214000404,2202.1525830000173,2204.6359096000087,2204.6360954000265,None,1,,,,,,,,,,,,,,,,,,,,,,,,,,,,,,,,,,,,,,,,,,,,nback56,001,2024-01-16_09h18.02.280,untitled,2023.2.3,59.983036800702514,2024-01-16 10h00.11.539102 -0500,
9,"[0.2, -0.1]",None,0,29,29,29,,,,,,,,,2204.6524722000468,,,,,,,,,,,,,,,,,,,,,,,,,,,,2204.6368394000456,2204.6524722000468,2204.6524722000468,2205.135819900024,2205.1526228000293,2207.6357803000137,2207.6359955000225,None,1,,,,,,,,,,,,,,,,,,,,,,,,,,,,,,,,,,,,,,,,,,,,nback56,001,2024-01-16_09h18.02.280,untitled,2023.2.3,59.983036800702514,2024-01-16 10h00.11.539102 -0500,
8,"[-0.2, -0.1]",None,0,30,30,30,,,,,,,,,2207.652460400015,,,,,,,,,,,,,,,,,,,,,,,,,,,,2207.636852900032,2207.652460400015,2207.652460400015,2208.1357904000324,2208.1526807000046,2210.6357448000344,2210.635931900004,None,1,,,,,,,,,,,,,,,,,,,,,,,,,,,,,,,,,,,,,,,,,,,,nback56,001,2024-01-16_09h18.02.280,untitled,2023.2.3,59.983036800702514,2024-01-16 10h00.11.539102 -0500,
12,"[0.64, -0.4]",None,0,31,31,31,,,,,,,,,2210.65224960004,,,,,,,,,,,,,,,,,,,,,,,,,,,,2210.636622400023,2210.65224960004,2210.65224960004,2211.1357855000533,2211.152473599999,2213.635741700011,2213.635922400048,None,1,,,,,,,,,,,,,,,,,,,,,,,,,,,,,,,,,,,,,,,,,,,,nback56,001,2024-01-16_09h18.02.280,untitled,2023.2.3,59.983036800702514,2024-01-16 10h00.11.539102 -0500,
9,"[0.2, -0.1]",None,0,32,32,32,,,,,,,,,2213.6523654000484,,,,,,,,,,,,,,,,,,,,,,,,,,,,2213.6366368000163,2213.6523654000484,2213.6523654000484,2214.1358894000296,2214.152368400013,2216.635785300052,2216.6359832000453,None,1,,,,,,,,,,,,,,,,,,,,,,,,,,,,,,,,,,,,,,,,,,,,nback56,001,2024-01-16_09h18.02.280,untitled,2023.2.3,59.983036800702514,2024-01-16 10h00.11.539102 -0500,
11,"[-0.64, -0.4]",space,0,33,33,33,,,,,,,,,2216.6523893999984,,,,,,,,,,,,,,,,,,,,,,,,,,,,2216.6367413000553,2216.6523893999984,2216.6523893999984,2217.1357094999985,2217.1522692000144,2219.6356510000187,2219.6358509000274,space,1,0.42328960000304505,None,,,,,,,,,,,,,,,,,,,,,,,,,,,,,,,,,,,,,,,,,,nback56,001,2024-01-16_09h18.02.280,untitled,2023.2.3,59.983036800702514,2024-01-16 10h00.11.539102 -0500,
7,"[0.3, 0]",None,0,34,34,34,,,,,,,,,2219.652253700013,,,,,,,,,,,,,,,,,,,,,,,,,,,,2219.6367726000026,2219.652253700013,2219.652253700013,2220.135573000007,2220.152219700045,2222.635481300007,2222.635631900048,None,1,,,,,,,,,,,,,,,,,,,,,,,,,,,,,,,,,,,,,,,,,,,,nback56,001,2024-01-16_09h18.02.280,untitled,2023.2.3,59.983036800702514,2024-01-16 10h00.11.539102 -0500,
11,"[-0.64, -0.4]",space,0,35,35,35,,,,,,,,,2222.6520955000306,,,,,,,,,,,,,,,,,,,,,,,,,,,,2222.6362097000238,2222.6520955000306,2222.6520955000306,2223.1356482000556,2223.1521634000237,2225.635594600055,2225.6358119000215,space,1,0.5199758000089787,None,,,,,,,,,,,,,,,,,,,,,,,,,,,,,,,,,,,,,,,,,,nback56,001,2024-01-16_09h18.02.280,untitled,2023.2.3,59.983036800702514,2024-01-16 10h00.11.539102 -0500,
4,"[-0.2, 0.1]",None,0,36,36,36,,,,,,,,,2225.652065900038,,,,,,,,,,,,,,,,,,,,,,,,,,,,2225.636848000053,2225.652065900038,2225.652065900038,2226.135591700033,2226.152152399998,2228.6353044999996,2228.635487200052,None,1,,,,,,,,,,,,,,,,,,,,,,,,,,,,,,,,,,,,,,,,,,,,nback56,001,2024-01-16_09h18.02.280,untitled,2023.2.3,59.983036800702514,2024-01-16 10h00.11.539102 -0500,
5,"[0.2, 0.1]",None,0,37,37,37,,,,,,,,,2228.6522708000266,,,,,,,,,,,,,,,,,,,,,,,,,,,,2228.636192100006,2228.6522708000266,2228.6522708000266,2229.1352759000147,2229.152005900047,2231.635376900027,2231.6355575000052,None,1,,,,,,,,,,,,,,,,,,,,,,,,,,,,,,,,,,,,,,,,,,,,nback56,001,2024-01-16_09h18.02.280,untitled,2023.2.3,59.983036800702514,2024-01-16 10h00.11.539102 -0500,
6,"[-0.3, 0]",None,0,38,38,38,,,,,,,,,2231.652041800029,,,,,,,,,,,,,,,,,,,,,,,,,,,,2231.6362633000244,2231.652041800029,2231.652041800029,2232.135638400039,2232.1521897000493,2234.6353315000306,2234.635508400039,None,1,,,,,,,,,,,,,,,,,,,,,,,,,,,,,,,,,,,,,,,,,,,,nback56,001,2024-01-16_09h18.02.280,untitled,2023.2.3,59.983036800702514,2024-01-16 10h00.11.539102 -0500,
11,"[-0.64, -0.4]",space,0,39,39,39,,,,,,,,,2234.65194120002,,,,,,,,,,,,,,,,,,,,,,,,,,,,2234.636128900049,2234.65194120002,2234.65194120002,2235.135411000054,2235.152246100013,2237.6352454000153,2237.635456500051,space,1,0.4075492999982089,None,,,,,,,,,,,,,,,,,,,,,,,,,,,,,,,,,,,,,,,,,,nback56,001,2024-01-16_09h18.02.280,untitled,2023.2.3,59.983036800702514,2024-01-16 10h00.11.539102 -0500,
,,,,,,,,,,,,,,,,,,,,,,,,,,,,,,,,,,,,,,,,,,,,,,,,,,,,,,2237.63623850001,2237.6521444000537,2237.6521444000537,2253.870110400021,space,16.213465000037104,None,,,,,,,,,,,,,,,,,,,,,,,,,,,,,,,,,,,nback56,001,2024-01-16_09h18.02.280,untitled,2023.2.3,59.983036800702514,2024-01-16 10h00.11.539102 -0500,
10,"[0, -0.2]",None,,,,,0,0,0,0,,,,,2254.8914675000124,,,,,,,,,,,,,,,,,,,,,,,,2253.8701504000346,2253.884825700021,2254.8914675000124,2254.869346100022,,,,,,,,,,,,,,,,,,,2254.889527500025,2254.8914675000124,2254.8914675000124,2255.3849240000127,2255.4016728000133,2257.8849162000115,2257.885099200008,None,1,,,,,,,,,,,,,,,,,,,,,,,,,,nback56,001,2024-01-16_09h18.02.280,untitled,2023.2.3,59.983036800702514,2024-01-16 10h00.11.539102 -0500,
5,"[0.2, 0.1]",None,,,,,0,1,1,1,,,,,2257.901674200024,,,,,,,,,,,,,,,,,,,,,,,,,,,,,,,,,,,,,,,,,,,,,,2257.8859863000107,2257.901674200024,2257.901674200024,2258.384965000034,2258.4014987000264,2260.8849092000164,2260.8851248000283,None,1,,,,,,,,,,,,,,,,,,,,,,,,,,nback56,001,2024-01-16_09h18.02.280,untitled,2023.2.3,59.983036800702514,2024-01-16 10h00.11.539102 -0500,
6,"[-0.3, 0]",None,,,,,0,2,2,2,,,,,2260.9015547000454,,,,,,,,,,,,,,,,,,,,,,,,,,,,,,,,,,,,,,,,,,,,,,2260.8859931000043,2260.9015547000454,2260.9015547000454,2261.3848930000095,2261.401752100035,2263.885143700056,2263.885355000035,None,1,,,,,,,,,,,,,,,,,,,,,,,,,,nback56,001,2024-01-16_09h18.02.280,untitled,2023.2.3,59.983036800702514,2024-01-16 10h00.11.539102 -0500,
6,"[-0.3, 0]",space,,,,,0,3,3,3,,,,,2263.9014402000466,,,,,,,,,,,,,,,,,,,,,,,,,,,,,,,,,,,,,,,,,,,,,,2263.8862185000326,2263.9014402000466,2263.9014402000466,2264.384864700027,2264.4015036000055,2266.884836900048,2266.885027500044,space,1,0.40809709997847676,None,,,,,,,,,,,,,,,,,,,,,,,,nback56,001,2024-01-16_09h18.02.280,untitled,2023.2.3,59.983036800702514,2024-01-16 10h00.11.539102 -0500,
12,"[0.64, -0.4]",None,,,,,0,4,4,4,,,,,2266.901634000009,,,,,,,,,,,,,,,,,,,,,,,,,,,,,,,,,,,,,,,,,,,,,,2266.8861315000104,2266.901634000009,2266.901634000009,2267.3847422000254,2267.401516800048,2269.8847003000556,2269.8848740000394,None,1,,,,,,,,,,,,,,,,,,,,,,,,,,nback56,001,2024-01-16_09h18.02.280,untitled,2023.2.3,59.983036800702514,2024-01-16 10h00.11.539102 -0500,
10,"[0, -0.2]",None,,,,,0,5,5,5,,,,,2269.901402700052,,,,,,,,,,,,,,,,,,,,,,,,,,,,,,,,,,,,,,,,,,,,,,2269.8854749000166,2269.901402700052,2269.901402700052,2270.3846708000056,2270.401525100053,2272.884749300021,2272.8849530000007,None,1,,,,,,,,,,,,,,,,,,,,,,,,,,nback56,001,2024-01-16_09h18.02.280,untitled,2023.2.3,59.983036800702514,2024-01-16 10h00.11.539102 -0500,
2,"[0.64, 0.4]",None,,,,,0,6,6,6,,,,,2272.9013396000373,,,,,,,,,,,,,,,,,,,,,,,,,,,,,,,,,,,,,,,,,,,,,,2272.8857356000226,2272.9013396000373,2272.9013396000373,2273.3848525000503,2273.4014723,2275.884657000017,2275.8848711000173,None,1,,,,,,,,,,,,,,,,,,,,,,,,,,nback56,001,2024-01-16_09h18.02.280,untitled,2023.2.3,59.983036800702514,2024-01-16 10h00.11.539102 -0500,
9,"[0.2, -0.1]",None,,,,,0,7,7,7,,,,,2275.901313500013,,,,,,,,,,,,,,,,,,,,,,,,,,,,,,,,,,,,,,,,,,,,,,2275.885681600019,2275.901313500013,2275.901313500013,2276.3845976000302,2276.4014290000196,2278.88458490005,2278.8848065000493,None,1,,,,,,,,,,,,,,,,,,,,,,,,,,nback56,001,2024-01-16_09h18.02.280,untitled,2023.2.3,59.983036800702514,2024-01-16 10h00.11.539102 -0500,
9,"[0.2, -0.1]",space,,,,,0,8,8,8,,,,,2278.901289900008,,,,,,,,,,,,,,,,,,,,,,,,,,,,,,,,,,,,,,,,,,,,,,2278.885696500016,2278.901289900008,2278.901289900008,2279.384566700028,2279.40124560002,2281.8845122000203,2281.8847248000093,space,1,0.4612698000273667,None,,,,,,,,,,,,,,,,,,,,,,,,nback56,001,2024-01-16_09h18.02.280,untitled,2023.2.3,59.983036800702514,2024-01-16 10h00.11.539102 -0500,
6,"[-0.3, 0]",None,,,,,0,9,9,9,,,,,2281.9010804000427,,,,,,,,,,,,,,,,,,,,,,,,,,,,,,,,,,,,,,,,,,,,,,2281.885759000026,2281.9010804000427,2281.9010804000427,2282.3845627000555,2282.4013068000204,2284.8843903000234,2284.88460390002,None,1,,,,,,,,,,,,,,,,,,,,,,,,,,nback56,001,2024-01-16_09h18.02.280,untitled,2023.2.3,59.983036800702514,2024-01-16 10h00.11.539102 -0500,
11,"[-0.64, -0.4]",None,,,,,0,10,10,10,,,,,2284.901195900049,,,,,,,,,,,,,,,,,,,,,,,,,,,,,,,,,,,,,,,,,,,,,,2284.885388399998,2284.901195900049,2284.901195900049,2285.3844401000533,2285.40124560002,2287.884422000032,2287.884612600028,None,1,,,,,,,,,,,,,,,,,,,,,,,,,,nback56,001,2024-01-16_09h18.02.280,untitled,2023.2.3,59.983036800702514,2024-01-16 10h00.11.539102 -0500,
11,"[-0.64, -0.4]",space,,,,,0,11,11,11,,,,,2287.9012218000134,,,,,,,,,,,,,,,,,,,,,,,,,,,,,,,,,,,,,,,,,,,,,,2287.885340800043,2287.9012218000134,2287.9012218000134,2288.3843579000095,2288.4010748,2290.8843878000043,2290.8845768000465,space,1,0.5264692000346258,None,,,,,,,,,,,,,,,,,,,,,,,,nback56,001,2024-01-16_09h18.02.280,untitled,2023.2.3,59.983036800702514,2024-01-16 10h00.11.539102 -0500,
4,"[-0.2, 0.1]",None,,,,,0,12,12,12,,,,,2290.9009822000517,,,,,,,,,,,,,,,,,,,,,,,,,,,,,,,,,,,,,,,,,,,,,,2290.8853876000503,2290.9009822000517,2290.9009822000517,2291.384427400015,2291.400942200038,2293.884361500037,2293.8845739000244,None,1,,,,,,,,,,,,,,,,,,,,,,,,,,nback56,001,2024-01-16_09h18.02.280,untitled,2023.2.3,59.983036800702514,2024-01-16 10h00.11.539102 -0500,
3,"[0, 0.2]",None,,,,,0,13,13,13,,,,,2293.900940500025,,,,,,,,,,,,,,,,,,,,,,,,,,,,,,,,,,,,,,,,,,,,,,2293.8853514000075,2293.900940500025,2293.900940500025,2294.3843069000286,2294.401051599998,2296.884175300016,2296.8843363000196,None,1,,,,,,,,,,,,,,,,,,,,,,,,,,nback56,001,2024-01-16_09h18.02.280,untitled,2023.2.3,59.983036800702514,2024-01-16 10h00.11.539102 -0500,
3,"[0, 0.2]",space,,,,,0,14,14,14,,,,,2296.9009541000123,,,,,,,,,,,,,,,,,,,,,,,,,,,,,,,,,,,,,,,,,,,,,,2296.8849473000155,2296.9009541000123,2296.9009541000123,2297.3841615000274,2297.4008955000318,2299.884327000007,2299.8845524000353,space,1,0.7051682000164874,None,,,,,,,,,,,,,,,,,,,,,,,,nback56,001,2024-01-16_09h18.02.280,untitled,2023.2.3,59.983036800702514,2024-01-16 10h00.11.539102 -0500,
8,"[-0.2, -0.1]",None,,,,,0,15,15,15,,,,,2299.9008107000263,,,,,,,,,,,,,,,,,,,,,,,,,,,,,,,,,,,,,,,,,,,,,,2299.885502500052,2299.9008107000263,2299.9008107000263,2300.3842123000068,2300.40104050003,2302.884289700014,2302.884502400004,None,1,,,,,,,,,,,,,,,,,,,,,,,,,,nback56,001,2024-01-16_09h18.02.280,untitled,2023.2.3,59.983036800702514,2024-01-16 10h00.11.539102 -0500,
1,"[-0.64, 0.4]",None,,,,,0,16,16,16,,,,,2302.9008462000056,,,,,,,,,,,,,,,,,,,,,,,,,,,,,,,,,,,,,,,,,,,,,,2302.885362500034,2302.9008462000056,2302.9008462000056,2303.384184100025,2303.4008048000396,2305.8840047999984,2305.8841909000184,None,1,,,,,,,,,,,,,,,,,,,,,,,,,,nback56,001,2024-01-16_09h18.02.280,untitled,2023.2.3,59.983036800702514,2024-01-16 10h00.11.539102 -0500,
2,"[0.64, 0.4]",None,,,,,0,17,17,17,,,,,2305.900875799998,,,,,,,,,,,,,,,,,,,,,,,,,,,,,,,,,,,,,,,,,,,,,,2305.8849416000303,2305.900875799998,2305.900875799998,2306.3841494000517,2306.400669399998,2308.8840086000273,2308.8841909000184,None,1,,,,,,,,,,,,,,,,,,,,,,,,,,nback56,001,2024-01-16_09h18.02.280,untitled,2023.2.3,59.983036800702514,2024-01-16 10h00.11.539102 -0500,
4,"[-0.2, 0.1]",None,,,,,0,18,18,18,,,,,2308.9006963000284,,,,,,,,,,,,,,,,,,,,,,,,,,,,,,,,,,,,,,,,,,,,,,2308.884927700041,2308.9006963000284,2308.9006963000284,2309.38399630005,2309.400665800029,2311.8841197,2311.884277400037,None,1,,,,,,,,,,,,,,,,,,,,,,,,,,nback56,001,2024-01-16_09h18.02.280,untitled,2023.2.3,59.983036800702514,2024-01-16 10h00.11.539102 -0500,
4,"[-0.2, 0.1]",space,,,,,0,19,19,19,,,,,2311.900655800011,,,,,,,,,,,,,,,,,,,,,,,,,,,,,,,,,,,,,,,,,,,,,,2311.885015100008,2311.900655800011,2311.900655800011,2312.383941200038,2312.4006631000084,2314.8840761000174,2314.884300100035,space,1,0.6989934999728575,None,,,,,,,,,,,,,,,,,,,,,,,,nback56,001,2024-01-16_09h18.02.280,untitled,2023.2.3,59.983036800702514,2024-01-16 10h00.11.539102 -0500,
8,"[-0.2, -0.1]",None,,,,,0,20,20,20,,,,,2314.9005056000315,,,,,,,,,,,,,,,,,,,,,,,,,,,,,,,,,,,,,,,,,,,,,,2314.885367700015,2314.9005056000315,2314.9005056000315,2315.383821800002,2315.4005558000063,2317.8839418000425,2317.8841197,None,1,,,,,,,,,,,,,,,,,,,,,,,,,,nback56,001,2024-01-16_09h18.02.280,untitled,2023.2.3,59.983036800702514,2024-01-16 10h00.11.539102 -0500,
5,"[0.2, 0.1]",None,,,,,0,21,21,21,,,,,2317.900615700055,,,,,,,,,,,,,,,,,,,,,,,,,,,,,,,,,,,,,,,,,,,,,,2317.8848723000265,2317.900615700055,2317.900615700055,2318.38398100005,2318.400621500041,2320.883928000054,2320.884136700013,None,1,,,,,,,,,,,,,,,,,,,,,,,,,,nback56,001,2024-01-16_09h18.02.280,untitled,2023.2.3,59.983036800702514,2024-01-16 10h00.11.539102 -0500,
5,"[0.2, 0.1]",space,,,,,0,22,22,22,,,,,2320.900642100023,,,,,,,,,,,,,,,,,,,,,,,,,,,,,,,,,,,,,,,,,,,,,,2320.8849630000186,2320.900642100023,2320.900642100023,2321.3839687000145,2321.400529900042,2323.8837604,2323.8839339000406,space,1,0.4275443999795243,None,,,,,,,,,,,,,,,,,,,,,,,,nback56,001,2024-01-16_09h18.02.280,untitled,2023.2.3,59.983036800702514,2024-01-16 10h00.11.539102 -0500,
1,"[-0.64, 0.4]",None,,,,,0,23,23,23,,,,,2323.9004311000463,,,,,,,,,,,,,,,,,,,,,,,,,,,,,,,,,,,,,,,,,,,,,,2323.884826400026,2323.9004311000463,2323.9004311000463,2324.3838150000083,2324.4004993000417,2326.8836907000514,2326.883868100005,None,1,,,,,,,,,,,,,,,,,,,,,,,,,,nback56,001,2024-01-16_09h18.02.280,untitled,2023.2.3,59.983036800702514,2024-01-16 10h00.11.539102 -0500,
3,"[0, 0.2]",None,,,,,0,24,24,24,,,,,2326.9005147000425,,,,,,,,,,,,,,,,,,,,,,,,,,,,,,,,,,,,,,,,,,,,,,2326.8846405000077,2326.9005147000425,2326.9005147000425,2327.3837163000135,2327.400398800033,2329.8836536000017,2329.883790300053,None,1,,,,,,,,,,,,,,,,,,,,,,,,,,nback56,001,2024-01-16_09h18.02.280,untitled,2023.2.3,59.983036800702514,2024-01-16 10h00.11.539102 -0500,
6,"[-0.3, 0]",None,,,,,0,25,25,25,,,,,2329.9002822000184,,,,,,,,,,,,,,,,,,,,,,,,,,,,,,,,,,,,,,,,,,,,,,2329.884157100052,2329.9002822000184,2329.9002822000184,2330.3836500000325,2330.4004169000546,2332.883861200011,2332.8840470000287,None,1,,,,,,,,,,,,,,,,,,,,,,,,,,nback56,001,2024-01-16_09h18.02.280,untitled,2023.2.3,59.983036800702514,2024-01-16 10h00.11.539102 -0500,
1,"[-0.64, 0.4]",None,,,,,0,26,26,26,,,,,2332.9002572000027,,,,,,,,,,,,,,,,,,,,,,,,,,,,,,,,,,,,,,,,,,,,,,2332.8847898000386,2332.9002572000027,2332.9002572000027,2333.3837019000202,2333.400418800011,2335.8836031000246,2335.8837842000066,None,1,,,,,,,,,,,,,,,,,,,,,,,,,,nback56,001,2024-01-16_09h18.02.280,untitled,2023.2.3,59.983036800702514,2024-01-16 10h00.11.539102 -0500,
1,"[-0.64, 0.4]",space,,,,,0,27,27,27,,,,,2335.900522800046,,,,,,,,,,,,,,,,,,,,,,,,,,,,,,,,,,,,,,,,,,,,,,2335.8844749000273,2335.900522800046,2335.900522800046,2336.3835178000154,2336.4002492,2338.8834846000536,2338.8836661000387,space,1,0.6037257999996655,None,,,,,,,,,,,,,,,,,,,,,,,,nback56,001,2024-01-16_09h18.02.280,untitled,2023.2.3,59.983036800702514,2024-01-16 10h00.11.539102 -0500,
1,"[-0.64, 0.4]",space,,,,,0,28,28,28,,,,,2338.900215300033,,,,,,,,,,,,,,,,,,,,,,,,,,,,,,,,,,,,,,,,,,,,,,2338.884527300019,2338.900215300033,2338.900215300033,2339.383475300041,2339.4002261999995,2341.883321200032,2341.8834605000447,space,1,1.8215329000377096,None,,,,,,,,,,,,,,,,,,,,,,,,nback56,001,2024-01-16_09h18.02.280,untitled,2023.2.3,59.983036800702514,2024-01-16 10h00.11.539102 -0500,
3,"[0, 0.2]",None,,,,,0,29,29,29,,,,,2341.900098700018,,,,,,,,,,,,,,,,,,,,,,,,,,,,,,,,,,,,,,,,,,,,,,2341.8841175000416,2341.900098700018,2341.900098700018,2342.38358220004,2342.400362400047,2344.8834975000354,2344.8837018000195,None,1,,,,,,,,,,,,,,,,,,,,,,,,,,nback56,001,2024-01-16_09h18.02.280,untitled,2023.2.3,59.983036800702514,2024-01-16 10h00.11.539102 -0500,
12,"[0.64, -0.4]",None,,,,,0,30,30,30,,,,,2344.90023020003,,,,,,,,,,,,,,,,,,,,,,,,,,,,,,,,,,,,,,,,,,,,,,2344.8844777000486,2344.90023020003,2344.90023020003,2345.383434200019,2345.4000633000396,2347.8834026000113,2347.8836115000304,None,1,,,,,,,,,,,,,,,,,,,,,,,,,,nback56,001,2024-01-16_09h18.02.280,untitled,2023.2.3,59.983036800702514,2024-01-16 10h00.11.539102 -0500,
12,"[0.64, -0.4]",space,,,,,0,31,31,31,,,,,2347.900103400054,,,,,,,,,,,,,,,,,,,,,,,,,,,,,,,,,,,,,,,,,,,,,,2347.884475400031,2347.900103400054,2347.900103400054,2348.38336180005,2348.400294100051,2350.8833384000463,2350.883534200024,space,1,0.531631100049708,None,,,,,,,,,,,,,,,,,,,,,,,,nback56,001,2024-01-16_09h18.02.280,untitled,2023.2.3,59.983036800702514,2024-01-16 10h00.11.539102 -0500,
2,"[0.64, 0.4]",None,,,,,0,32,32,32,,,,,2350.9000124000013,,,,,,,,,,,,,,,,,,,,,,,,,,,,,,,,,,,,,,,,,,,,,,2350.884278200043,2350.9000124000013,2350.9000124000013,2351.383346800052,2351.4006155000534,2353.8832482,2353.883410600014,None,1,,,,,,,,,,,,,,,,,,,,,,,,,,nback56,001,2024-01-16_09h18.02.280,untitled,2023.2.3,59.983036800702514,2024-01-16 10h00.11.539102 -0500,
1,"[-0.64, 0.4]",None,,,,,0,33,33,33,,,,,2353.8999047000543,,,,,,,,,,,,,,,,,,,,,,,,,,,,,,,,,,,,,,,,,,,,,,2353.884071300039,2353.8999047000543,2353.8999047000543,2354.383317700005,2354.4000260000466,2356.883253900043,2356.8834423000226,None,1,,,,,,,,,,,,,,,,,,,,,,,,,,nback56,001,2024-01-16_09h18.02.280,untitled,2023.2.3,59.983036800702514,2024-01-16 10h00.11.539102 -0500,
7,"[0.3, 0]",None,,,,,0,34,34,34,,,,,2356.899839700025,,,,,,,,,,,,,,,,,,,,,,,,,,,,,,,,,,,,,,,,,,,,,,2356.884265200002,2356.899839700025,2356.899839700025,2357.3832372000325,2357.3999845000217,2359.8832608000375,2359.883460300043,None,1,,,,,,,,,,,,,,,,,,,,,,,,,,nback56,001,2024-01-16_09h18.02.280,untitled,2023.2.3,59.983036800702514,2024-01-16 10h00.11.539102 -0500,
7,"[0.3, 0]",space,,,,,0,35,35,35,,,,,2359.899924300029,,,,,,,,,,,,,,,,,,,,,,,,,,,,,,,,,,,,,,,,,,,,,,2359.8842858000426,2359.899924300029,2359.899924300029,2360.38327770005,2360.3999841000186,2362.883021800022,2362.883198900032,space,1,0.45034829998621717,None,,,,,,,,,,,,,,,,,,,,,,,,nback56,001,2024-01-16_09h18.02.280,untitled,2023.2.3,59.983036800702514,2024-01-16 10h00.11.539102 -0500,
11,"[-0.64, -0.4]",None,,,,,0,36,36,36,,,,,2362.899871300033,,,,,,,,,,,,,,,,,,,,,,,,,,,,,,,,,,,,,,,,,,,,,,2362.884058399999,2362.899871300033,2362.899871300033,2363.3830499000032,2363.3998877000413,2365.8831846000394,2365.8833943000063,None,1,,,,,,,,,,,,,,,,,,,,,,,,,,nback56,001,2024-01-16_09h18.02.280,untitled,2023.2.3,59.983036800702514,2024-01-16 10h00.11.539102 -0500,
2,"[0.64, 0.4]",None,,,,,0,37,37,37,,,,,2365.8998309000162,,,,,,,,,,,,,,,,,,,,,,,,,,,,,,,,,,,,,,,,,,,,,,2365.8842191000003,2365.8998309000162,2365.8998309000162,2366.383203400008,2366.3997667000513,2368.8830628000433,2368.8832537000417,None,1,,,,,,,,,,,,,,,,,,,,,,,,,,nback56,001,2024-01-16_09h18.02.280,untitled,2023.2.3,59.983036800702514,2024-01-16 10h00.11.539102 -0500,
6,"[-0.3, 0]",None,,,,,0,38,38,38,,,,,2368.899663100019,,,,,,,,,,,,,,,,,,,,,,,,,,,,,,,,,,,,,,,,,,,,,,2368.884065500053,2368.899663100019,2368.899663100019,2369.38308530004,2369.399774600053,2371.883103500004,2371.8832939999993,None,1,,,,,,,,,,,,,,,,,,,,,,,,,,nback56,001,2024-01-16_09h18.02.280,untitled,2023.2.3,59.983036800702514,2024-01-16 10h00.11.539102 -0500,
10,"[0, -0.2]",None,,,,,0,39,39,39,,,,,2371.899690600054,,,,,,,,,,,,,,,,,,,,,,,,,,,,,,,,,,,,,,,,,,,,,,2371.884029000008,2371.899690600054,2371.899690600054,2372.3830340999993,2372.399846300017,2374.8830295000225,2374.8832392000477,None,1,,,,,,,,,,,,,,,,,,,,,,,,,,nback56,001,2024-01-16_09h18.02.280,untitled,2023.2.3,59.983036800702514,2024-01-16 10h00.11.539102 -0500,
,,,,,,,,,,,,,,,,,,,,,,,,,,,,,,,,,,,,,,,,,,,,,,,,,,,,,,,,,,,,,,,,,,,,,,,,2374.8838461000123,2374.8997391000157,2374.8997391000157,2390.6340938000358,space,15.719667299999855,None,,,,,,,,,,,,,,,,,nback56,001,2024-01-16_09h18.02.280,untitled,2023.2.3,59.983036800702514,2024-01-16 10h00.11.539102 -0500,
,"[0.2, 0.1]",None,,,,,,,,,0,0,0,0,2391.6499605000135,,,,,,,,,,,,,,,,,,,,,,,,2390.6341342000524,2390.6492925000493,2391.6499605000135,2391.6332181000034,,,,,,,,,,,,,,,,,,,,,,,,,,,,,,,,,,,,,2391.6479556999984,2391.6499605000135,2391.6499605000135,2392.149293900002,2392.149293900002,2394.649305800034,2394.649305800034,2394.6334473000024,None,1,,,,,,,nback56,001,2024-01-16_09h18.02.280,untitled,2023.2.3,59.983036800702514,2024-01-16 10h00.11.539102 -0500,
,"[0.64, 0.4]",None,,,,,,,,,0,1,1,1,2394.649305800034,,,,,,,,,,,,,,,,,,,,,,,,,,,,,,,,,,,,,,,,,,,,,,,,,,,,,,,,,,,,,,,,2394.634237600025,2394.649305800034,2394.649305800034,2395.149250700022,2395.149250700022,2397.6492929000524,2397.6492929000524,2397.633302400005,None,1,,,,,,,nback56,001,2024-01-16_09h18.02.280,untitled,2023.2.3,59.983036800702514,2024-01-16 10h00.11.539102 -0500,
,"[-0.3, 0]",None,,,,,,,,,0,2,2,2,2397.6492929000524,,,,,,,,,,,,,,,,,,,,,,,,,,,,,,,,,,,,,,,,,,,,,,,,,,,,,,,,,,,,,,,,2397.63394520001,2397.6492929000524,2397.6492929000524,2398.1493280000286,2398.1493280000286,2400.649109400052,2400.649109400052,2400.63314010005,None,1,,,,,,,nback56,001,2024-01-16_09h18.02.280,untitled,2023.2.3,59.983036800702514,2024-01-16 10h00.11.539102 -0500,
,"[0.2, -0.1]",None,,,,,,,,,0,3,3,3,2400.649109400052,,,,,,,,,,,,,,,,,,,,,,,,,,,,,,,,,,,,,,,,,,,,,,,,,,,,,,,,,,,,,,,,2400.633674200042,2400.649109400052,2400.649109400052,2401.1492315000505,2401.1492315000505,2403.649088200007,2403.649088200007,2403.633332600002,None,1,,,,,,,nback56,001,2024-01-16_09h18.02.280,untitled,2023.2.3,59.983036800702514,2024-01-16 10h00.11.539102 -0500,
,"[0, 0.2]",None,,,,,,,,,0,4,4,4,2403.649088200007,,,,,,,,,,,,,,,,,,,,,,,,,,,,,,,,,,,,,,,,,,,,,,,,,,,,,,,,,,,,,,,,2403.634024400031,2403.649088200007,2403.649088200007,2404.1490176000516,2404.1490176000516,2406.6490097000496,2406.6490097000496,2406.6331609000335,None,1,,,,,,,nback56,001,2024-01-16_09h18.02.280,untitled,2023.2.3,59.983036800702514,2024-01-16 10h00.11.539102 -0500,
,"[0.2, -0.1]",space,,,,,,,,,0,5,5,5,2406.6490097000496,,,,,,,,,,,,,,,,,,,,,,,,,,,,,,,,,,,,,,,,,,,,,,,,,,,,,,,,,,,,,,,,2406.633729699999,2406.6490097000496,2406.6490097000496,2407.149045600032,2407.149045600032,2409.649029400025,2409.649029400025,2409.6332616000436,space,1,0.49224639998283237,None,,,,,nback56,001,2024-01-16_09h18.02.280,untitled,2023.2.3,59.983036800702514,2024-01-16 10h00.11.539102 -0500,
,"[0, -0.2]",None,,,,,,,,,0,6,6,6,2409.649029400025,,,,,,,,,,,,,,,,,,,,,,,,,,,,,,,,,,,,,,,,,,,,,,,,,,,,,,,,,,,,,,,,2409.6343197000097,2409.649029400025,2409.649029400025,2410.1489879,2410.1489879,2412.649136000022,2412.649136000022,2412.633233200002,None,1,,,,,,,nback56,001,2024-01-16_09h18.02.280,untitled,2023.2.3,59.983036800702514,2024-01-16 10h00.11.539102 -0500,
,"[0.64, -0.4]",None,,,,,,,,,0,7,7,7,2412.649136000022,,,,,,,,,,,,,,,,,,,,,,,,,,,,,,,,,,,,,,,,,,,,,,,,,,,,,,,,,,,,,,,,2412.634017400036,2412.649136000022,2412.649136000022,2413.1489505000063,2413.1489505000063,2415.648965500004,2415.648965500004,2415.633254900051,None,1,,,,,,,nback56,001,2024-01-16_09h18.02.280,untitled,2023.2.3,59.983036800702514,2024-01-16 10h00.11.539102 -0500,
,"[0.3, 0]",None,,,,,,,,,0,8,8,8,2415.648965500004,,,,,,,,,,,,,,,,,,,,,,,,,,,,,,,,,,,,,,,,,,,,,,,,,,,,,,,,,,,,,,,,2415.6340695000254,2415.648965500004,2415.648965500004,2416.149035600014,2416.149035600014,2418.648822200019,2418.648822200019,2418.63336550002,None,1,,,,,,,nback56,001,2024-01-16_09h18.02.280,untitled,2023.2.3,59.983036800702514,2024-01-16 10h00.11.539102 -0500,
,"[0.64, -0.4]",space,,,,,,,,,0,9,9,9,2418.648822200019,,,,,,,,,,,,,,,,,,,,,,,,,,,,,,,,,,,,,,,,,,,,,,,,,,,,,,,,,,,,,,,,2418.634207200026,2418.648822200019,2418.648822200019,2419.148843300005,2419.148843300005,2421.6487166000297,2421.6487166000297,2421.632901700039,None,0,,,,,,,nback56,001,2024-01-16_09h18.02.280,untitled,2023.2.3,59.983036800702514,2024-01-16 10h00.11.539102 -0500,
,"[-0.64, 0.4]",None,,,,,,,,,0,10,10,10,2421.6487166000297,,,,,,,,,,,,,,,,,,,,,,,,,,,,,,,,,,,,,,,,,,,,,,,,,,,,,,,,,,,,,,,,2421.633594600018,2421.6487166000297,2421.6487166000297,2422.148858700006,2422.148858700006,2424.6487872000434,2424.6487872000434,2424.633170300047,None,1,,,,,,,nback56,001,2024-01-16_09h18.02.280,untitled,2023.2.3,59.983036800702514,2024-01-16 10h00.11.539102 -0500,
,"[0.2, 0.1]",None,,,,,,,,,0,11,11,11,2424.6487872000434,,,,,,,,,,,,,,,,,,,,,,,,,,,,,,,,,,,,,,,,,,,,,,,,,,,,,,,,,,,,,,,,2424.6339696000214,2424.6487872000434,2424.6487872000434,2425.14859300002,2425.14859300002,2427.6486247000284,2427.6486247000284,2427.6330900000175,None,1,,,,,,,nback56,001,2024-01-16_09h18.02.280,untitled,2023.2.3,59.983036800702514,2024-01-16 10h00.11.539102 -0500,
,"[0.3, 0]",None,,,,,,,,,0,12,12,12,2427.6486247000284,,,,,,,,,,,,,,,,,,,,,,,,,,,,,,,,,,,,,,,,,,,,,,,,,,,,,,,,,,,,,,,,2427.6338511000504,2427.6486247000284,2427.6486247000284,2428.148778600036,2428.148778600036,2430.6486961000483,2430.6486961000483,2430.6331311000395,None,1,,,,,,,nback56,001,2024-01-16_09h18.02.280,untitled,2023.2.3,59.983036800702514,2024-01-16 10h00.11.539102 -0500,
,"[0.2, 0.1]",space,,,,,,,,,0,13,13,13,2430.6486961000483,,,,,,,,,,,,,,,,,,,,,,,,,,,,,,,,,,,,,,,,,,,,,,,,,,,,,,,,,,,,,,,,2430.6339663000545,2430.6486961000483,2430.6486961000483,2431.1485143000027,2431.1485143000027,2433.648580200039,2433.648580200039,2433.632525700028,space,1,2.0390855000005104,None,,,,,nback56,001,2024-01-16_09h18.02.280,untitled,2023.2.3,59.983036800702514,2024-01-16 10h00.11.539102 -0500,
,"[-0.3, 0]",None,,,,,,,,,0,14,14,14,2433.648580200039,,,,,,,,,,,,,,,,,,,,,,,,,,,,,,,,,,,,,,,,,,,,,,,,,,,,,,,,,,,,,,,,2433.633321100031,2433.648580200039,2433.648580200039,2434.1486133,2434.1486133,2436.6486619000207,2436.6486619000207,2436.6326785000274,None,1,,,,,,,nback56,001,2024-01-16_09h18.02.280,untitled,2023.2.3,59.983036800702514,2024-01-16 10h00.11.539102 -0500,
,"[0, 0.2]",None,,,,,,,,,0,15,15,15,2436.6486619000207,,,,,,,,,,,,,,,,,,,,,,,,,,,,,,,,,,,,,,,,,,,,,,,,,,,,,,,,,,,,,,,,2436.633327700023,2436.6486619000207,2436.6486619000207,2437.148639900028,2437.148639900028,2439.6486387000186,2439.6486387000186,2439.632852800016,None,1,,,,,,,nback56,001,2024-01-16_09h18.02.280,untitled,2023.2.3,59.983036800702514,2024-01-16 10h00.11.539102 -0500,
,"[-0.3, 0]",space,,,,,,,,,0,16,16,16,2439.6486387000186,,,,,,,,,,,,,,,,,,,,,,,,,,,,,,,,,,,,,,,,,,,,,,,,,,,,,,,,,,,,,,,,2439.633572700026,2439.6486387000186,2439.6486387000186,2440.1484817000455,2440.1484817000455,2442.6485410000314,2442.6485410000314,2442.6329930000356,space,1,0.6779538000118919,None,,,,,nback56,001,2024-01-16_09h18.02.280,untitled,2023.2.3,59.983036800702514,2024-01-16 10h00.11.539102 -0500,
,"[-0.64, -0.4]",None,,,,,,,,,0,17,17,17,2442.6485410000314,,,,,,,,,,,,,,,,,,,,,,,,,,,,,,,,,,,,,,,,,,,,,,,,,,,,,,,,,,,,,,,,2442.6340901000076,2442.6485410000314,2442.6485410000314,2443.1484502000385,2443.1484502000385,2445.6483400000143,2445.6483400000143,2445.632408800011,None,1,,,,,,,nback56,001,2024-01-16_09h18.02.280,untitled,2023.2.3,59.983036800702514,2024-01-16 10h00.11.539102 -0500,
,"[-0.2, -0.1]",None,,,,,,,,,0,18,18,18,2445.6483400000143,,,,,,,,,,,,,,,,,,,,,,,,,,,,,,,,,,,,,,,,,,,,,,,,,,,,,,,,,,,,,,,,2445.6330597000197,2445.6483400000143,2445.6483400000143,2446.1485032000346,2446.1485032000346,2448.648378300015,2448.648378300015,2448.6321579000214,None,1,,,,,,,nback56,001,2024-01-16_09h18.02.280,untitled,2023.2.3,59.983036800702514,2024-01-16 10h00.11.539102 -0500,
,"[0.2, -0.1]",None,,,,,,,,,0,19,19,19,2448.648378300015,,,,,,,,,,,,,,,,,,,,,,,,,,,,,,,,,,,,,,,,,,,,,,,,,,,,,,,,,,,,,,,,2448.6327349000494,2448.648378300015,2448.648378300015,2449.148231600004,2449.148231600004,2451.6483523000497,2451.6483523000497,2451.6324791000225,None,1,,,,,,,nback56,001,2024-01-16_09h18.02.280,untitled,2023.2.3,59.983036800702514,2024-01-16 10h00.11.539102 -0500,
,"[0.2, -0.1]",None,,,,,,,,,0,20,20,20,2451.6483523000497,,,,,,,,,,,,,,,,,,,,,,,,,,,,,,,,,,,,,,,,,,,,,,,,,,,,,,,,,,,,,,,,2451.633142100007,2451.6483523000497,2451.6483523000497,2452.1483819000423,2452.1483819000423,2454.6481584000285,2454.6481584000285,2454.6323655000306,None,1,,,,,,,nback56,001,2024-01-16_09h18.02.280,untitled,2023.2.3,59.983036800702514,2024-01-16 10h00.11.539102 -0500,
,"[-0.64, 0.4]",None,,,,,,,,,0,21,21,21,2454.6481584000285,,,,,,,,,,,,,,,,,,,,,,,,,,,,,,,,,,,,,,,,,,,,,,,,,,,,,,,,,,,,,,,,2454.6331103999983,2454.6481584000285,2454.6481584000285,2455.1483088000095,2455.1483088000095,2457.6483191000298,2457.6483191000298,2457.6321769000497,None,1,,,,,,,nback56,001,2024-01-16_09h18.02.280,untitled,2023.2.3,59.983036800702514,2024-01-16 10h00.11.539102 -0500,
,"[0, 0.2]",None,,,,,,,,,0,22,22,22,2457.6483191000298,,,,,,,,,,,,,,,,,,,,,,,,,,,,,,,,,,,,,,,,,,,,,,,,,,,,,,,,,,,,,,,,2457.632849800051,2457.6483191000298,2457.6483191000298,2458.148207899998,2458.148207899998,2460.648202600016,2460.648202600016,2460.6321835000417,None,1,,,,,,,nback56,001,2024-01-16_09h18.02.280,untitled,2023.2.3,59.983036800702514,2024-01-16 10h00.11.539102 -0500,
,"[0.64, -0.4]",None,,,,,,,,,0,23,23,23,2460.648202600016,,,,,,,,,,,,,,,,,,,,,,,,,,,,,,,,,,,,,,,,,,,,,,,,,,,,,,,,,,,,,,,,2460.632960100018,2460.648202600016,2460.648202600016,2461.1481990000466,2461.1481990000466,2463.648204100027,2463.648204100027,2463.6324414000264,None,1,,,,,,,nback56,001,2024-01-16_09h18.02.280,untitled,2023.2.3,59.983036800702514,2024-01-16 10h00.11.539102 -0500,
,"[0, 0.2]",space,,,,,,,,,0,24,24,24,2463.648204100027,,,,,,,,,,,,,,,,,,,,,,,,,,,,,,,,,,,,,,,,,,,,,,,,,,,,,,,,,,,,,,,,2463.6332554000546,2463.648204100027,2463.648204100027,2464.1482711000135,2464.1482711000135,2466.648070000054,2466.648070000054,2466.632379000017,None,0,,,,,,,nback56,001,2024-01-16_09h18.02.280,untitled,2023.2.3,59.983036800702514,2024-01-16 10h00.11.539102 -0500,
,"[-0.2, 0.1]",None,,,,,,,,,0,25,25,25,2466.648070000054,,,,,,,,,,,,,,,,,,,,,,,,,,,,,,,,,,,,,,,,,,,,,,,,,,,,,,,,,,,,,,,,2466.633116300043,2466.648070000054,2466.648070000054,2467.148118000012,2467.148118000012,2469.647980800015,2469.647980800015,2469.632584900013,None,1,,,,,,,nback56,001,2024-01-16_09h18.02.280,untitled,2023.2.3,59.983036800702514,2024-01-16 10h00.11.539102 -0500,
,"[0.3, 0]",None,,,,,,,,,0,26,26,26,2469.647980800015,,,,,,,,,,,,,,,,,,,,,,,,,,,,,,,,,,,,,,,,,,,,,,,,,,,,,,,,,,,,,,,,2469.6333813000238,2469.647980800015,2469.647980800015,2470.1480387000483,2470.1480387000483,2472.647979100002,2472.647979100002,2472.6323822000413,None,1,,,,,,,nback56,001,2024-01-16_09h18.02.280,untitled,2023.2.3,59.983036800702514,2024-01-16 10h00.11.539102 -0500,
,"[-0.2, 0.1]",space,,,,,,,,,0,27,27,27,2472.647979100002,,,,,,,,,,,,,,,,,,,,,,,,,,,,,,,,,,,,,,,,,,,,,,,,,,,,,,,,,,,,,,,,2472.6332289000275,2472.647979100002,2472.647979100002,2473.148049200012,2473.148049200012,2475.6477132000146,2475.6477132000146,2475.6318721999996,space,1,0.41674669994972646,None,,,,,nback56,001,2024-01-16_09h18.02.280,untitled,2023.2.3,59.983036800702514,2024-01-16 10h00.11.539102 -0500,
,"[-0.2, 0.1]",None,,,,,,,,,0,28,28,28,2475.6477132000146,,,,,,,,,,,,,,,,,,,,,,,,,,,,,,,,,,,,,,,,,,,,,,,,,,,,,,,,,,,,,,,,2475.6326250000275,2475.6477132000146,2475.6477132000146,2476.147998200031,2476.147998200031,2478.6479192000115,2478.6479192000115,2478.6323295000475,None,1,,,,,,,nback56,001,2024-01-16_09h18.02.280,untitled,2023.2.3,59.983036800702514,2024-01-16 10h00.11.539102 -0500,
,"[0.2, 0.1]",None,,,,,,,,,0,29,29,29,2478.6479192000115,,,,,,,,,,,,,,,,,,,,,,,,,,,,,,,,,,,,,,,,,,,,,,,,,,,,,,,,,,,,,,,,2478.6331347000087,2478.6479192000115,2478.6479192000115,2479.1478209000197,2479.1478209000197,2481.6477385000326,2481.6477385000326,2481.6322121000267,None,1,,,,,,,nback56,001,2024-01-16_09h18.02.280,untitled,2023.2.3,59.983036800702514,2024-01-16 10h00.11.539102 -0500,
,"[-0.64, -0.4]",None,,,,,,,,,0,30,30,30,2481.6477385000326,,,,,,,,,,,,,,,,,,,,,,,,,,,,,,,,,,,,,,,,,,,,,,,,,,,,,,,,,,,,,,,,2481.6330655000056,2481.6477385000326,2481.6477385000326,2482.147933500004,2482.147933500004,2484.6479174999986,2484.6479174999986,2484.63215140003,None,1,,,,,,,nback56,001,2024-01-16_09h18.02.280,untitled,2023.2.3,59.983036800702514,2024-01-16 10h00.11.539102 -0500,
,"[0, -0.2]",None,,,,,,,,,0,31,31,31,2484.6479174999986,,,,,,,,,,,,,,,,,,,,,,,,,,,,,,,,,,,,,,,,,,,,,,,,,,,,,,,,,,,,,,,,2484.6330734000076,2484.6479174999986,2484.6479174999986,2485.1477766000316,2485.1477766000316,2487.6475988000166,2487.6475988000166,2487.6316476000356,None,1,,,,,,,nback56,001,2024-01-16_09h18.02.280,untitled,2023.2.3,59.983036800702514,2024-01-16 10h00.11.539102 -0500,
,"[-0.64, -0.4]",space,,,,,,,,,0,32,32,32,2487.6475988000166,,,,,,,,,,,,,,,,,,,,,,,,,,,,,,,,,,,,,,,,,,,,,,,,,,,,,,,,,,,,,,,,2487.6322711000103,2487.6475988000166,2487.6475988000166,2488.1475173000363,2488.1475173000363,2490.6476105000474,2490.6476105000474,2490.631681900006,None,0,,,,,,,nback56,001,2024-01-16_09h18.02.280,untitled,2023.2.3,59.983036800702514,2024-01-16 10h00.11.539102 -0500,
,"[0.64, 0.4]",None,,,,,,,,,0,33,33,33,2490.6476105000474,,,,,,,,,,,,,,,,,,,,,,,,,,,,,,,,,,,,,,,,,,,,,,,,,,,,,,,,,,,,,,,,2490.6323082000017,2490.6476105000474,2490.6476105000474,2491.1474128000555,2491.1474128000555,2493.6476719000493,2493.6476719000493,2493.631649200048,None,1,,,,,,,nback56,001,2024-01-16_09h18.02.280,untitled,2023.2.3,59.983036800702514,2024-01-16 10h00.11.539102 -0500,
,"[-0.3, 0]",None,,,,,,,,,0,34,34,34,2493.6476719000493,,,,,,,,,,,,,,,,,,,,,,,,,,,,,,,,,,,,,,,,,,,,,,,,,,,,,,,,,,,,,,,,2493.632347000006,2493.6476719000493,2493.6476719000493,2494.1477572000003,2494.1477572000003,2496.6474980000057,2496.6474980000057,2496.6317434000084,None,1,,,,,,,nback56,001,2024-01-16_09h18.02.280,untitled,2023.2.3,59.983036800702514,2024-01-16 10h00.11.539102 -0500,
,"[0.3, 0]",None,,,,,,,,,0,35,35,35,2496.6474980000057,,,,,,,,,,,,,,,,,,,,,,,,,,,,,,,,,,,,,,,,,,,,,,,,,,,,,,,,,,,,,,,,2496.632422399998,2496.6474980000057,2496.6474980000057,2497.1476752000162,2497.1476752000162,2499.6474351000506,2499.6474351000506,2499.6315796000417,None,1,,,,,,,nback56,001,2024-01-16_09h18.02.280,untitled,2023.2.3,59.983036800702514,2024-01-16 10h00.11.539102 -0500,
,"[-0.3, 0]",space,,,,,,,,,0,36,36,36,2499.6474351000506,,,,,,,,,,,,,,,,,,,,,,,,,,,,,,,,,,,,,,,,,,,,,,,,,,,,,,,,,,,,,,,,2499.632200400054,2499.6474351000506,2499.6474351000506,2500.147450800054,2500.147450800054,2502.6473344000406,2502.6473344000406,2502.631762300036,space,1,0.5424545999849215,None,,,,,nback56,001,2024-01-16_09h18.02.280,untitled,2023.2.3,59.983036800702514,2024-01-16 10h00.11.539102 -0500,
,"[0, -0.2]",None,,,,,,,,,0,37,37,37,2502.6473344000406,,,,,,,,,,,,,,,,,,,,,,,,,,,,,,,,,,,,,,,,,,,,,,,,,,,,,,,,,,,,,,,,2502.6326889000484,2502.6473344000406,2502.6473344000406,2503.1473631000263,2503.1473631000263,2505.6474761000136,2505.6474761000136,2505.6318171000457,None,1,,,,,,,nback56,001,2024-01-16_09h18.02.280,untitled,2023.2.3,59.983036800702514,2024-01-16 10h00.11.539102 -0500,
,"[0.3, 0]",None,,,,,,,,,0,38,38,38,2505.6474761000136,,,,,,,,,,,,,,,,,,,,,,,,,,,,,,,,,,,,,,,,,,,,,,,,,,,,,,,,,,,,,,,,2505.6325496000354,2505.6474761000136,2505.6474761000136,2506.1474334000377,2506.1474334000377,2508.647341200034,2508.647341200034,2508.632370600011,None,1,,,,,,,nback56,001,2024-01-16_09h18.02.280,untitled,2023.2.3,59.983036800702514,2024-01-16 10h00.11.539102 -0500,
,"[0.2, 0.1]",None,,,,,,,,,0,39,39,39,2508.647341200034,,,,,,,,,,,,,,,,,,,,,,,,,,,,,,,,,,,,,,,,,,,,,,,,,,,,,,,,,,,,,,,,2508.632902500045,2508.647341200034,2508.647341200034,2509.147469400021,2509.147469400021,2511.6472644000314,2511.6472644000314,2511.6313222000026,None,1,,,,,,,nback56,001,2024-01-16_09h18.02.280,untitled,2023.2.3,59.983036800702514,2024-01-16 10h00.11.539102 -0500,
,,,,,,,,,,,,,,,,,,,,,,,,,,,,,,,,,,,,,,,,,,,,,,,,,,,,,,,,,,,,,,,,,,,,,,,,,,,,,,,,,,,,,,,,,,,2511.6317375000217,2511.6472644000314,2514.6472241000156,2514.631358600047,,,,,,,,
