square,location,corrAns,trials_0.thisRepN,trials_0.thisTrialN,trials_0.thisN,trials_0.thisIndex,trials_1.thisRepN,trials_1.thisTrialN,trials_1.thisN,trials_1.thisIndex,trials_2.thisRepN,trials_2.thisTrialN,trials_2.thisN,trials_2.thisIndex,thisRow.t,notes,Instructions.started,instructions.started,key_resp.started,inst_sq11.started,Instructions.stopped,key_resp.keys,key_resp.rt,key_resp.duration,All.started,sq_1.started,sq_2.started,sq_3.started,sq_4.started,sq_5.started,sq_6.started,sq_7.started,sq_8.started,sq_9.started,sq_10.started,sq_11.started,sq_12.started,All.stopped,Fixation.started,fixation_3.started,fixation_3.stopped,Fixation.stopped,N_back_0_Trial.started,target_square_0.started,response_0.started,fixation_0.started,target_square_0.stopped,fixation_0.stopped,N_back_0_Trial.stopped,response_0.keys,response_0.corr,response_0.rt,response_0.duration,Instructions_1.started,instructions_1.started,key_resp_1.started,Instructions_1.stopped,key_resp_1.keys,key_resp_1.rt,key_resp_1.duration,N_back_1_Trial.started,target_square_1.started,response_1.started,target_square_1.stopped,fixation_1.started,fixation_1.stopped,response_1.stopped,N_back_1_Trial.stopped,response_1.keys,response_1.corr,response_1.rt,response_1.duration,Instructions_2.started,instructions_2.started,key_resp_2.started,Instructions_2.stopped,key_resp_2.keys,key_resp_2.rt,key_resp_2.duration,N_back_2_trials.started,target_square_2.started,response_2.started,target_square_2.stopped,fixation_2.started,fixation_2.stopped,response_2.stopped,N_back_2_trials.stopped,response_2.keys,response_2.corr,response_2.rt,response_2.duration,End.started,thank_you.started,thank_you.stopped,End.stopped,participant,session,date,expName,psychopyVersion,frameRate,expStart,
,,,,,,,,,,,,,,,,,0.0015452000079676509,0.004182100004982203,0.004182100004982203,0.004182100004982203,1447.8528017000062,space,1447.8344094000058,None,,,,,,,,,,,,,,,,,,,,,,,,,,,,,,,,,,,,,,,,,,,,,,,,,,,,,,,,,,,,,,,,,,,,,,,,nback38,001,2023-12-19_11h22.03.780,untitled,2023.2.3,60.01327493968806,2023-12-19 11h43.28.625539 -0500,
6,"[-0.3, 0]",None,0,0,0,0,,,,,,,,,1449.8702907999977,,,,,,,,,,1447.8528418000205,1447.867950999993,1447.867950999993,1447.867950999993,1447.867950999993,1447.867950999993,1447.867950999993,1447.867950999993,1447.867950999993,1447.867950999993,1447.867950999993,1447.867950999993,1447.867950999993,1448.8516128999763,1448.8516269999673,1448.868040499976,1449.8702907999977,1449.8525431000162,1449.8677612000029,1449.8702907999977,1449.8702907999977,1450.3514269000152,1450.3847435999778,1452.8512594000204,1452.868133299984,None,1,,,,,,,,,,,,,,,,,,,,,,,,,,,,,,,,,,,,,,,,,,,,,nback38,001,2023-12-19_11h22.03.780,untitled,2023.2.3,60.01327493968806,2023-12-19 11h43.28.625539 -0500,
10,"[0, -0.2]",None,0,1,1,1,,,,,,,,,1452.8846918999916,,,,,,,,,,,,,,,,,,,,,,,,,,,,1452.8691169999656,1452.8846918999916,1452.8846918999916,1453.3513649000088,1453.3848698000074,1455.8512217999669,1455.8682539999718,None,1,,,,,,,,,,,,,,,,,,,,,,,,,,,,,,,,,,,,,,,,,,,,,nback38,001,2023-12-19_11h22.03.780,untitled,2023.2.3,60.01327493968806,2023-12-19 11h43.28.625539 -0500,
11,"[-0.64, -0.4]",space,0,2,2,2,,,,,,,,,1455.8846865000087,,,,,,,,,,,,,,,,,,,,,,,,,,,,1455.8689718999667,1455.8846865000087,1455.8846865000087,1456.3513143999735,1456.3846828999813,1458.8513161999872,1458.8683039000025,space,1,0.6771413999958895,None,,,,,,,,,,,,,,,,,,,,,,,,,,,,,,,,,,,,,,,,,,,nback38,001,2023-12-19_11h22.03.780,untitled,2023.2.3,60.01327493968806,2023-12-19 11h43.28.625539 -0500,
12,"[0.64, -0.4]",None,0,3,3,3,,,,,,,,,1458.884671000007,,,,,,,,,,,,,,,,,,,,,,,,,,,,1458.869441799994,1458.884671000007,1458.884671000007,1459.3509951999877,1459.3843864999944,1461.851178699988,1461.8680211000028,None,1,,,,,,,,,,,,,,,,,,,,,,,,,,,,,,,,,,,,,,,,,,,,,nback38,001,2023-12-19_11h22.03.780,untitled,2023.2.3,60.01327493968806,2023-12-19 11h43.28.625539 -0500,
1,"[-0.64, 0.4]",None,0,4,4,4,,,,,,,,,1461.8843769999803,,,,,,,,,,,,,,,,,,,,,,,,,,,,1461.8687460999936,1461.8843769999803,1461.8843769999803,1462.3512409999967,1462.3844525999739,1464.8511311999755,1464.867966699996,None,1,,,,,,,,,,,,,,,,,,,,,,,,,,,,,,,,,,,,,,,,,,,,,nback38,001,2023-12-19_11h22.03.780,untitled,2023.2.3,60.01327493968806,2023-12-19 11h43.28.625539 -0500,
1,"[-0.64, 0.4]",None,0,5,5,5,,,,,,,,,1464.884603100014,,,,,,,,,,,,,,,,,,,,,,,,,,,,1464.868783199985,1464.884603100014,1464.884603100014,1465.3510935999802,1465.3845634000027,1467.8510405999841,1467.8680125999963,None,1,,,,,,,,,,,,,,,,,,,,,,,,,,,,,,,,,,,,,,,,,,,,,nback38,001,2023-12-19_11h22.03.780,untitled,2023.2.3,60.01327493968806,2023-12-19 11h43.28.625539 -0500,
4,"[-0.2, 0.1]",None,0,6,6,6,,,,,,,,,1467.8845427000197,,,,,,,,,,,,,,,,,,,,,,,,,,,,1467.8688377999933,1467.8845427000197,1467.8845427000197,1468.3511028999928,1468.384509399999,1470.8510792999878,1470.868057499989,None,1,,,,,,,,,,,,,,,,,,,,,,,,,,,,,,,,,,,,,,,,,,,,,nback38,001,2023-12-19_11h22.03.780,untitled,2023.2.3,60.01327493968806,2023-12-19 11h43.28.625539 -0500,
5,"[0.2, 0.1]",None,0,7,7,7,,,,,,,,,1470.8845835999819,,,,,,,,,,,,,,,,,,,,,,,,,,,,1470.8689716999652,1470.8845835999819,1470.8845835999819,1471.3509540999657,1471.3844080999843,1473.8509305000189,1473.8678367999964,None,1,,,,,,,,,,,,,,,,,,,,,,,,,,,,,,,,,,,,,,,,,,,,,nback38,001,2023-12-19_11h22.03.780,untitled,2023.2.3,60.01327493968806,2023-12-19 11h43.28.625539 -0500,
11,"[-0.64, -0.4]",space,0,8,8,8,,,,,,,,,1473.884355599992,,,,,,,,,,,,,,,,,,,,,,,,,,,,1473.8685633999994,1473.884355599992,1473.884355599992,1474.3510080999695,1474.384236300015,1476.8510156999691,1476.867778600019,space,1,0.32934340002248064,None,,,,,,,,,,,,,,,,,,,,,,,,,,,,,,,,,,,,,,,,,,,nback38,001,2023-12-19_11h22.03.780,untitled,2023.2.3,60.01327493968806,2023-12-19 11h43.28.625539 -0500,
9,"[0.2, -0.1]",None,0,9,9,9,,,,,,,,,1476.8844609999796,,,,,,,,,,,,,,,,,,,,,,,,,,,,1476.8687640000135,1476.8844609999796,1476.8844609999796,1477.35097650002,1477.3843371999683,1479.8507918000105,1479.8678511999897,None,1,,,,,,,,,,,,,,,,,,,,,,,,,,,,,,,,,,,,,,,,,,,,,nback38,001,2023-12-19_11h22.03.780,untitled,2023.2.3,60.01327493968806,2023-12-19 11h43.28.625539 -0500,
8,"[-0.2, -0.1]",None,0,10,10,10,,,,,,,,,1479.884373400011,,,,,,,,,,,,,,,,,,,,,,,,,,,,1479.868621599977,1479.884373400011,1479.884373400011,1480.3507718999754,1480.3840553999762,1482.8508103999775,1482.867655000009,space,0,0.67921660002321,None,,,,,,,,,,,,,,,,,,,,,,,,,,,,,,,,,,,,,,,,,,,nback38,001,2023-12-19_11h22.03.780,untitled,2023.2.3,60.01327493968806,2023-12-19 11h43.28.625539 -0500,
9,"[0.2, -0.1]",None,0,11,11,11,,,,,,,,,1482.884312500013,,,,,,,,,,,,,,,,,,,,,,,,,,,,1482.8685283999657,1482.884312500013,1482.884312500013,1483.35094699997,1483.384248199989,1485.8507443999988,1485.8675027000136,None,1,,,,,,,,,,,,,,,,,,,,,,,,,,,,,,,,,,,,,,,,,,,,,nback38,001,2023-12-19_11h22.03.780,untitled,2023.2.3,60.01327493968806,2023-12-19 11h43.28.625539 -0500,
6,"[-0.3, 0]",None,0,12,12,12,,,,,,,,,1485.8839759000111,,,,,,,,,,,,,,,,,,,,,,,,,,,,1485.86807029997,1485.8839759000111,1485.8839759000111,1486.3507697000168,1486.3841356000048,1488.8508093999699,1488.8676141999895,None,1,,,,,,,,,,,,,,,,,,,,,,,,,,,,,,,,,,,,,,,,,,,,,nback38,001,2023-12-19_11h22.03.780,untitled,2023.2.3,60.01327493968806,2023-12-19 11h43.28.625539 -0500,
9,"[0.2, -0.1]",None,0,13,13,13,,,,,,,,,1488.883985399967,,,,,,,,,,,,,,,,,,,,,,,,,,,,1488.8683980000205,1488.883985399967,1488.883985399967,1489.3507585999905,1489.3840158999665,1491.850661000004,1491.8675209999783,None,1,,,,,,,,,,,,,,,,,,,,,,,,,,,,,,,,,,,,,,,,,,,,,nback38,001,2023-12-19_11h22.03.780,untitled,2023.2.3,60.01327493968806,2023-12-19 11h43.28.625539 -0500,
7,"[0.3, 0]",None,0,14,14,14,,,,,,,,,1491.8840559999808,,,,,,,,,,,,,,,,,,,,,,,,,,,,1491.8682596000144,1491.8840559999808,1491.8840559999808,1492.36715559999,1492.3840061000083,1494.867305199965,1494.8674930999987,None,1,,,,,,,,,,,,,,,,,,,,,,,,,,,,,,,,,,,,,,,,,,,,,nback38,001,2023-12-19_11h22.03.780,untitled,2023.2.3,60.01327493968806,2023-12-19 11h43.28.625539 -0500,
2,"[0.64, 0.4]",None,0,15,15,15,,,,,,,,,1494.8841705999803,,,,,,,,,,,,,,,,,,,,,,,,,,,,1494.8682352000033,1494.8841705999803,1494.8841705999803,1495.3507113999804,1495.3839758000104,1497.8506043999805,1497.867399699986,None,1,,,,,,,,,,,,,,,,,,,,,,,,,,,,,,,,,,,,,,,,,,,,,nback38,001,2023-12-19_11h22.03.780,untitled,2023.2.3,60.01327493968806,2023-12-19 11h43.28.625539 -0500,
2,"[0.64, 0.4]",None,0,16,16,16,,,,,,,,,1497.883983000007,,,,,,,,,,,,,,,,,,,,,,,,,,,,1497.8681905000121,1497.883983000007,1497.883983000007,1498.3671616999782,1498.3837771000108,1500.8672960000113,1500.8674960999633,None,1,,,,,,,,,,,,,,,,,,,,,,,,,,,,,,,,,,,,,,,,,,,,,nback38,001,2023-12-19_11h22.03.780,untitled,2023.2.3,60.01327493968806,2023-12-19 11h43.28.625539 -0500,
11,"[-0.64, -0.4]",space,0,17,17,17,,,,,,,,,1500.8838885999867,,,,,,,,,,,,,,,,,,,,,,,,,,,,1500.8682552999817,1500.8838885999867,1500.8838885999867,1501.3670569999958,1501.3838420999818,1503.867027100001,1503.8671788999927,space,1,0.47309129999484867,None,,,,,,,,,,,,,,,,,,,,,,,,,,,,,,,,,,,,,,,,,,,nback38,001,2023-12-19_11h22.03.780,untitled,2023.2.3,60.01327493968806,2023-12-19 11h43.28.625539 -0500,
11,"[-0.64, -0.4]",space,0,18,18,18,,,,,,,,,1503.883717699966,,,,,,,,,,,,,,,,,,,,,,,,,,,,1503.867766899988,1503.883717699966,1503.883717699966,1504.367243500019,1504.3838102999725,1506.8669489999884,1506.8671105999965,space,1,0.5585515000275336,None,,,,,,,,,,,,,,,,,,,,,,,,,,,,,,,,,,,,,,,,,,,nback38,001,2023-12-19_11h22.03.780,untitled,2023.2.3,60.01327493968806,2023-12-19 11h43.28.625539 -0500,
7,"[0.3, 0]",None,0,19,19,19,,,,,,,,,1506.8837171000196,,,,,,,,,,,,,,,,,,,,,,,,,,,,1506.8680788999773,1506.8837171000196,1506.8837171000196,1507.366983200016,1507.383703199972,1509.8670089999796,1509.867189200013,None,1,,,,,,,,,,,,,,,,,,,,,,,,,,,,,,,,,,,,,,,,,,,,,nback38,001,2023-12-19_11h22.03.780,untitled,2023.2.3,60.01327493968806,2023-12-19 11h43.28.625539 -0500,
3,"[0, 0.2]",None,0,20,20,20,,,,,,,,,1509.8836852000095,,,,,,,,,,,,,,,,,,,,,,,,,,,,1509.8679454000085,1509.8836852000095,1509.8836852000095,1510.3668650999898,1510.3835880999686,1512.8668250999763,1512.8669914999628,None,1,,,,,,,,,,,,,,,,,,,,,,,,,,,,,,,,,,,,,,,,,,,,,nback38,001,2023-12-19_11h22.03.780,untitled,2023.2.3,60.01327493968806,2023-12-19 11h43.28.625539 -0500,
10,"[0, -0.2]",None,0,21,21,21,,,,,,,,,1512.8836470000097,,,,,,,,,,,,,,,,,,,,,,,,,,,,1512.8676447999896,1512.8836470000097,1512.8836470000097,1513.366808599967,1513.3836798999691,1515.8669965000008,1515.8671834999695,None,1,,,,,,,,,,,,,,,,,,,,,,,,,,,,,,,,,,,,,,,,,,,,,nback38,001,2023-12-19_11h22.03.780,untitled,2023.2.3,60.01327493968806,2023-12-19 11h43.28.625539 -0500,
1,"[-0.64, 0.4]",None,0,22,22,22,,,,,,,,,1515.8836565999663,,,,,,,,,,,,,,,,,,,,,,,,,,,,1515.867955899972,1515.8836565999663,1515.8836565999663,1516.3668253999786,1516.3836595999892,1518.8670244999812,1518.8672212999663,None,1,,,,,,,,,,,,,,,,,,,,,,,,,,,,,,,,,,,,,,,,,,,,,nback38,001,2023-12-19_11h22.03.780,untitled,2023.2.3,60.01327493968806,2023-12-19 11h43.28.625539 -0500,
2,"[0.64, 0.4]",None,0,23,23,23,,,,,,,,,1518.8835948000196,,,,,,,,,,,,,,,,,,,,,,,,,,,,1518.8680206999998,1518.8835948000196,1518.8835948000196,1519.3668222000124,1519.3835223999922,1521.8669570999919,1521.867184999981,None,1,,,,,,,,,,,,,,,,,,,,,,,,,,,,,,,,,,,,,,,,,,,,,nback38,001,2023-12-19_11h22.03.780,untitled,2023.2.3,60.01327493968806,2023-12-19 11h43.28.625539 -0500,
6,"[-0.3, 0]",None,0,24,24,24,,,,,,,,,1521.883384899993,,,,,,,,,,,,,,,,,,,,,,,,,,,,1521.8680062000058,1521.883384899993,1521.883384899993,1522.366694599972,1522.3834252000088,1524.866915099963,1524.8671296999673,None,1,,,,,,,,,,,,,,,,,,,,,,,,,,,,,,,,,,,,,,,,,,,,,nback38,001,2023-12-19_11h22.03.780,untitled,2023.2.3,60.01327493968806,2023-12-19 11h43.28.625539 -0500,
3,"[0, 0.2]",None,0,25,25,25,,,,,,,,,1524.8835428999737,,,,,,,,,,,,,,,,,,,,,,,,,,,,1524.8678751999978,1524.8835428999737,1524.8835428999737,1525.3667583999922,1525.3833470999962,1527.866748499975,1527.8669389999704,None,1,,,,,,,,,,,,,,,,,,,,,,,,,,,,,,,,,,,,,,,,,,,,,nback38,001,2023-12-19_11h22.03.780,untitled,2023.2.3,60.01327493968806,2023-12-19 11h43.28.625539 -0500,
11,"[-0.64, -0.4]",space,0,26,26,26,,,,,,,,,1527.8834517999785,,,,,,,,,,,,,,,,,,,,,,,,,,,,1527.8675134999794,1527.8834517999785,1527.8834517999785,1528.366663599969,1528.3834256000118,1530.8667968999944,1530.8669939999818,space,1,0.3699325999477878,None,,,,,,,,,,,,,,,,,,,,,,,,,,,,,,,,,,,,,,,,,,,nback38,001,2023-12-19_11h22.03.780,untitled,2023.2.3,60.01327493968806,2023-12-19 11h43.28.625539 -0500,
1,"[-0.64, 0.4]",None,0,27,27,27,,,,,,,,,1530.883268799982,,,,,,,,,,,,,,,,,,,,,,,,,,,,1530.8678164000157,1530.883268799982,1530.883268799982,1531.3665928000119,1531.3834022000083,1533.8666254999698,1533.866808599967,None,1,,,,,,,,,,,,,,,,,,,,,,,,,,,,,,,,,,,,,,,,,,,,,nback38,001,2023-12-19_11h22.03.780,untitled,2023.2.3,60.01327493968806,2023-12-19 11h43.28.625539 -0500,
3,"[0, 0.2]",None,0,28,28,28,,,,,,,,,1533.883358699968,,,,,,,,,,,,,,,,,,,,,,,,,,,,1533.8674391999957,1533.883358699968,1533.883358699968,1534.366615100007,1534.3832583000185,1536.8666570999776,1536.866856699984,None,1,,,,,,,,,,,,,,,,,,,,,,,,,,,,,,,,,,,,,,,,,,,,,nback38,001,2023-12-19_11h22.03.780,untitled,2023.2.3,60.01327493968806,2023-12-19 11h43.28.625539 -0500,
9,"[0.2, -0.1]",None,0,29,29,29,,,,,,,,,1536.8831926999846,,,,,,,,,,,,,,,,,,,,,,,,,,,,1536.8676784000127,1536.8831926999846,1536.8831926999846,1537.3664571999689,1537.3831624999875,1539.8666838000063,1539.8668937999755,None,1,,,,,,,,,,,,,,,,,,,,,,,,,,,,,,,,,,,,,,,,,,,,,nback38,001,2023-12-19_11h22.03.780,untitled,2023.2.3,60.01327493968806,2023-12-19 11h43.28.625539 -0500,
8,"[-0.2, -0.1]",None,0,30,30,30,,,,,,,,,1539.8832035000087,,,,,,,,,,,,,,,,,,,,,,,,,,,,1539.8677031999687,1539.8832035000087,1539.8832035000087,1540.3665736999828,1540.3831430000137,1542.86641409999,1542.8665775000118,None,1,,,,,,,,,,,,,,,,,,,,,,,,,,,,,,,,,,,,,,,,,,,,,nback38,001,2023-12-19_11h22.03.780,untitled,2023.2.3,60.01327493968806,2023-12-19 11h43.28.625539 -0500,
12,"[0.64, -0.4]",None,0,31,31,31,,,,,,,,,1542.8829457999673,,,,,,,,,,,,,,,,,,,,,,,,,,,,1542.8672057999647,1542.8829457999673,1542.8829457999673,1543.366286400007,1543.383006799966,1545.8664367999882,1545.8666099999682,None,1,,,,,,,,,,,,,,,,,,,,,,,,,,,,,,,,,,,,,,,,,,,,,nback38,001,2023-12-19_11h22.03.780,untitled,2023.2.3,60.01327493968806,2023-12-19 11h43.28.625539 -0500,
9,"[0.2, -0.1]",None,0,32,32,32,,,,,,,,,1545.8831949000014,,,,,,,,,,,,,,,,,,,,,,,,,,,,1545.8672487000003,1545.8831949000014,1545.8831949000014,1546.3662799000158,1546.383782799996,1548.8664934000117,1548.8666841000086,None,1,,,,,,,,,,,,,,,,,,,,,,,,,,,,,,,,,,,,,,,,,,,,,nback38,001,2023-12-19_11h22.03.780,untitled,2023.2.3,60.01327493968806,2023-12-19 11h43.28.625539 -0500,
11,"[-0.64, -0.4]",space,0,33,33,33,,,,,,,,,1548.8831351000117,,,,,,,,,,,,,,,,,,,,,,,,,,,,1548.867396799964,1548.8831351000117,1548.8831351000117,1549.366418999969,1549.3830007999786,1551.8664062999887,1551.8666047999868,space,1,0.32997940003406256,None,,,,,,,,,,,,,,,,,,,,,,,,,,,,,,,,,,,,,,,,,,,nback38,001,2023-12-19_11h22.03.780,untitled,2023.2.3,60.01327493968806,2023-12-19 11h43.28.625539 -0500,
7,"[0.3, 0]",None,0,34,34,34,,,,,,,,,1551.8830473999842,,,,,,,,,,,,,,,,,,,,,,,,,,,,1551.8676246000105,1551.8830473999842,1551.8830473999842,1552.3662347999634,1552.3829460999696,1554.8662043999648,1554.8663798000198,None,1,,,,,,,,,,,,,,,,,,,,,,,,,,,,,,,,,,,,,,,,,,,,,nback38,001,2023-12-19_11h22.03.780,untitled,2023.2.3,60.01327493968806,2023-12-19 11h43.28.625539 -0500,
11,"[-0.64, -0.4]",space,0,35,35,35,,,,,,,,,1554.8830310999765,,,,,,,,,,,,,,,,,,,,,,,,,,,,1554.8670417999965,1554.8830310999765,1554.8830310999765,1555.3661899999715,1555.382995299995,1557.8662586999708,1557.8664734999766,space,1,0.3386430999962613,None,,,,,,,,,,,,,,,,,,,,,,,,,,,,,,,,,,,,,,,,,,,nback38,001,2023-12-19_11h22.03.780,untitled,2023.2.3,60.01327493968806,2023-12-19 11h43.28.625539 -0500,
4,"[-0.2, 0.1]",None,0,36,36,36,,,,,,,,,1557.8830099999905,,,,,,,,,,,,,,,,,,,,,,,,,,,,1557.867538099992,1557.8830099999905,1557.8830099999905,1558.366341899964,1558.3826894999947,1560.8661569000105,1560.866351899982,None,1,,,,,,,,,,,,,,,,,,,,,,,,,,,,,,,,,,,,,,,,,,,,,nback38,001,2023-12-19_11h22.03.780,untitled,2023.2.3,60.01327493968806,2023-12-19 11h43.28.625539 -0500,
5,"[0.2, 0.1]",None,0,37,37,37,,,,,,,,,1560.8828693999676,,,,,,,,,,,,,,,,,,,,,,,,,,,,1560.8671115000034,1560.8828693999676,1560.8828693999676,1561.3662812999683,1561.3829563999898,1563.8661574000143,1563.8663305999944,None,1,,,,,,,,,,,,,,,,,,,,,,,,,,,,,,,,,,,,,,,,,,,,,nback38,001,2023-12-19_11h22.03.780,untitled,2023.2.3,60.01327493968806,2023-12-19 11h43.28.625539 -0500,
6,"[-0.3, 0]",None,0,38,38,38,,,,,,,,,1563.88286469999,,,,,,,,,,,,,,,,,,,,,,,,,,,,1563.866966200003,1563.88286469999,1563.88286469999,1564.366051000019,1564.3827657999936,1566.8660025999998,1566.8661750999745,None,1,,,,,,,,,,,,,,,,,,,,,,,,,,,,,,,,,,,,,,,,,,,,,nback38,001,2023-12-19_11h22.03.780,untitled,2023.2.3,60.01327493968806,2023-12-19 11h43.28.625539 -0500,
11,"[-0.64, -0.4]",space,0,39,39,39,,,,,,,,,1566.8826549999649,,,,,,,,,,,,,,,,,,,,,,,,,,,,1566.866837300011,1566.8826549999649,1566.8826549999649,1567.3658143999637,1567.3826052999939,1569.865994599997,1569.8661963000195,space,1,0.38369419996161014,None,,,,,,,,,,,,,,,,,,,,,,,,,,,,,,,,,,,,,,,,,,,nback38,001,2023-12-19_11h22.03.780,untitled,2023.2.3,60.01327493968806,2023-12-19 11h43.28.625539 -0500,
,,,,,,,,,,,,,,,,,,,,,,,,,,,,,,,,,,,,,,,,,,,,,,,,,,,,,,1569.866939599975,1569.88270810002,1569.88270810002,1597.5176924999687,space,27.618091899959836,None,,,,,,,,,,,,,,,,,,,,,,,,,,,,,,,,,,,,nback38,001,2023-12-19_11h22.03.780,untitled,2023.2.3,60.01327493968806,2023-12-19 11h43.28.625539 -0500,
10,"[0, -0.2]",None,,,,,0,0,0,0,,,,,1598.5320361999911,,,,,,,,,,,,,,,,,,,,,,,,1597.5177538999706,1597.5321889999905,1598.5320361999911,1598.515941199963,,,,,,,,,,,,,,,,,,,1598.5237961999956,1598.5320361999911,1598.5320361999911,1599.0321697000181,1599.0321697000181,1601.532041599974,1601.532041599974,1601.516430699965,None,1,,,,,,,,,,,,,,,,,,,,,,,,,,nback38,001,2023-12-19_11h22.03.780,untitled,2023.2.3,60.01327493968806,2023-12-19 11h43.28.625539 -0500,
5,"[0.2, 0.1]",None,,,,,0,1,1,1,,,,,1601.532041599974,,,,,,,,,,,,,,,,,,,,,,,,,,,,,,,,,,,,,,,,,,,,,,1601.5175310000195,1601.532041599974,1601.532041599974,1602.0322130999994,1602.0322130999994,1604.5319237000076,1604.5319237000076,1604.5160230000038,None,1,,,,,,,,,,,,,,,,,,,,,,,,,,nback38,001,2023-12-19_11h22.03.780,untitled,2023.2.3,60.01327493968806,2023-12-19 11h43.28.625539 -0500,
6,"[-0.3, 0]",None,,,,,0,2,2,2,,,,,1604.5319237000076,,,,,,,,,,,,,,,,,,,,,,,,,,,,,,,,,,,,,,,,,,,,,,1604.516559300013,1604.5319237000076,1604.5319237000076,1605.0317496000207,1605.0317496000207,1607.5320209999918,1607.5320209999918,1607.516057299974,None,1,,,,,,,,,,,,,,,,,,,,,,,,,,nback38,001,2023-12-19_11h22.03.780,untitled,2023.2.3,60.01327493968806,2023-12-19 11h43.28.625539 -0500,
6,"[-0.3, 0]",space,,,,,0,3,3,3,,,,,1607.5320209999918,,,,,,,,,,,,,,,,,,,,,,,,,,,,,,,,,,,,,,,,,,,,,,1607.5167123000138,1607.5320209999918,1607.5320209999918,1608.0322501999908,1608.0322501999908,1610.531879200018,1610.531879200018,1610.5156490000081,space,1,0.8588120000204071,None,,,,,,,,,,,,,,,,,,,,,,,,nback38,001,2023-12-19_11h22.03.780,untitled,2023.2.3,60.01327493968806,2023-12-19 11h43.28.625539 -0500,
12,"[0.64, -0.4]",None,,,,,0,4,4,4,,,,,1610.531879200018,,,,,,,,,,,,,,,,,,,,,,,,,,,,,,,,,,,,,,,,,,,,,,1610.5161639999715,1610.531879200018,1610.531879200018,1611.0318830999895,1611.0318830999895,1613.5319750999915,1613.5319750999915,1613.5163567999844,None,1,,,,,,,,,,,,,,,,,,,,,,,,,,nback38,001,2023-12-19_11h22.03.780,untitled,2023.2.3,60.01327493968806,2023-12-19 11h43.28.625539 -0500,
10,"[0, -0.2]",None,,,,,0,5,5,5,,,,,1613.5319750999915,,,,,,,,,,,,,,,,,,,,,,,,,,,,,,,,,,,,,,,,,,,,,,1613.5171774000046,1613.5319750999915,1613.5319750999915,1614.0317687999923,1614.0317687999923,1616.531956599967,1616.531956599967,1616.5158083999995,space,0,1.2129192000138573,None,,,,,,,,,,,,,,,,,,,,,,,,nback38,001,2023-12-19_11h22.03.780,untitled,2023.2.3,60.01327493968806,2023-12-19 11h43.28.625539 -0500,
2,"[0.64, 0.4]",None,,,,,0,6,6,6,,,,,1616.531956599967,,,,,,,,,,,,,,,,,,,,,,,,,,,,,,,,,,,,,,,,,,,,,,1616.5165170999826,1616.531956599967,1616.531956599967,1617.0321019999683,1617.0321019999683,1619.5317783000064,1619.5317783000064,1619.5158982999856,None,1,,,,,,,,,,,,,,,,,,,,,,,,,,nback38,001,2023-12-19_11h22.03.780,untitled,2023.2.3,60.01327493968806,2023-12-19 11h43.28.625539 -0500,
9,"[0.2, -0.1]",None,,,,,0,7,7,7,,,,,1619.5317783000064,,,,,,,,,,,,,,,,,,,,,,,,,,,,,,,,,,,,,,,,,,,,,,1619.5165311999735,1619.5317783000064,1619.5317783000064,1620.0317418000195,1620.0317418000195,1622.5317550000036,1622.5317550000036,1622.5156430000206,None,1,,,,,,,,,,,,,,,,,,,,,,,,,,nback38,001,2023-12-19_11h22.03.780,untitled,2023.2.3,60.01327493968806,2023-12-19 11h43.28.625539 -0500,
9,"[0.2, -0.1]",space,,,,,0,8,8,8,,,,,1622.5317550000036,,,,,,,,,,,,,,,,,,,,,,,,,,,,,,,,,,,,,,,,,,,,,,1622.516304699995,1622.5317550000036,1622.5317550000036,1623.0316642000107,1623.0316642000107,1625.5316234999918,1625.5316234999918,1625.5156524999766,space,1,0.39905649999855086,None,,,,,,,,,,,,,,,,,,,,,,,,nback38,001,2023-12-19_11h22.03.780,untitled,2023.2.3,60.01327493968806,2023-12-19 11h43.28.625539 -0500,
6,"[-0.3, 0]",None,,,,,0,9,9,9,,,,,1625.5316234999918,,,,,,,,,,,,,,,,,,,,,,,,,,,,,,,,,,,,,,,,,,,,,,1625.5164281000034,1625.5316234999918,1625.5316234999918,1626.031779700017,1626.031779700017,1628.5316248000017,1628.5316248000017,1628.5157225999865,space,0,0.6001789000001736,None,,,,,,,,,,,,,,,,,,,,,,,,nback38,001,2023-12-19_11h22.03.780,untitled,2023.2.3,60.01327493968806,2023-12-19 11h43.28.625539 -0500,
11,"[-0.64, -0.4]",None,,,,,0,10,10,10,,,,,1628.5316248000017,,,,,,,,,,,,,,,,,,,,,,,,,,,,,,,,,,,,,,,,,,,,,,1628.516456799989,1628.5316248000017,1628.5316248000017,1629.0317073999904,1629.0317073999904,1631.5314733000123,1631.5314733000123,1631.515945399995,None,1,,,,,,,,,,,,,,,,,,,,,,,,,,nback38,001,2023-12-19_11h22.03.780,untitled,2023.2.3,60.01327493968806,2023-12-19 11h43.28.625539 -0500,
11,"[-0.64, -0.4]",space,,,,,0,11,11,11,,,,,1631.5314733000123,,,,,,,,,,,,,,,,,,,,,,,,,,,,,,,,,,,,,,,,,,,,,,1631.516777599987,1631.5314733000123,1631.5314733000123,1632.0316659999662,1632.0316659999662,1634.531617200002,1634.531617200002,1634.5160645999713,space,1,0.6946059000329114,None,,,,,,,,,,,,,,,,,,,,,,,,nback38,001,2023-12-19_11h22.03.780,untitled,2023.2.3,60.01327493968806,2023-12-19 11h43.28.625539 -0500,
4,"[-0.2, 0.1]",None,,,,,0,12,12,12,,,,,1634.531617200002,,,,,,,,,,,,,,,,,,,,,,,,,,,,,,,,,,,,,,,,,,,,,,1634.517038799997,1634.531617200002,1634.531617200002,1635.0316101000062,1635.0316101000062,1637.5314925999846,1637.5314925999846,1637.5159890999785,None,1,,,,,,,,,,,,,,,,,,,,,,,,,,nback38,001,2023-12-19_11h22.03.780,untitled,2023.2.3,60.01327493968806,2023-12-19 11h43.28.625539 -0500,
3,"[0, 0.2]",None,,,,,0,13,13,13,,,,,1637.5314925999846,,,,,,,,,,,,,,,,,,,,,,,,,,,,,,,,,,,,,,,,,,,,,,1637.516686499992,1637.5314925999846,1637.5314925999846,1638.0315526999766,1638.0315526999766,1640.5314485999988,1640.5314485999988,1640.5156349000172,None,1,,,,,,,,,,,,,,,,,,,,,,,,,,nback38,001,2023-12-19_11h22.03.780,untitled,2023.2.3,60.01327493968806,2023-12-19 11h43.28.625539 -0500,
3,"[0, 0.2]",space,,,,,0,14,14,14,,,,,1640.5314485999988,,,,,,,,,,,,,,,,,,,,,,,,,,,,,,,,,,,,,,,,,,,,,,1640.516269500018,1640.5314485999988,1640.5314485999988,1641.031214699964,1641.031214699964,1643.5312962000025,1643.5312962000025,1643.5156115000136,space,1,0.5441289999871515,None,,,,,,,,,,,,,,,,,,,,,,,,nback38,001,2023-12-19_11h22.03.780,untitled,2023.2.3,60.01327493968806,2023-12-19 11h43.28.625539 -0500,
8,"[-0.2, -0.1]",None,,,,,0,15,15,15,,,,,1643.5312962000025,,,,,,,,,,,,,,,,,,,,,,,,,,,,,,,,,,,,,,,,,,,,,,1643.516445300018,1643.5312962000025,1643.5312962000025,1644.0314363999642,1644.0314363999642,1646.5312519000145,1646.5312519000145,1646.5155269000097,None,1,,,,,,,,,,,,,,,,,,,,,,,,,,nback38,001,2023-12-19_11h22.03.780,untitled,2023.2.3,60.01327493968806,2023-12-19 11h43.28.625539 -0500,
1,"[-0.64, 0.4]",None,,,,,0,16,16,16,,,,,1646.5312519000145,,,,,,,,,,,,,,,,,,,,,,,,,,,,,,,,,,,,,,,,,,,,,,1646.5161414999748,1646.5312519000145,1646.5312519000145,1647.0315012999927,1647.0315012999927,1649.5311862999806,1649.5311862999806,1649.5153325999854,None,1,,,,,,,,,,,,,,,,,,,,,,,,,,nback38,001,2023-12-19_11h22.03.780,untitled,2023.2.3,60.01327493968806,2023-12-19 11h43.28.625539 -0500,
2,"[0.64, 0.4]",None,,,,,0,17,17,17,,,,,1649.5311862999806,,,,,,,,,,,,,,,,,,,,,,,,,,,,,,,,,,,,,,,,,,,,,,1649.5160386000061,1649.5311862999806,1649.5311862999806,1650.0312239999766,1650.0312239999766,1652.5311636999832,1652.5311636999832,1652.5153067999636,space,0,0.7451181999640539,None,,,,,,,,,,,,,,,,,,,,,,,,nback38,001,2023-12-19_11h22.03.780,untitled,2023.2.3,60.01327493968806,2023-12-19 11h43.28.625539 -0500,
4,"[-0.2, 0.1]",None,,,,,0,18,18,18,,,,,1652.5311636999832,,,,,,,,,,,,,,,,,,,,,,,,,,,,,,,,,,,,,,,,,,,,,,1652.515902300016,1652.5311636999832,1652.5311636999832,1653.0313409999944,1653.0313409999944,1655.5310623999685,1655.5310623999685,1655.515203899995,space,0,0.7385364000219852,None,,,,,,,,,,,,,,,,,,,,,,,,nback38,001,2023-12-19_11h22.03.780,untitled,2023.2.3,60.01327493968806,2023-12-19 11h43.28.625539 -0500,
4,"[-0.2, 0.1]",space,,,,,0,19,19,19,,,,,1655.5310623999685,,,,,,,,,,,,,,,,,,,,,,,,,,,,,,,,,,,,,,,,,,,,,,1655.5158636000124,1655.5310623999685,1655.5310623999685,1656.0310797999846,1656.0310797999846,1658.531323699979,1658.531323699979,1658.5153499000007,space,1,0.4794910000055097,None,,,,,,,,,,,,,,,,,,,,,,,,nback38,001,2023-12-19_11h22.03.780,untitled,2023.2.3,60.01327493968806,2023-12-19 11h43.28.625539 -0500,
8,"[-0.2, -0.1]",None,,,,,0,20,20,20,,,,,1658.531323699979,,,,,,,,,,,,,,,,,,,,,,,,,,,,,,,,,,,,,,,,,,,,,,1658.5161103999708,1658.531323699979,1658.531323699979,1659.031151400006,1659.031151400006,1661.5311010999721,1661.5311010999721,1661.5152892000042,space,0,0.6532105000223964,None,,,,,,,,,,,,,,,,,,,,,,,,nback38,001,2023-12-19_11h22.03.780,untitled,2023.2.3,60.01327493968806,2023-12-19 11h43.28.625539 -0500,
5,"[0.2, 0.1]",None,,,,,0,21,21,21,,,,,1661.5311010999721,,,,,,,,,,,,,,,,,,,,,,,,,,,,,,,,,,,,,,,,,,,,,,1661.516080899979,1661.5311010999721,1661.5311010999721,1662.031158800004,1662.031158800004,1664.5309507999918,1664.5309507999918,1664.5150610000128,space,0,0.4820878999889828,None,,,,,,,,,,,,,,,,,,,,,,,,nback38,001,2023-12-19_11h22.03.780,untitled,2023.2.3,60.01327493968806,2023-12-19 11h43.28.625539 -0500,
5,"[0.2, 0.1]",space,,,,,0,22,22,22,,,,,1664.5309507999918,,,,,,,,,,,,,,,,,,,,,,,,,,,,,,,,,,,,,,,,,,,,,,1664.5158323000069,1664.5309507999918,1664.5309507999918,1665.0309501999873,1665.0309501999873,1667.5309893999947,1667.5309893999947,1667.515156199981,space,1,0.43403619999298826,None,,,,,,,,,,,,,,,,,,,,,,,,nback38,001,2023-12-19_11h22.03.780,untitled,2023.2.3,60.01327493968806,2023-12-19 11h43.28.625539 -0500,
1,"[-0.64, 0.4]",None,,,,,0,23,23,23,,,,,1667.5309893999947,,,,,,,,,,,,,,,,,,,,,,,,,,,,,,,,,,,,,,,,,,,,,,1667.515898999991,1667.5309893999947,1667.5309893999947,1668.0308809999842,1668.0308809999842,1670.5308823999949,1670.5308823999949,1670.5155462999828,space,0,0.49230360001092777,None,,,,,,,,,,,,,,,,,,,,,,,,nback38,001,2023-12-19_11h22.03.780,untitled,2023.2.3,60.01327493968806,2023-12-19 11h43.28.625539 -0500,
3,"[0, 0.2]",None,,,,,0,24,24,24,,,,,1670.5308823999949,,,,,,,,,,,,,,,,,,,,,,,,,,,,,,,,,,,,,,,,,,,,,,1670.516567100014,1670.5308823999949,1670.5308823999949,1671.030912199989,1671.030912199989,1673.5309456000105,1673.5309456000105,1673.515079899982,space,0,0.6364668000023812,None,,,,,,,,,,,,,,,,,,,,,,,,nback38,001,2023-12-19_11h22.03.780,untitled,2023.2.3,60.01327493968806,2023-12-19 11h43.28.625539 -0500,
6,"[-0.3, 0]",None,,,,,0,25,25,25,,,,,1673.5309456000105,,,,,,,,,,,,,,,,,,,,,,,,,,,,,,,,,,,,,,,,,,,,,,1673.515994300018,1673.5309456000105,1673.5309456000105,1674.0307247000164,1674.0307247000164,1676.5309246999677,1676.5309246999677,1676.5148312000092,space,0,0.7500014000106603,None,,,,,,,,,,,,,,,,,,,,,,,,nback38,001,2023-12-19_11h22.03.780,untitled,2023.2.3,60.01327493968806,2023-12-19 11h43.28.625539 -0500,
1,"[-0.64, 0.4]",None,,,,,0,26,26,26,,,,,1676.5309246999677,,,,,,,,,,,,,,,,,,,,,,,,,,,,,,,,,,,,,,,,,,,,,,1676.5154774999828,1676.5309246999677,1676.5309246999677,1677.030960700009,1677.030960700009,1679.5308002000093,1679.5308002000093,1679.5147886999766,space,0,0.4291592999943532,None,,,,,,,,,,,,,,,,,,,,,,,,nback38,001,2023-12-19_11h22.03.780,untitled,2023.2.3,60.01327493968806,2023-12-19 11h43.28.625539 -0500,
1,"[-0.64, 0.4]",space,,,,,0,27,27,27,,,,,1679.5308002000093,,,,,,,,,,,,,,,,,,,,,,,,,,,,,,,,,,,,,,,,,,,,,,1679.5155230999808,1679.5308002000093,1679.5308002000093,1680.030888999987,1680.030888999987,1682.530663100013,1682.530663100013,1682.5149653999833,space,1,0.462285699963104,None,,,,,,,,,,,,,,,,,,,,,,,,nback38,001,2023-12-19_11h22.03.780,untitled,2023.2.3,60.01327493968806,2023-12-19 11h43.28.625539 -0500,
1,"[-0.64, 0.4]",space,,,,,0,28,28,28,,,,,1682.530663100013,,,,,,,,,,,,,,,,,,,,,,,,,,,,,,,,,,,,,,,,,,,,,,1682.5157042999635,1682.530663100013,1682.530663100013,1683.030771599966,1683.030771599966,1685.5306572999689,1685.5306572999689,1685.51495360001,space,1,0.471411700011231,None,,,,,,,,,,,,,,,,,,,,,,,,nback38,001,2023-12-19_11h22.03.780,untitled,2023.2.3,60.01327493968806,2023-12-19 11h43.28.625539 -0500,
3,"[0, 0.2]",None,,,,,0,29,29,29,,,,,1685.5306572999689,,,,,,,,,,,,,,,,,,,,,,,,,,,,,,,,,,,,,,,,,,,,,,1685.515825600014,1685.5306572999689,1685.5306572999689,1686.030760900001,1686.030760900001,1688.5307405000203,1688.5307405000203,1688.514698599989,space,0,0.6618298999965191,None,,,,,,,,,,,,,,,,,,,,,,,,nback38,001,2023-12-19_11h22.03.780,untitled,2023.2.3,60.01327493968806,2023-12-19 11h43.28.625539 -0500,
12,"[0.64, -0.4]",None,,,,,0,30,30,30,,,,,1688.5307405000203,,,,,,,,,,,,,,,,,,,,,,,,,,,,,,,,,,,,,,,,,,,,,,1688.5154796999996,1688.5307405000203,1688.5307405000203,1689.0305783000076,1689.0305783000076,1691.530469099991,1691.530469099991,1691.5144090999966,space,0,0.39860920002683997,None,,,,,,,,,,,,,,,,,,,,,,,,nback38,001,2023-12-19_11h22.03.780,untitled,2023.2.3,60.01327493968806,2023-12-19 11h43.28.625539 -0500,
12,"[0.64, -0.4]",space,,,,,0,31,31,31,,,,,1691.530469099991,,,,,,,,,,,,,,,,,,,,,,,,,,,,,,,,,,,,,,,,,,,,,,1691.514995799982,1691.530469099991,1691.530469099991,1692.0305639000144,1692.0305639000144,1694.5305447999854,1694.5305447999854,1694.515019399987,space,1,0.48795480001717806,None,,,,,,,,,,,,,,,,,,,,,,,,nback38,001,2023-12-19_11h22.03.780,untitled,2023.2.3,60.01327493968806,2023-12-19 11h43.28.625539 -0500,
2,"[0.64, 0.4]",None,,,,,0,32,32,32,,,,,1694.5305447999854,,,,,,,,,,,,,,,,,,,,,,,,,,,,,,,,,,,,,,,,,,,,,,1694.5160482999636,1694.5305447999854,1694.5305447999854,1695.0305710000102,1695.0305710000102,1697.5303433999652,1697.5303433999652,1697.5142478999915,space,0,0.40972559998044744,None,,,,,,,,,,,,,,,,,,,,,,,,nback38,001,2023-12-19_11h22.03.780,untitled,2023.2.3,60.01327493968806,2023-12-19 11h43.28.625539 -0500,
1,"[-0.64, 0.4]",None,,,,,0,33,33,33,,,,,1697.5303433999652,,,,,,,,,,,,,,,,,,,,,,,,,,,,,,,,,,,,,,,,,,,,,,1697.5148449999979,1697.5303433999652,1697.5303433999652,1698.0305671999813,1698.0305671999813,1700.5305227999925,1700.5305227999925,1700.5146416999632,space,0,0.40028040000470355,None,,,,,,,,,,,,,,,,,,,,,,,,nback38,001,2023-12-19_11h22.03.780,untitled,2023.2.3,60.01327493968806,2023-12-19 11h43.28.625539 -0500,
7,"[0.3, 0]",None,,,,,0,34,34,34,,,,,1700.5305227999925,,,,,,,,,,,,,,,,,,,,,,,,,,,,,,,,,,,,,,,,,,,,,,1700.5154564999975,1700.5305227999925,1700.5305227999925,1701.0302476999932,1701.0302476999932,1703.5305307999952,1703.5305307999952,1703.5148175999639,space,0,0.390817400009837,None,,,,,,,,,,,,,,,,,,,,,,,,nback38,001,2023-12-19_11h22.03.780,untitled,2023.2.3,60.01327493968806,2023-12-19 11h43.28.625539 -0500,
7,"[0.3, 0]",space,,,,,0,35,35,35,,,,,1703.5305307999952,,,,,,,,,,,,,,,,,,,,,,,,,,,,,,,,,,,,,,,,,,,,,,1703.515733600012,1703.5305307999952,1703.5305307999952,1704.0303074999829,1704.0303074999829,1706.5302780999918,1706.5302780999918,1706.5145577999647,space,1,0.5699122999794781,None,,,,,,,,,,,,,,,,,,,,,,,,nback38,001,2023-12-19_11h22.03.780,untitled,2023.2.3,60.01327493968806,2023-12-19 11h43.28.625539 -0500,
11,"[-0.64, -0.4]",None,,,,,0,36,36,36,,,,,1706.5302780999918,,,,,,,,,,,,,,,,,,,,,,,,,,,,,,,,,,,,,,,,,,,,,,1706.5153772999765,1706.5302780999918,1706.5302780999918,1707.0302140999702,1707.0302140999702,1709.5302059999667,1709.5302059999667,1709.5142961000092,space,0,0.7522201000247151,None,,,,,,,,,,,,,,,,,,,,,,,,nback38,001,2023-12-19_11h22.03.780,untitled,2023.2.3,60.01327493968806,2023-12-19 11h43.28.625539 -0500,
2,"[0.64, 0.4]",None,,,,,0,37,37,37,,,,,1709.5302059999667,,,,,,,,,,,,,,,,,,,,,,,,,,,,,,,,,,,,,,,,,,,,,,1709.515051800001,1709.5302059999667,1709.5302059999667,1710.0302001999808,1710.0302001999808,1712.530333200004,1712.530333200004,1712.5142886000103,space,0,0.4094393000123091,None,,,,,,,,,,,,,,,,,,,,,,,,nback38,001,2023-12-19_11h22.03.780,untitled,2023.2.3,60.01327493968806,2023-12-19 11h43.28.625539 -0500,
6,"[-0.3, 0]",None,,,,,0,38,38,38,,,,,1712.530333200004,,,,,,,,,,,,,,,,,,,,,,,,,,,,,,,,,,,,,,,,,,,,,,1712.5150051999954,1712.530333200004,1712.530333200004,1713.0302564000012,1713.0302564000012,1715.5299876999925,1715.5299876999925,1715.5137935999664,space,0,0.6979103999910876,None,,,,,,,,,,,,,,,,,,,,,,,,nback38,001,2023-12-19_11h22.03.780,untitled,2023.2.3,60.01327493968806,2023-12-19 11h43.28.625539 -0500,
10,"[0, -0.2]",None,,,,,0,39,39,39,,,,,1715.5299876999925,,,,,,,,,,,,,,,,,,,,,,,,,,,,,,,,,,,,,,,,,,,,,,1715.5143138999701,1715.5299876999925,1715.5299876999925,1716.030069499975,1716.030069499975,1718.5302250999957,1718.5302250999957,1718.5141276000068,space,0,0.37810309999622405,None,,,,,,,,,,,,,,,,,,,,,,,,nback38,001,2023-12-19_11h22.03.780,untitled,2023.2.3,60.01327493968806,2023-12-19 11h43.28.625539 -0500,
,,,,,,,,,,,,,,,,,,,,,,,,,,,,,,,,,,,,,,,,,,,,,,,,,,,,,,,,,,,,,,,,,,,,,,,,,1718.5147407000186,1718.5302250999957,1718.5302250999957,1793.7301787000033,space,75.19270500005223,None,,,,,,,,,,,,,,,,,nback38,001,2023-12-19_11h22.03.780,untitled,2023.2.3,60.01327493968806,2023-12-19 11h43.28.625539 -0500,
,"[0.2, 0.1]",None,,,,,,,,,0,0,0,0,1794.7451751999906,,,,,,,,,,,,,,,,,,,,,,,,1793.7302181000123,1793.7452873999719,1794.7451751999906,1794.7297842999687,,,,,,,,,,,,,,,,,,,,,,,,,,,,,,,,,,,,,,1794.7393788999761,1794.7451751999906,1794.7451751999906,1795.2455370000098,1795.2455370000098,1797.7453770000138,1797.7453770000138,1797.729372599977,None,1,,,,,,,nback38,001,2023-12-19_11h22.03.780,untitled,2023.2.3,60.01327493968806,2023-12-19 11h43.28.625539 -0500,
,"[0.64, 0.4]",None,,,,,,,,,0,1,1,1,1797.7453770000138,,,,,,,,,,,,,,,,,,,,,,,,,,,,,,,,,,,,,,,,,,,,,,,,,,,,,,,,,,,,,,,,,1797.7301467999932,1797.7453770000138,1797.7453770000138,1798.2452975999913,1798.2452975999913,1800.7453704999643,1800.7453704999643,1800.7296540999669,None,1,,,,,,,nback38,001,2023-12-19_11h22.03.780,untitled,2023.2.3,60.01327493968806,2023-12-19 11h43.28.625539 -0500,
,"[-0.3, 0]",None,,,,,,,,,0,2,2,2,1800.7453704999643,,,,,,,,,,,,,,,,,,,,,,,,,,,,,,,,,,,,,,,,,,,,,,,,,,,,,,,,,,,,,,,,,1800.7304256000207,1800.7453704999643,1800.7453704999643,1801.24532300001,1801.24532300001,1803.7452268999768,1803.7452268999768,1803.7296837000176,None,1,,,,,,,nback38,001,2023-12-19_11h22.03.780,untitled,2023.2.3,60.01327493968806,2023-12-19 11h43.28.625539 -0500,
,"[0.2, -0.1]",None,,,,,,,,,0,3,3,3,1803.7452268999768,,,,,,,,,,,,,,,,,,,,,,,,,,,,,,,,,,,,,,,,,,,,,,,,,,,,,,,,,,,,,,,,,1803.7305400000187,1803.7452268999768,1803.7452268999768,1804.24534329999,1804.24534329999,1806.7449815999717,1806.7449815999717,1806.7293877999764,None,1,,,,,,,nback38,001,2023-12-19_11h22.03.780,untitled,2023.2.3,60.01327493968806,2023-12-19 11h43.28.625539 -0500,
,"[0, 0.2]",None,,,,,,,,,0,4,4,4,1806.7449815999717,,,,,,,,,,,,,,,,,,,,,,,,,,,,,,,,,,,,,,,,,,,,,,,,,,,,,,,,,,,,,,,,,1806.7299429000122,1806.7449815999717,1806.7449815999717,1807.245268700004,1807.245268700004,1809.7450356999761,1809.7450356999761,1809.7297341999947,None,1,,,,,,,nback38,001,2023-12-19_11h22.03.780,untitled,2023.2.3,60.01327493968806,2023-12-19 11h43.28.625539 -0500,
,"[0.2, -0.1]",space,,,,,,,,,0,5,5,5,1809.7450356999761,,,,,,,,,,,,,,,,,,,,,,,,,,,,,,,,,,,,,,,,,,,,,,,,,,,,,,,,,,,,,,,,,1809.730561400007,1809.7450356999761,1809.7450356999761,1810.244960299984,1810.244960299984,1812.7451474000118,1812.7451474000118,1812.7292025999632,space,1,0.4339414000278339,None,,,,,nback38,001,2023-12-19_11h22.03.780,untitled,2023.2.3,60.01327493968806,2023-12-19 11h43.28.625539 -0500,
,"[0, -0.2]",None,,,,,,,,,0,6,6,6,1812.7451474000118,,,,,,,,,,,,,,,,,,,,,,,,,,,,,,,,,,,,,,,,,,,,,,,,,,,,,,,,,,,,,,,,,1812.7301299999817,1812.7451474000118,1812.7451474000118,1813.245203999977,1813.245203999977,1815.7449465999962,1815.7449465999962,1815.7291654999717,None,1,,,,,,,nback38,001,2023-12-19_11h22.03.780,untitled,2023.2.3,60.01327493968806,2023-12-19 11h43.28.625539 -0500,
,"[0.64, -0.4]",None,,,,,,,,,0,7,7,7,1815.7449465999962,,,,,,,,,,,,,,,,,,,,,,,,,,,,,,,,,,,,,,,,,,,,,,,,,,,,,,,,,,,,,,,,,1815.7297988999635,1815.7449465999962,1815.7449465999962,1816.2449650000199,1816.2449650000199,1818.7447358999634,1818.7447358999634,1818.728861999989,None,1,,,,,,,nback38,001,2023-12-19_11h22.03.780,untitled,2023.2.3,60.01327493968806,2023-12-19 11h43.28.625539 -0500,
,"[0.3, 0]",None,,,,,,,,,0,8,8,8,1818.7447358999634,,,,,,,,,,,,,,,,,,,,,,,,,,,,,,,,,,,,,,,,,,,,,,,,,,,,,,,,,,,,,,,,,1818.729469700018,1818.7447358999634,1818.7447358999634,1819.2449725000188,1819.2449725000188,1821.7450002999976,1821.7450002999976,1821.7292400000151,None,1,,,,,,,nback38,001,2023-12-19_11h22.03.780,untitled,2023.2.3,60.01327493968806,2023-12-19 11h43.28.625539 -0500,
,"[0.64, -0.4]",space,,,,,,,,,0,9,9,9,1821.7450002999976,,,,,,,,,,,,,,,,,,,,,,,,,,,,,,,,,,,,,,,,,,,,,,,,,,,,,,,,,,,,,,,,,1821.7299266000045,1821.7450002999976,1821.7450002999976,1822.2448805000167,1822.2448805000167,1824.7448189000133,1824.7448189000133,1824.7290651999647,space,1,0.36245339998276904,None,,,,,nback38,001,2023-12-19_11h22.03.780,untitled,2023.2.3,60.01327493968806,2023-12-19 11h43.28.625539 -0500,
,"[-0.64, 0.4]",None,,,,,,,,,0,10,10,10,1824.7448189000133,,,,,,,,,,,,,,,,,,,,,,,,,,,,,,,,,,,,,,,,,,,,,,,,,,,,,,,,,,,,,,,,,1824.7300166999921,1824.7448189000133,1824.7448189000133,1825.2449955000193,1825.2449955000193,1827.7448776999954,1827.7448776999954,1827.7289512999705,None,1,,,,,,,nback38,001,2023-12-19_11h22.03.780,untitled,2023.2.3,60.01327493968806,2023-12-19 11h43.28.625539 -0500,
,"[0.2, 0.1]",None,,,,,,,,,0,11,11,11,1827.7448776999954,,,,,,,,,,,,,,,,,,,,,,,,,,,,,,,,,,,,,,,,,,,,,,,,,,,,,,,,,,,,,,,,,1827.7295880999882,1827.7448776999954,1827.7448776999954,1828.2447301999782,1828.2447301999782,1830.7447521999711,1830.7447521999711,1830.7291157,space,0,0.5267097000032663,None,,,,,nback38,001,2023-12-19_11h22.03.780,untitled,2023.2.3,60.01327493968806,2023-12-19 11h43.28.625539 -0500,
,"[0.3, 0]",None,,,,,,,,,0,12,12,12,1830.7447521999711,,,,,,,,,,,,,,,,,,,,,,,,,,,,,,,,,,,,,,,,,,,,,,,,,,,,,,,,,,,,,,,,,1830.7299697999842,1830.7447521999711,1830.7447521999711,1831.2447748999693,1831.2447748999693,1833.7446501000086,1833.7446501000086,1833.7287899999646,None,1,,,,,,,nback38,001,2023-12-19_11h22.03.780,untitled,2023.2.3,60.01327493968806,2023-12-19 11h43.28.625539 -0500,
,"[0.2, 0.1]",space,,,,,,,,,0,13,13,13,1833.7446501000086,,,,,,,,,,,,,,,,,,,,,,,,,,,,,,,,,,,,,,,,,,,,,,,,,,,,,,,,,,,,,,,,,1833.729347400018,1833.7446501000086,1833.7446501000086,1834.2445519000175,1834.2445519000175,1836.7445143999648,1836.7445143999648,1836.7290724000195,space,1,0.5416221999912523,None,,,,,nback38,001,2023-12-19_11h22.03.780,untitled,2023.2.3,60.01327493968806,2023-12-19 11h43.28.625539 -0500,
,"[-0.3, 0]",None,,,,,,,,,0,14,14,14,1836.7445143999648,,,,,,,,,,,,,,,,,,,,,,,,,,,,,,,,,,,,,,,,,,,,,,,,,,,,,,,,,,,,,,,,,1836.7301051999675,1836.7445143999648,1836.7445143999648,1837.2446553999907,1837.2446553999907,1839.7445429000072,1839.7445429000072,1839.7286807000055,None,1,,,,,,,nback38,001,2023-12-19_11h22.03.780,untitled,2023.2.3,60.01327493968806,2023-12-19 11h43.28.625539 -0500,
,"[0, 0.2]",None,,,,,,,,,0,15,15,15,1839.7445429000072,,,,,,,,,,,,,,,,,,,,,,,,,,,,,,,,,,,,,,,,,,,,,,,,,,,,,,,,,,,,,,,,,1839.729310399969,1839.7445429000072,1839.7445429000072,1840.2444684999646,1840.2444684999646,1842.7445402999874,1842.7445402999874,1842.7285807000007,None,1,,,,,,,nback38,001,2023-12-19_11h22.03.780,untitled,2023.2.3,60.01327493968806,2023-12-19 11h43.28.625539 -0500,
,"[-0.3, 0]",space,,,,,,,,,0,16,16,16,1842.7445402999874,,,,,,,,,,,,,,,,,,,,,,,,,,,,,,,,,,,,,,,,,,,,,,,,,,,,,,,,,,,,,,,,,1842.7291966999765,1842.7445402999874,1842.7445402999874,1843.244428200007,1843.244428200007,1845.7444849999738,1845.7444849999738,1845.7286426000064,space,1,0.40100740001071244,None,,,,,nback38,001,2023-12-19_11h22.03.780,untitled,2023.2.3,60.01327493968806,2023-12-19 11h43.28.625539 -0500,
,"[-0.64, -0.4]",None,,,,,,,,,0,17,17,17,1845.7444849999738,,,,,,,,,,,,,,,,,,,,,,,,,,,,,,,,,,,,,,,,,,,,,,,,,,,,,,,,,,,,,,,,,1845.7293785999645,1845.7444849999738,1845.7444849999738,1846.2445362000144,1846.2445362000144,1848.7444733000011,1848.7444733000011,1848.7288763999823,None,1,,,,,,,nback38,001,2023-12-19_11h22.03.780,untitled,2023.2.3,60.01327493968806,2023-12-19 11h43.28.625539 -0500,
,"[-0.2, -0.1]",None,,,,,,,,,0,18,18,18,1848.7444733000011,,,,,,,,,,,,,,,,,,,,,,,,,,,,,,,,,,,,,,,,,,,,,,,,,,,,,,,,,,,,,,,,,1848.7296669000061,1848.7444733000011,1848.7444733000011,1849.2444947999902,1849.2444947999902,1851.7444201000035,1851.7444201000035,1851.728843299963,None,1,,,,,,,nback38,001,2023-12-19_11h22.03.780,untitled,2023.2.3,60.01327493968806,2023-12-19 11h43.28.625539 -0500,
,"[0.2, -0.1]",None,,,,,,,,,0,19,19,19,1851.7444201000035,,,,,,,,,,,,,,,,,,,,,,,,,,,,,,,,,,,,,,,,,,,,,,,,,,,,,,,,,,,,,,,,,1851.729609299975,1851.7444201000035,1851.7444201000035,1852.244271499978,1852.244271499978,1854.7442775999662,1854.7442775999662,1854.728433399985,None,1,,,,,,,nback38,001,2023-12-19_11h22.03.780,untitled,2023.2.3,60.01327493968806,2023-12-19 11h43.28.625539 -0500,
,"[0.2, -0.1]",None,,,,,,,,,0,20,20,20,1854.7442775999662,,,,,,,,,,,,,,,,,,,,,,,,,,,,,,,,,,,,,,,,,,,,,,,,,,,,,,,,,,,,,,,,,1854.7292430999805,1854.7442775999662,1854.7442775999662,1855.2442687000148,1855.2442687000148,1857.7442269999883,1857.7442269999883,1857.7284095999785,space,0,0.8764423999818973,None,,,,,nback38,001,2023-12-19_11h22.03.780,untitled,2023.2.3,60.01327493968806,2023-12-19 11h43.28.625539 -0500,
,"[-0.64, 0.4]",None,,,,,,,,,0,21,21,21,1857.7442269999883,,,,,,,,,,,,,,,,,,,,,,,,,,,,,,,,,,,,,,,,,,,,,,,,,,,,,,,,,,,,,,,,,1857.7292256999644,1857.7442269999883,1857.7442269999883,1858.2440963999834,1858.2440963999834,1860.744287599984,1860.744287599984,1860.7284756000154,None,1,,,,,,,nback38,001,2023-12-19_11h22.03.780,untitled,2023.2.3,60.01327493968806,2023-12-19 11h43.28.625539 -0500,
,"[0, 0.2]",None,,,,,,,,,0,22,22,22,1860.744287599984,,,,,,,,,,,,,,,,,,,,,,,,,,,,,,,,,,,,,,,,,,,,,,,,,,,,,,,,,,,,,,,,,1860.7291251000133,1860.744287599984,1860.744287599984,1861.2440292999963,1861.2440292999963,1863.7442193999887,1863.7442193999887,1863.7285221999628,None,1,,,,,,,nback38,001,2023-12-19_11h22.03.780,untitled,2023.2.3,60.01327493968806,2023-12-19 11h43.28.625539 -0500,
,"[0.64, -0.4]",None,,,,,,,,,0,23,23,23,1863.7442193999887,,,,,,,,,,,,,,,,,,,,,,,,,,,,,,,,,,,,,,,,,,,,,,,,,,,,,,,,,,,,,,,,,1863.7291532999952,1863.7442193999887,1863.7442193999887,1864.2441856999649,1864.2441856999649,1866.744303399988,1866.744303399988,1866.7283342999872,None,1,,,,,,,nback38,001,2023-12-19_11h22.03.780,untitled,2023.2.3,60.01327493968806,2023-12-19 11h43.28.625539 -0500,
,"[0, 0.2]",space,,,,,,,,,0,24,24,24,1866.744303399988,,,,,,,,,,,,,,,,,,,,,,,,,,,,,,,,,,,,,,,,,,,,,,,,,,,,,,,,,,,,,,,,,1866.7289757999824,1866.744303399988,1866.744303399988,1867.24410359998,1867.24410359998,1869.7441038999823,1869.7441038999823,1869.728538699972,space,1,0.5580424000509083,None,,,,,nback38,001,2023-12-19_11h22.03.780,untitled,2023.2.3,60.01327493968806,2023-12-19 11h43.28.625539 -0500,
,"[-0.2, 0.1]",None,,,,,,,,,0,25,25,25,1869.7441038999823,,,,,,,,,,,,,,,,,,,,,,,,,,,,,,,,,,,,,,,,,,,,,,,,,,,,,,,,,,,,,,,,,1869.7295519000036,1869.7441038999823,1869.7441038999823,1870.2439002000028,1870.2439002000028,1872.7440671999939,1872.7440671999939,1872.7281841000076,None,1,,,,,,,nback38,001,2023-12-19_11h22.03.780,untitled,2023.2.3,60.01327493968806,2023-12-19 11h43.28.625539 -0500,
,"[0.3, 0]",None,,,,,,,,,0,26,26,26,1872.7440671999939,,,,,,,,,,,,,,,,,,,,,,,,,,,,,,,,,,,,,,,,,,,,,,,,,,,,,,,,,,,,,,,,,1872.7288538999856,1872.7440671999939,1872.7440671999939,1873.243815599999,1873.243815599999,1875.744041399972,1875.744041399972,1875.7283378000138,None,1,,,,,,,nback38,001,2023-12-19_11h22.03.780,untitled,2023.2.3,60.01327493968806,2023-12-19 11h43.28.625539 -0500,
,"[-0.2, 0.1]",space,,,,,,,,,0,27,27,27,1875.744041399972,,,,,,,,,,,,,,,,,,,,,,,,,,,,,,,,,,,,,,,,,,,,,,,,,,,,,,,,,,,,,,,,,1875.729103199963,1875.744041399972,1875.744041399972,1876.2437746999785,1876.2437746999785,1878.7439629000146,1878.7439629000146,1878.728012699983,space,1,0.4338043999741785,None,,,,,nback38,001,2023-12-19_11h22.03.780,untitled,2023.2.3,60.01327493968806,2023-12-19 11h43.28.625539 -0500,
,"[-0.2, 0.1]",None,,,,,,,,,0,28,28,28,1878.7439629000146,,,,,,,,,,,,,,,,,,,,,,,,,,,,,,,,,,,,,,,,,,,,,,,,,,,,,,,,,,,,,,,,,1878.7287111000041,1878.7439629000146,1878.7439629000146,1879.2438361999812,1879.2438361999812,1881.743745499989,1881.743745499989,1881.727902100014,None,1,,,,,,,nback38,001,2023-12-19_11h22.03.780,untitled,2023.2.3,60.01327493968806,2023-12-19 11h43.28.625539 -0500,
,"[0.2, 0.1]",None,,,,,,,,,0,29,29,29,1881.743745499989,,,,,,,,,,,,,,,,,,,,,,,,,,,,,,,,,,,,,,,,,,,,,,,,,,,,,,,,,,,,,,,,,1881.7284343999927,1881.743745499989,1881.743745499989,1882.243760399986,1882.243760399986,1884.7439148999983,1884.7439148999983,1884.7282611000119,None,1,,,,,,,nback38,001,2023-12-19_11h22.03.780,untitled,2023.2.3,60.01327493968806,2023-12-19 11h43.28.625539 -0500,
,"[-0.64, -0.4]",None,,,,,,,,,0,30,30,30,1884.7439148999983,,,,,,,,,,,,,,,,,,,,,,,,,,,,,,,,,,,,,,,,,,,,,,,,,,,,,,,,,,,,,,,,,1884.729074599978,1884.7439148999983,1884.7439148999983,1885.2437967999722,1885.2437967999722,1887.7437303999905,1887.7437303999905,1887.728225299972,None,1,,,,,,,nback38,001,2023-12-19_11h22.03.780,untitled,2023.2.3,60.01327493968806,2023-12-19 11h43.28.625539 -0500,
,"[0, -0.2]",None,,,,,,,,,0,31,31,31,1887.7437303999905,,,,,,,,,,,,,,,,,,,,,,,,,,,,,,,,,,,,,,,,,,,,,,,,,,,,,,,,,,,,,,,,,1887.7290444999817,1887.7437303999905,1887.7437303999905,1888.243683699984,1888.243683699984,1890.7435545999906,1890.7435545999906,1890.7280967999832,None,1,,,,,,,nback38,001,2023-12-19_11h22.03.780,untitled,2023.2.3,60.01327493968806,2023-12-19 11h43.28.625539 -0500,
,"[-0.64, -0.4]",space,,,,,,,,,0,32,32,32,1890.7435545999906,,,,,,,,,,,,,,,,,,,,,,,,,,,,,,,,,,,,,,,,,,,,,,,,,,,,,,,,,,,,,,,,,1890.7288235999877,1890.7435545999906,1890.7435545999906,1891.243538699986,1891.243538699986,1893.7439183999668,1893.7439183999668,1893.727871900017,space,1,0.6527197000104934,None,,,,,nback38,001,2023-12-19_11h22.03.780,untitled,2023.2.3,60.01327493968806,2023-12-19 11h43.28.625539 -0500,
,"[0.64, 0.4]",None,,,,,,,,,0,33,33,33,1893.7439183999668,,,,,,,,,,,,,,,,,,,,,,,,,,,,,,,,,,,,,,,,,,,,,,,,,,,,,,,,,,,,,,,,,1893.728780000005,1893.7439183999668,1893.7439183999668,1894.2437041999656,1894.2437041999656,1896.743531199987,1896.743531199987,1896.7277214999776,None,1,,,,,,,nback38,001,2023-12-19_11h22.03.780,untitled,2023.2.3,60.01327493968806,2023-12-19 11h43.28.625539 -0500,
,"[-0.3, 0]",None,,,,,,,,,0,34,34,34,1896.743531199987,,,,,,,,,,,,,,,,,,,,,,,,,,,,,,,,,,,,,,,,,,,,,,,,,,,,,,,,,,,,,,,,,1896.7283288000035,1896.743531199987,1896.743531199987,1897.2435436999658,1897.2435436999658,1899.7436636000057,1899.7436636000057,1899.7276982999756,None,1,,,,,,,nback38,001,2023-12-19_11h22.03.780,untitled,2023.2.3,60.01327493968806,2023-12-19 11h43.28.625539 -0500,
,"[0.3, 0]",None,,,,,,,,,0,35,35,35,1899.7436636000057,,,,,,,,,,,,,,,,,,,,,,,,,,,,,,,,,,,,,,,,,,,,,,,,,,,,,,,,,,,,,,,,,1899.7283219000092,1899.7436636000057,1899.7436636000057,1900.2434603999718,1900.2434603999718,1902.7435677999747,1902.7435677999747,1902.7278734999709,None,1,,,,,,,nback38,001,2023-12-19_11h22.03.780,untitled,2023.2.3,60.01327493968806,2023-12-19 11h43.28.625539 -0500,
,"[-0.3, 0]",space,,,,,,,,,0,36,36,36,1902.7435677999747,,,,,,,,,,,,,,,,,,,,,,,,,,,,,,,,,,,,,,,,,,,,,,,,,,,,,,,,,,,,,,,,,1902.7286259999964,1902.7435677999747,1902.7435677999747,1903.2435870000045,1903.2435870000045,1905.7436055999715,1905.7436055999715,1905.7280435999855,space,1,0.5326236999826506,None,,,,,nback38,001,2023-12-19_11h22.03.780,untitled,2023.2.3,60.01327493968806,2023-12-19 11h43.28.625539 -0500,
,"[0, -0.2]",None,,,,,,,,,0,37,37,37,1905.7436055999715,,,,,,,,,,,,,,,,,,,,,,,,,,,,,,,,,,,,,,,,,,,,,,,,,,,,,,,,,,,,,,,,,1905.7289896999719,1905.7436055999715,1905.7436055999715,1906.2435492000077,1906.2435492000077,1908.743207099964,1908.743207099964,1908.7273038999992,None,1,,,,,,,nback38,001,2023-12-19_11h22.03.780,untitled,2023.2.3,60.01327493968806,2023-12-19 11h43.28.625539 -0500,
,"[0.3, 0]",None,,,,,,,,,0,38,38,38,1908.743207099964,,,,,,,,,,,,,,,,,,,,,,,,,,,,,,,,,,,,,,,,,,,,,,,,,,,,,,,,,,,,,,,,,1908.7278033000184,1908.743207099964,1908.743207099964,1909.2434323999914,1909.2434323999914,1911.7434927999857,1911.7434927999857,1911.7272521000123,space,0,0.32647289999295026,None,,,,,nback38,001,2023-12-19_11h22.03.780,untitled,2023.2.3,60.01327493968806,2023-12-19 11h43.28.625539 -0500,
,"[0.2, 0.1]",None,,,,,,,,,0,39,39,39,1911.7434927999857,,,,,,,,,,,,,,,,,,,,,,,,,,,,,,,,,,,,,,,,,,,,,,,,,,,,,,,,,,,,,,,,,1911.7279197999742,1911.7434927999857,1911.7434927999857,1912.2433355000103,1912.2433355000103,1914.7433741000132,1914.7433741000132,1914.7277769999928,None,1,,,,,,,nback38,001,2023-12-19_11h22.03.780,untitled,2023.2.3,60.01327493968806,2023-12-19 11h43.28.625539 -0500,
,,,,,,,,,,,,,,,,,,,,,,,,,,,,,,,,,,,,,,,,,,,,,,,,,,,,,,,,,,,,,,,,,,,,,,,,,,,,,,,,,,,,,,,,,,,,1914.7283515000017,1914.7433741000132,1917.743234900001,1917.7273985999636,,,,,,,,
