square,location,corrAns,trials_0.thisRepN,trials_0.thisTrialN,trials_0.thisN,trials_0.thisIndex,trials_1.thisRepN,trials_1.thisTrialN,trials_1.thisN,trials_1.thisIndex,trials_2.thisRepN,trials_2.thisTrialN,trials_2.thisN,trials_2.thisIndex,thisRow.t,notes,Instructions.started,instructions.started,key_resp.started,inst_sq11.started,Instructions.stopped,key_resp.keys,key_resp.rt,key_resp.duration,All.started,sq_1.started,sq_2.started,sq_3.started,sq_4.started,sq_5.started,sq_6.started,sq_7.started,sq_8.started,sq_9.started,sq_10.started,sq_11.started,sq_12.started,All.stopped,Fixation.started,fixation_3.started,fixation_3.stopped,Fixation.stopped,N_back_0_Trial.started,target_square_0.started,response_0.started,fixation_0.started,target_square_0.stopped,fixation_0.stopped,N_back_0_Trial.stopped,response_0.keys,response_0.corr,response_0.rt,response_0.duration,Instructions_1.started,instructions_1.started,key_resp_1.started,Instructions_1.stopped,key_resp_1.keys,key_resp_1.rt,key_resp_1.duration,N_back_1_Trial.started,target_square_1.started,response_1.started,fixation_1.started,target_square_1.stopped,fixation_1.stopped,N_back_1_Trial.stopped,response_1.keys,response_1.corr,response_1.rt,response_1.duration,Instructions_2.started,instructions_2.started,key_resp_2.started,Instructions_2.stopped,key_resp_2.keys,key_resp_2.rt,key_resp_2.duration,N_back_2_trials.started,target_square_2.started,response_2.started,fixation_2.started,target_square_2.stopped,fixation_2.stopped,N_back_2_trials.stopped,response_2.keys,response_2.corr,response_2.rt,response_2.duration,End.started,thank_you.started,End.stopped,participant,session,date,expName,psychopyVersion,frameRate,expStart,Unnamed: 100
,,,,,,,,,,,,,,,,,0.0013829000527039,0.0037592999869957,0.0037592999869957,0.0037592999869957,2456.0932807000354,space,2456.0729149000254,None,,,,,,,,,,,,,,,,,,,,,,,,,,,,,,,,,,,,,,,,,,,,,,,,,,,,,,,,,,,,,,,,,,,,,nback15,1.0,2023-12-11_14h03.28.052,untitled,2023.2.3,59.984835829765245,2023-12-11 14h03.43.173533 -0500,
6.0,"[-0.3, 0]",None,0.0,0.0,0.0,0.0,,,,,,,,,2458.11282889999,,,,,,,,,,2456.093328200048,2456.108208699967,2456.108208699967,2456.108208699967,2456.108208699967,2456.108208699967,2456.108208699967,2456.108208699967,2456.108208699967,2456.108208699967,2456.108208699967,2456.108208699967,2456.108208699967,2457.0918616000563,2457.091874100035,2457.108135599992,2458.11282889999,2458.0923856999725,2458.111002900056,2458.11282889999,2458.11282889999,2458.5916430000216,2458.6249904000438,2461.091484399978,2461.108645900036,None,1.0,,,,,,,,,,,,,,,,,,,,,,,,,,,,,,,,,,,,,,,,,,nback15,1.0,2023-12-11_14h03.28.052,untitled,2023.2.3,59.984835829765245,2023-12-11 14h03.43.173533 -0500,
10.0,"[0, -0.2]",None,0.0,1.0,1.0,1.0,,,,,,,,,2461.1249899000395,,,,,,,,,,,,,,,,,,,,,,,,,,,,2461.1097689999733,2461.1249899000395,2461.1249899000395,2461.591488700011,2461.6250265999697,2464.091444800026,2464.10830610001,None,1.0,,,,,,,,,,,,,,,,,,,,,,,,,,,,,,,,,,,,,,,,,,nback15,1.0,2023-12-11_14h03.28.052,untitled,2023.2.3,59.984835829765245,2023-12-11 14h03.43.173533 -0500,
11.0,"[-0.64, -0.4]",space,0.0,2.0,2.0,2.0,,,,,,,,,2464.124899300048,,,,,,,,,,,,,,,,,,,,,,,,,,,,2464.1090521999868,2464.124899300048,2464.124899300048,2464.5914994999766,2464.6248920999933,2467.091335600009,2467.10840919998,None,0.0,,,,,,,,,,,,,,,,,,,,,,,,,,,,,,,,,,,,,,,,,,nback15,1.0,2023-12-11_14h03.28.052,untitled,2023.2.3,59.984835829765245,2023-12-11 14h03.43.173533 -0500,
12.0,"[0.64, -0.4]",None,0.0,3.0,3.0,3.0,,,,,,,,,2467.124781099963,,,,,,,,,,,,,,,,,,,,,,,,,,,,2467.1092133000493,2467.124781099963,2467.124781099963,2467.5914517999627,2467.624935299973,2470.091492400039,2470.1081700000213,None,1.0,,,,,,,,,,,,,,,,,,,,,,,,,,,,,,,,,,,,,,,,,,nback15,1.0,2023-12-11_14h03.28.052,untitled,2023.2.3,59.984835829765245,2023-12-11 14h03.43.173533 -0500,
1.0,"[-0.64, 0.4]",None,0.0,4.0,4.0,4.0,,,,,,,,,2470.124901100062,,,,,,,,,,,,,,,,,,,,,,,,,,,,2470.10889839998,2470.124901100062,2470.124901100062,2470.591429400025,2470.6249017000664,2473.0912749000126,2473.1082236999646,None,1.0,,,,,,,,,,,,,,,,,,,,,,,,,,,,,,,,,,,,,,,,,,nback15,1.0,2023-12-11_14h03.28.052,untitled,2023.2.3,59.984835829765245,2023-12-11 14h03.43.173533 -0500,
1.0,"[-0.64, 0.4]",None,0.0,5.0,5.0,5.0,,,,,,,,,2473.1247040999588,,,,,,,,,,,,,,,,,,,,,,,,,,,,2473.108904600027,2473.1247040999588,2473.1247040999588,2473.591316599981,2473.6248148999875,2476.091441700002,2476.108409599983,None,1.0,,,,,,,,,,,,,,,,,,,,,,,,,,,,,,,,,,,,,,,,,,nback15,1.0,2023-12-11_14h03.28.052,untitled,2023.2.3,59.984835829765245,2023-12-11 14h03.43.173533 -0500,
4.0,"[-0.2, 0.1]",None,0.0,6.0,6.0,6.0,,,,,,,,,2476.1246658000164,,,,,,,,,,,,,,,,,,,,,,,,,,,,2476.1092286000494,2476.1246658000164,2476.1246658000164,2476.591239899979,2476.624709399999,2479.091262800037,2479.108202100033,None,1.0,,,,,,,,,,,,,,,,,,,,,,,,,,,,,,,,,,,,,,,,,,nback15,1.0,2023-12-11_14h03.28.052,untitled,2023.2.3,59.984835829765245,2023-12-11 14h03.43.173533 -0500,
5.0,"[0.2, 0.1]",None,0.0,7.0,7.0,7.0,,,,,,,,,2479.12484579999,,,,,,,,,,,,,,,,,,,,,,,,,,,,2479.109021399985,2479.12484579999,2479.12484579999,2479.591210399987,2479.624586299993,2482.0911458999617,2482.1080799000338,None,1.0,,,,,,,,,,,,,,,,,,,,,,,,,,,,,,,,,,,,,,,,,,nback15,1.0,2023-12-11_14h03.28.052,untitled,2023.2.3,59.984835829765245,2023-12-11 14h03.43.173533 -0500,
11.0,"[-0.64, -0.4]",space,0.0,8.0,8.0,8.0,,,,,,,,,2482.124538299977,,,,,,,,,,,,,,,,,,,,,,,,,,,,2482.1088166000554,2482.124538299977,2482.124538299977,2482.591177699971,2482.624398099957,2485.091231000028,2485.10805010004,space,1.0,0.4649179000407457,None,,,,,,,,,,,,,,,,,,,,,,,,,,,,,,,,,,,,,,,,nback15,1.0,2023-12-11_14h03.28.052,untitled,2023.2.3,59.984835829765245,2023-12-11 14h03.43.173533 -0500,
9.0,"[0.2, -0.1]",None,0.0,9.0,9.0,9.0,,,,,,,,,2485.1245685999747,,,,,,,,,,,,,,,,,,,,,,,,,,,,2485.109162900015,2485.1245685999747,2485.1245685999747,2485.5909106000327,2485.6244373000227,2488.0908855999587,2488.108048300026,None,1.0,,,,,,,,,,,,,,,,,,,,,,,,,,,,,,,,,,,,,,,,,,nback15,1.0,2023-12-11_14h03.28.052,untitled,2023.2.3,59.984835829765245,2023-12-11 14h03.43.173533 -0500,
8.0,"[-0.2, -0.1]",None,0.0,10.0,10.0,10.0,,,,,,,,,2488.124613299966,,,,,,,,,,,,,,,,,,,,,,,,,,,,2488.108786300057,2488.124613299966,2488.124613299966,2488.59111290006,2488.6243689999683,2491.0910382999573,2491.1078325000126,None,1.0,,,,,,,,,,,,,,,,,,,,,,,,,,,,,,,,,,,,,,,,,,nback15,1.0,2023-12-11_14h03.28.052,untitled,2023.2.3,59.984835829765245,2023-12-11 14h03.43.173533 -0500,
9.0,"[0.2, -0.1]",None,0.0,11.0,11.0,11.0,,,,,,,,,2491.12433520006,,,,,,,,,,,,,,,,,,,,,,,,,,,,2491.108520800015,2491.12433520006,2491.12433520006,2491.5912328000413,2491.6244415000547,2494.090928800055,2494.1077494999627,None,1.0,,,,,,,,,,,,,,,,,,,,,,,,,,,,,,,,,,,,,,,,,,nback15,1.0,2023-12-11_14h03.28.052,untitled,2023.2.3,59.984835829765245,2023-12-11 14h03.43.173533 -0500,
6.0,"[-0.3, 0]",None,0.0,12.0,12.0,12.0,,,,,,,,,2494.1243309000274,,,,,,,,,,,,,,,,,,,,,,,,,,,,2494.108136499999,2494.1243309000274,2494.1243309000274,2494.591122800018,2494.62439630006,2497.0908736999845,2497.1076613999903,None,1.0,,,,,,,,,,,,,,,,,,,,,,,,,,,,,,,,,,,,,,,,,,nback15,1.0,2023-12-11_14h03.28.052,untitled,2023.2.3,59.984835829765245,2023-12-11 14h03.43.173533 -0500,
9.0,"[0.2, -0.1]",None,0.0,13.0,13.0,13.0,,,,,,,,,2497.124300800031,,,,,,,,,,,,,,,,,,,,,,,,,,,,2497.108278700034,2497.124300800031,2497.124300800031,2497.5911193999927,2497.6243022000417,2500.0908961000387,2500.107864700025,None,1.0,,,,,,,,,,,,,,,,,,,,,,,,,,,,,,,,,,,,,,,,,,nback15,1.0,2023-12-11_14h03.28.052,untitled,2023.2.3,59.984835829765245,2023-12-11 14h03.43.173533 -0500,
7.0,"[0.3, 0]",None,0.0,14.0,14.0,14.0,,,,,,,,,2500.124231899972,,,,,,,,,,,,,,,,,,,,,,,,,,,,2500.108656299999,2500.124231899972,2500.124231899972,2500.590782399988,2500.624198699952,2503.0909200999886,2503.1077750000404,None,1.0,,,,,,,,,,,,,,,,,,,,,,,,,,,,,,,,,,,,,,,,,,nback15,1.0,2023-12-11_14h03.28.052,untitled,2023.2.3,59.984835829765245,2023-12-11 14h03.43.173533 -0500,
2.0,"[0.64, 0.4]",None,0.0,15.0,15.0,15.0,,,,,,,,,2503.124278699979,,,,,,,,,,,,,,,,,,,,,,,,,,,,2503.1086412000004,2503.124278699979,2503.124278699979,2503.5910461000167,2503.624159400002,2506.0908554999623,2506.1077392000007,None,1.0,,,,,,,,,,,,,,,,,,,,,,,,,,,,,,,,,,,,,,,,,,nback15,1.0,2023-12-11_14h03.28.052,untitled,2023.2.3,59.984835829765245,2023-12-11 14h03.43.173533 -0500,
2.0,"[0.64, 0.4]",None,0.0,16.0,16.0,16.0,,,,,,,,,2506.124200799968,,,,,,,,,,,,,,,,,,,,,,,,,,,,2506.1085461999755,2506.124200799968,2506.124200799968,2506.6073791000526,2506.6240860000253,2509.107469700044,2509.107913100044,None,1.0,,,,,,,,,,,,,,,,,,,,,,,,,,,,,,,,,,,,,,,,,,nback15,1.0,2023-12-11_14h03.28.052,untitled,2023.2.3,59.984835829765245,2023-12-11 14h03.43.173533 -0500,
11.0,"[-0.64, -0.4]",space,0.0,17.0,17.0,17.0,,,,,,,,,2509.1241489000386,,,,,,,,,,,,,,,,,,,,,,,,,,,,2509.1086961999536,2509.1241489000386,2509.1241489000386,2509.590717999963,2509.6239956000354,2512.0905260000145,2512.107603500015,space,1.0,0.3903268999420106,None,,,,,,,,,,,,,,,,,,,,,,,,,,,,,,,,,,,,,,,,nback15,1.0,2023-12-11_14h03.28.052,untitled,2023.2.3,59.984835829765245,2023-12-11 14h03.43.173533 -0500,
11.0,"[-0.64, -0.4]",space,0.0,18.0,18.0,18.0,,,,,,,,,2512.1240015999647,,,,,,,,,,,,,,,,,,,,,,,,,,,,2512.108394099981,2512.1240015999647,2512.1240015999647,2512.607328700018,2512.6239675000543,2515.1074048000155,2515.107605300029,space,1.0,0.4636191000463441,None,,,,,,,,,,,,,,,,,,,,,,,,,,,,,,,,,,,,,,,,nback15,1.0,2023-12-11_14h03.28.052,untitled,2023.2.3,59.984835829765245,2023-12-11 14h03.43.173533 -0500,
7.0,"[0.3, 0]",None,0.0,19.0,19.0,19.0,,,,,,,,,2515.12390919996,,,,,,,,,,,,,,,,,,,,,,,,,,,,2515.108643200016,2515.12390919996,2515.12390919996,2515.6071875999914,2515.6239236999536,2518.1074462999823,2518.107642599964,None,1.0,,,,,,,,,,,,,,,,,,,,,,,,,,,,,,,,,,,,,,,,,,nback15,1.0,2023-12-11_14h03.28.052,untitled,2023.2.3,59.984835829765245,2023-12-11 14h03.43.173533 -0500,
3.0,"[0, 0.2]",None,0.0,20.0,20.0,20.0,,,,,,,,,2518.1239875999745,,,,,,,,,,,,,,,,,,,,,,,,,,,,2518.1084289000137,2518.1239875999745,2518.1239875999745,2518.607269900036,2518.624024400022,2521.1073996999767,2521.107610399951,None,1.0,,,,,,,,,,,,,,,,,,,,,,,,,,,,,,,,,,,,,,,,,,nback15,1.0,2023-12-11_14h03.28.052,untitled,2023.2.3,59.984835829765245,2023-12-11 14h03.43.173533 -0500,
10.0,"[0, -0.2]",None,0.0,21.0,21.0,21.0,,,,,,,,,2521.1239420999773,,,,,,,,,,,,,,,,,,,,,,,,,,,,2521.108434600057,2521.1239420999773,2521.1239420999773,2521.6072847000323,2521.623866499984,2524.1072961000027,2524.107487200061,None,1.0,,,,,,,,,,,,,,,,,,,,,,,,,,,,,,,,,,,,,,,,,,nback15,1.0,2023-12-11_14h03.28.052,untitled,2023.2.3,59.984835829765245,2023-12-11 14h03.43.173533 -0500,
1.0,"[-0.64, 0.4]",None,0.0,22.0,22.0,22.0,,,,,,,,,2524.1239679000573,,,,,,,,,,,,,,,,,,,,,,,,,,,,2524.108283799957,2524.1239679000573,2524.1239679000573,2524.607000399963,2524.623823800008,2527.1071429000003,2527.107311,None,1.0,,,,,,,,,,,,,,,,,,,,,,,,,,,,,,,,,,,,,,,,,,nback15,1.0,2023-12-11_14h03.28.052,untitled,2023.2.3,59.984835829765245,2023-12-11 14h03.43.173533 -0500,
2.0,"[0.64, 0.4]",None,0.0,23.0,23.0,23.0,,,,,,,,,2527.123791799997,,,,,,,,,,,,,,,,,,,,,,,,,,,,2527.1080992000643,2527.123791799997,2527.123791799997,2527.6069759000093,2527.6238133000443,2530.1070994000183,2530.1072843000293,None,1.0,,,,,,,,,,,,,,,,,,,,,,,,,,,,,,,,,,,,,,,,,,nback15,1.0,2023-12-11_14h03.28.052,untitled,2023.2.3,59.984835829765245,2023-12-11 14h03.43.173533 -0500,
6.0,"[-0.3, 0]",None,0.0,24.0,24.0,24.0,,,,,,,,,2530.123764000018,,,,,,,,,,,,,,,,,,,,,,,,,,,,2530.108001000015,2530.123764000018,2530.123764000018,2530.607114400016,2530.623723900062,2533.107028300059,2533.1072041000007,None,1.0,,,,,,,,,,,,,,,,,,,,,,,,,,,,,,,,,,,,,,,,,,nback15,1.0,2023-12-11_14h03.28.052,untitled,2023.2.3,59.984835829765245,2023-12-11 14h03.43.173533 -0500,
3.0,"[0, 0.2]",None,0.0,25.0,25.0,25.0,,,,,,,,,2533.123707300052,,,,,,,,,,,,,,,,,,,,,,,,,,,,2533.1079032999696,2533.123707300052,2533.123707300052,2533.606993000023,2533.623733300017,2536.106959500001,2536.107138099964,None,1.0,,,,,,,,,,,,,,,,,,,,,,,,,,,,,,,,,,,,,,,,,,nback15,1.0,2023-12-11_14h03.28.052,untitled,2023.2.3,59.984835829765245,2023-12-11 14h03.43.173533 -0500,
11.0,"[-0.64, -0.4]",space,0.0,26.0,26.0,26.0,,,,,,,,,2536.1235040000174,,,,,,,,,,,,,,,,,,,,,,,,,,,,2536.1078354000347,2536.1235040000174,2536.1235040000174,2536.6070606999565,2536.623731200001,2539.1070251000347,2539.10721190006,space,1.0,0.4187884000129998,None,,,,,,,,,,,,,,,,,,,,,,,,,,,,,,,,,,,,,,,,nback15,1.0,2023-12-11_14h03.28.052,untitled,2023.2.3,59.984835829765245,2023-12-11 14h03.43.173533 -0500,
1.0,"[-0.64, 0.4]",None,0.0,27.0,27.0,27.0,,,,,,,,,2539.123597900034,,,,,,,,,,,,,,,,,,,,,,,,,,,,2539.108086099965,2539.123597900034,2539.123597900034,2539.606915500015,2539.6235653000185,2542.1069682999514,2542.107148500043,None,1.0,,,,,,,,,,,,,,,,,,,,,,,,,,,,,,,,,,,,,,,,,,nback15,1.0,2023-12-11_14h03.28.052,untitled,2023.2.3,59.984835829765245,2023-12-11 14h03.43.173533 -0500,
3.0,"[0, 0.2]",None,0.0,28.0,28.0,28.0,,,,,,,,,2542.123571000062,,,,,,,,,,,,,,,,,,,,,,,,,,,,2542.1078308,2542.123571000062,2542.123571000062,2542.606760099996,2542.623667099979,2545.106900200015,2545.107057400048,None,1.0,,,,,,,,,,,,,,,,,,,,,,,,,,,,,,,,,,,,,,,,,,nback15,1.0,2023-12-11_14h03.28.052,untitled,2023.2.3,59.984835829765245,2023-12-11 14h03.43.173533 -0500,
9.0,"[0.2, -0.1]",None,0.0,29.0,29.0,29.0,,,,,,,,,2545.123436899972,,,,,,,,,,,,,,,,,,,,,,,,,,,,2545.1076915999874,2545.123436899972,2545.123436899972,2545.6067009000108,2545.623354500043,2548.106867099996,2548.107058500056,None,1.0,,,,,,,,,,,,,,,,,,,,,,,,,,,,,,,,,,,,,,,,,,nback15,1.0,2023-12-11_14h03.28.052,untitled,2023.2.3,59.984835829765245,2023-12-11 14h03.43.173533 -0500,
8.0,"[-0.2, -0.1]",None,0.0,30.0,30.0,30.0,,,,,,,,,2548.123557499959,,,,,,,,,,,,,,,,,,,,,,,,,,,,2548.107791000046,2548.123557499959,2548.123557499959,2548.6067359000444,2548.623513799976,2551.1066546000075,2551.1068236000137,None,1.0,,,,,,,,,,,,,,,,,,,,,,,,,,,,,,,,,,,,,,,,,,nback15,1.0,2023-12-11_14h03.28.052,untitled,2023.2.3,59.984835829765245,2023-12-11 14h03.43.173533 -0500,
12.0,"[0.64, -0.4]",None,0.0,31.0,31.0,31.0,,,,,,,,,2551.123326500063,,,,,,,,,,,,,,,,,,,,,,,,,,,,2551.10749710002,2551.123326500063,2551.123326500063,2551.606798000052,2551.6234866000013,2554.106524300063,2554.106683799997,None,1.0,,,,,,,,,,,,,,,,,,,,,,,,,,,,,,,,,,,,,,,,,,nback15,1.0,2023-12-11_14h03.28.052,untitled,2023.2.3,59.984835829765245,2023-12-11 14h03.43.173533 -0500,
9.0,"[0.2, -0.1]",None,0.0,32.0,32.0,32.0,,,,,,,,,2554.12321650004,,,,,,,,,,,,,,,,,,,,,,,,,,,,2554.107282700017,2554.12321650004,2554.12321650004,2554.6065547000617,2554.623329299968,2557.1066311000613,2557.106816799962,None,1.0,,,,,,,,,,,,,,,,,,,,,,,,,,,,,,,,,,,,,,,,,,nback15,1.0,2023-12-11_14h03.28.052,untitled,2023.2.3,59.984835829765245,2023-12-11 14h03.43.173533 -0500,
11.0,"[-0.64, -0.4]",space,0.0,33.0,33.0,33.0,,,,,,,,,2557.123437399976,,,,,,,,,,,,,,,,,,,,,,,,,,,,2557.107602700009,2557.123437399976,2557.123437399976,2557.6065034000203,2557.623385200044,2560.10660379997,2560.1067990000597,space,1.0,0.3013866000110283,None,,,,,,,,,,,,,,,,,,,,,,,,,,,,,,,,,,,,,,,,nback15,1.0,2023-12-11_14h03.28.052,untitled,2023.2.3,59.984835829765245,2023-12-11 14h03.43.173533 -0500,
7.0,"[0.3, 0]",None,0.0,34.0,34.0,34.0,,,,,,,,,2560.1232727000024,,,,,,,,,,,,,,,,,,,,,,,,,,,,2560.1077157000545,2560.1232727000024,2560.1232727000024,2560.606586799957,2560.6232424000045,2563.1066468000645,2563.1068457000656,None,1.0,,,,,,,,,,,,,,,,,,,,,,,,,,,,,,,,,,,,,,,,,,nback15,1.0,2023-12-11_14h03.28.052,untitled,2023.2.3,59.984835829765245,2023-12-11 14h03.43.173533 -0500,
11.0,"[-0.64, -0.4]",space,0.0,35.0,35.0,35.0,,,,,,,,,2563.1233186000027,,,,,,,,,,,,,,,,,,,,,,,,,,,,2563.1076433999697,2563.1233186000027,2563.1233186000027,2563.606588699972,2563.6231736000627,2566.106527899974,2566.106701200013,space,1.0,0.4985390000510961,None,,,,,,,,,,,,,,,,,,,,,,,,,,,,,,,,,,,,,,,,nback15,1.0,2023-12-11_14h03.28.052,untitled,2023.2.3,59.984835829765245,2023-12-11 14h03.43.173533 -0500,
4.0,"[-0.2, 0.1]",None,0.0,36.0,36.0,36.0,,,,,,,,,2566.123189000064,,,,,,,,,,,,,,,,,,,,,,,,,,,,2566.107473099953,2566.123189000064,2566.123189000064,2566.60635440005,2566.623058199999,2569.1065020000096,2569.1066899000434,None,1.0,,,,,,,,,,,,,,,,,,,,,,,,,,,,,,,,,,,,,,,,,,nback15,1.0,2023-12-11_14h03.28.052,untitled,2023.2.3,59.984835829765245,2023-12-11 14h03.43.173533 -0500,
5.0,"[0.2, 0.1]",None,0.0,37.0,37.0,37.0,,,,,,,,,2569.123251199955,,,,,,,,,,,,,,,,,,,,,,,,,,,,2569.1074337000027,2569.123251199955,2569.123251199955,2569.606191799976,2569.622992299963,2572.106446900056,2572.106622499996,None,1.0,,,,,,,,,,,,,,,,,,,,,,,,,,,,,,,,,,,,,,,,,,nback15,1.0,2023-12-11_14h03.28.052,untitled,2023.2.3,59.984835829765245,2023-12-11 14h03.43.173533 -0500,
6.0,"[-0.3, 0]",None,0.0,38.0,38.0,38.0,,,,,,,,,2572.123072599992,,,,,,,,,,,,,,,,,,,,,,,,,,,,2572.1073045000667,2572.123072599992,2572.123072599992,2572.606309100054,2572.6229066000087,2575.1064214999788,2575.106631400064,None,1.0,,,,,,,,,,,,,,,,,,,,,,,,,,,,,,,,,,,,,,,,,,nback15,1.0,2023-12-11_14h03.28.052,untitled,2023.2.3,59.984835829765245,2023-12-11 14h03.43.173533 -0500,
11.0,"[-0.64, -0.4]",space,0.0,39.0,39.0,39.0,,,,,,,,,2575.123040099977,,,,,,,,,,,,,,,,,,,,,,,,,,,,2575.1074400000507,2575.123040099977,2575.123040099977,2575.606197300018,2575.6229883000487,2578.106431500055,2578.1066507999785,space,1.0,0.3721066999714821,None,,,,,,,,,,,,,,,,,,,,,,,,,,,,,,,,,,,,,,,,nback15,1.0,2023-12-11_14h03.28.052,untitled,2023.2.3,59.984835829765245,2023-12-11 14h03.43.173533 -0500,
,,,,,,,,,,,,,,,,,,,,,,,,,,,,,,,,,,,,,,,,,,,,,,,,,,,,,,2578.107371099992,2578.1228841999546,2578.1228841999546,2609.5913022999885,space,31.46671419998165,None,,,,,,,,,,,,,,,,,,,,,,,,,,,,,,,,,nback15,1.0,2023-12-11_14h03.28.052,untitled,2023.2.3,59.984835829765245,2023-12-11 14h03.43.173533 -0500,
10.0,"[0, -0.2]",None,,,,,0.0,0.0,0.0,0.0,,,,,2610.606767100049,,,,,,,,,,,,,,,,,,,,,,,,2609.591358899954,2609.605826399988,2610.606767100049,2610.589434899972,,,,,,,,,,,,,,,,,,,2610.60497970006,2610.606767100049,2610.606767100049,2611.1057905000634,2611.1224149999907,2613.60582060006,2613.606049400056,None,1.0,,,,,,,,,,,,,,,,,,,,,,,,nback15,1.0,2023-12-11_14h03.28.052,untitled,2023.2.3,59.984835829765245,2023-12-11 14h03.43.173533 -0500,
5.0,"[0.2, 0.1]",None,,,,,0.0,1.0,1.0,1.0,,,,,2613.622269400046,,,,,,,,,,,,,,,,,,,,,,,,,,,,,,,,,,,,,,,,,,,,,,2613.60704370006,2613.622269400046,2613.622269400046,2614.1057572000427,2614.122209200053,2616.605461600004,2616.6056154000107,None,1.0,,,,,,,,,,,,,,,,,,,,,,,,nback15,1.0,2023-12-11_14h03.28.052,untitled,2023.2.3,59.984835829765245,2023-12-11 14h03.43.173533 -0500,
6.0,"[-0.3, 0]",None,,,,,0.0,2.0,2.0,2.0,,,,,2616.6221871000016,,,,,,,,,,,,,,,,,,,,,,,,,,,,,,,,,,,,,,,,,,,,,,2616.606214000029,2616.6221871000016,2616.6221871000016,2617.105692300014,2617.1223951999564,2619.605572300032,2619.605788100045,None,1.0,,,,,,,,,,,,,,,,,,,,,,,,nback15,1.0,2023-12-11_14h03.28.052,untitled,2023.2.3,59.984835829765245,2023-12-11 14h03.43.173533 -0500,
6.0,"[-0.3, 0]",space,,,,,0.0,3.0,3.0,3.0,,,,,2619.6221607000334,,,,,,,,,,,,,,,,,,,,,,,,,,,,,,,,,,,,,,,,,,,,,,2619.606564000016,2619.6221607000334,2619.6221607000334,2620.1056371000595,2620.122079199995,2622.6055545000127,2622.605743100052,space,1.0,0.3204385000281036,None,,,,,,,,,,,,,,,,,,,,,,nback15,1.0,2023-12-11_14h03.28.052,untitled,2023.2.3,59.984835829765245,2023-12-11 14h03.43.173533 -0500,
12.0,"[0.64, -0.4]",None,,,,,0.0,4.0,4.0,4.0,,,,,2622.622136699967,,,,,,,,,,,,,,,,,,,,,,,,,,,,,,,,,,,,,,,,,,,,,,2622.6068574000383,2622.622136699967,2622.622136699967,2623.105587900034,2623.122353899991,2625.605368999997,2625.605508700013,None,1.0,,,,,,,,,,,,,,,,,,,,,,,,nback15,1.0,2023-12-11_14h03.28.052,untitled,2023.2.3,59.984835829765245,2023-12-11 14h03.43.173533 -0500,
10.0,"[0, -0.2]",None,,,,,0.0,5.0,5.0,5.0,,,,,2625.621953199967,,,,,,,,,,,,,,,,,,,,,,,,,,,,,,,,,,,,,,,,,,,,,,2625.60598350002,2625.621953199967,2625.621953199967,2626.1054391000653,2626.1220294999657,2628.6056196000427,2628.6058195000514,None,1.0,,,,,,,,,,,,,,,,,,,,,,,,nback15,1.0,2023-12-11_14h03.28.052,untitled,2023.2.3,59.984835829765245,2023-12-11 14h03.43.173533 -0500,
2.0,"[0.64, 0.4]",None,,,,,0.0,6.0,6.0,6.0,,,,,2628.6221691999817,,,,,,,,,,,,,,,,,,,,,,,,,,,,,,,,,,,,,,,,,,,,,,2628.6066148000536,2628.6221691999817,2628.6221691999817,2629.105458999984,2629.122180400067,2631.605352899991,2631.605518599972,None,1.0,,,,,,,,,,,,,,,,,,,,,,,,nback15,1.0,2023-12-11_14h03.28.052,untitled,2023.2.3,59.984835829765245,2023-12-11 14h03.43.173533 -0500,
9.0,"[0.2, -0.1]",None,,,,,0.0,7.0,7.0,7.0,,,,,2631.622008500038,,,,,,,,,,,,,,,,,,,,,,,,,,,,,,,,,,,,,,,,,,,,,,2631.6063440999715,2631.622008500038,2631.622008500038,2632.1054046000354,2632.1221206999617,2634.6054191000294,2634.6056291999994,None,1.0,,,,,,,,,,,,,,,,,,,,,,,,nback15,1.0,2023-12-11_14h03.28.052,untitled,2023.2.3,59.984835829765245,2023-12-11 14h03.43.173533 -0500,
9.0,"[0.2, -0.1]",space,,,,,0.0,8.0,8.0,8.0,,,,,2634.6221105000004,,,,,,,,,,,,,,,,,,,,,,,,,,,,,,,,,,,,,,,,,,,,,,2634.6064594000345,2634.6221105000004,2634.6221105000004,2635.1054476000136,2635.1219067999627,2637.60522040003,2637.605413299985,space,1.0,0.7909249999793246,None,,,,,,,,,,,,,,,,,,,,,,nback15,1.0,2023-12-11_14h03.28.052,untitled,2023.2.3,59.984835829765245,2023-12-11 14h03.43.173533 -0500,
6.0,"[-0.3, 0]",None,,,,,0.0,9.0,9.0,9.0,,,,,2637.6218200000003,,,,,,,,,,,,,,,,,,,,,,,,,,,,,,,,,,,,,,,,,,,,,,2637.6063247000566,2637.6218200000003,2637.6218200000003,2638.105417200015,2638.121927500004,2640.6052963000257,2640.6054920000024,None,1.0,,,,,,,,,,,,,,,,,,,,,,,,nback15,1.0,2023-12-11_14h03.28.052,untitled,2023.2.3,59.984835829765245,2023-12-11 14h03.43.173533 -0500,
11.0,"[-0.64, -0.4]",None,,,,,0.0,10.0,10.0,10.0,,,,,2640.6220549000427,,,,,,,,,,,,,,,,,,,,,,,,,,,,,,,,,,,,,,,,,,,,,,2640.606263200054,2640.6220549000427,2640.6220549000427,2641.105527000036,2641.1219460000284,2643.605081000016,2643.6052500000224,None,1.0,,,,,,,,,,,,,,,,,,,,,,,,nback15,1.0,2023-12-11_14h03.28.052,untitled,2023.2.3,59.984835829765245,2023-12-11 14h03.43.173533 -0500,
11.0,"[-0.64, -0.4]",space,,,,,0.0,11.0,11.0,11.0,,,,,2643.6216848000186,,,,,,,,,,,,,,,,,,,,,,,,,,,,,,,,,,,,,,,,,,,,,,2643.605932899984,2643.6216848000186,2643.6216848000186,2644.1051248000003,2644.1219403999858,2646.6052730999654,2646.6054727999726,space,1.0,0.334023299976252,None,,,,,,,,,,,,,,,,,,,,,,nback15,1.0,2023-12-11_14h03.28.052,untitled,2023.2.3,59.984835829765245,2023-12-11 14h03.43.173533 -0500,
4.0,"[-0.2, 0.1]",None,,,,,0.0,12.0,12.0,12.0,,,,,2646.6218403000385,,,,,,,,,,,,,,,,,,,,,,,,,,,,,,,,,,,,,,,,,,,,,,2646.606388999964,2646.6218403000385,2646.6218403000385,2647.1053284000373,2647.1217454000143,2649.6051661999663,2649.605341100017,None,1.0,,,,,,,,,,,,,,,,,,,,,,,,nback15,1.0,2023-12-11_14h03.28.052,untitled,2023.2.3,59.984835829765245,2023-12-11 14h03.43.173533 -0500,
3.0,"[0, 0.2]",None,,,,,0.0,13.0,13.0,13.0,,,,,2649.621761100017,,,,,,,,,,,,,,,,,,,,,,,,,,,,,,,,,,,,,,,,,,,,,,2649.606051699957,2649.621761100017,2649.621761100017,2650.1049653999507,2650.1217189000454,2652.6051161000505,2652.6052963000257,None,1.0,,,,,,,,,,,,,,,,,,,,,,,,nback15,1.0,2023-12-11_14h03.28.052,untitled,2023.2.3,59.984835829765245,2023-12-11 14h03.43.173533 -0500,
3.0,"[0, 0.2]",space,,,,,0.0,14.0,14.0,14.0,,,,,2652.6215770000126,,,,,,,,,,,,,,,,,,,,,,,,,,,,,,,,,,,,,,,,,,,,,,2652.606029300019,2652.6215770000126,2652.6215770000126,2653.105086900061,2653.1218454999616,2655.604947700049,2655.605119999964,space,1.0,0.313567699980922,None,,,,,,,,,,,,,,,,,,,,,,nback15,1.0,2023-12-11_14h03.28.052,untitled,2023.2.3,59.984835829765245,2023-12-11 14h03.43.173533 -0500,
8.0,"[-0.2, -0.1]",None,,,,,0.0,15.0,15.0,15.0,,,,,2655.621586399968,,,,,,,,,,,,,,,,,,,,,,,,,,,,,,,,,,,,,,,,,,,,,,2655.605964199989,2655.621586399968,2655.621586399968,2656.10480239999,2656.121811700053,2658.604772299994,2658.6049249999924,None,1.0,,,,,,,,,,,,,,,,,,,,,,,,nback15,1.0,2023-12-11_14h03.28.052,untitled,2023.2.3,59.984835829765245,2023-12-11 14h03.43.173533 -0500,
1.0,"[-0.64, 0.4]",None,,,,,0.0,16.0,16.0,16.0,,,,,2658.6216631999705,,,,,,,,,,,,,,,,,,,,,,,,,,,,,,,,,,,,,,,,,,,,,,2658.6055052999877,2658.6216631999705,2658.6216631999705,2659.105108799995,2659.1216845000163,2661.604973600013,2661.605171700008,None,1.0,,,,,,,,,,,,,,,,,,,,,,,,nback15,1.0,2023-12-11_14h03.28.052,untitled,2023.2.3,59.984835829765245,2023-12-11 14h03.43.173533 -0500,
2.0,"[0.64, 0.4]",None,,,,,0.0,17.0,17.0,17.0,,,,,2661.621549600037,,,,,,,,,,,,,,,,,,,,,,,,,,,,,,,,,,,,,,,,,,,,,,2661.605969800032,2661.621549600037,2661.621549600037,2662.1047733000014,2662.1216209999984,2664.604886300047,2664.6050761999795,None,1.0,,,,,,,,,,,,,,,,,,,,,,,,nback15,1.0,2023-12-11_14h03.28.052,untitled,2023.2.3,59.984835829765245,2023-12-11 14h03.43.173533 -0500,
4.0,"[-0.2, 0.1]",None,,,,,0.0,18.0,18.0,18.0,,,,,2664.621395000024,,,,,,,,,,,,,,,,,,,,,,,,,,,,,,,,,,,,,,,,,,,,,,2664.6058173000347,2664.621395000024,2664.621395000024,2665.104792500031,2665.1214195999783,2667.6048903999617,2667.605089599965,None,1.0,,,,,,,,,,,,,,,,,,,,,,,,nback15,1.0,2023-12-11_14h03.28.052,untitled,2023.2.3,59.984835829765245,2023-12-11 14h03.43.173533 -0500,
4.0,"[-0.2, 0.1]",space,,,,,0.0,19.0,19.0,19.0,,,,,2667.6215437999927,,,,,,,,,,,,,,,,,,,,,,,,,,,,,,,,,,,,,,,,,,,,,,2667.6059478999814,2667.6215437999927,2667.6215437999927,2668.10481249995,2668.1214130000444,2670.6046390000265,2670.604806800024,space,1.0,0.3038839000510052,None,,,,,,,,,,,,,,,,,,,,,,nback15,1.0,2023-12-11_14h03.28.052,untitled,2023.2.3,59.984835829765245,2023-12-11 14h03.43.173533 -0500,
8.0,"[-0.2, -0.1]",None,,,,,0.0,20.0,20.0,20.0,,,,,2670.621531700017,,,,,,,,,,,,,,,,,,,,,,,,,,,,,,,,,,,,,,,,,,,,,,2670.6057160999626,2670.621531700017,2670.621531700017,2671.1047080999706,2671.121420499985,2673.604864199995,2673.605081100017,None,1.0,,,,,,,,,,,,,,,,,,,,,,,,nback15,1.0,2023-12-11_14h03.28.052,untitled,2023.2.3,59.984835829765245,2023-12-11 14h03.43.173533 -0500,
5.0,"[0.2, 0.1]",None,,,,,0.0,21.0,21.0,21.0,,,,,2673.6213884999743,,,,,,,,,,,,,,,,,,,,,,,,,,,,,,,,,,,,,,,,,,,,,,2673.605940500041,2673.6213884999743,2673.6213884999743,2674.1043923000107,2674.121127099963,2676.604644200066,2676.604874999961,None,1.0,,,,,,,,,,,,,,,,,,,,,,,,nback15,1.0,2023-12-11_14h03.28.052,untitled,2023.2.3,59.984835829765245,2023-12-11 14h03.43.173533 -0500,
5.0,"[0.2, 0.1]",space,,,,,0.0,22.0,22.0,22.0,,,,,2676.62140189996,,,,,,,,,,,,,,,,,,,,,,,,,,,,,,,,,,,,,,,,,,,,,,2676.6055694000097,2676.62140189996,2676.62140189996,2677.104476199951,2677.1210473000538,2679.6046650999924,2679.604876699974,space,1.0,0.3947981999954209,None,,,,,,,,,,,,,,,,,,,,,,nback15,1.0,2023-12-11_14h03.28.052,untitled,2023.2.3,59.984835829765245,2023-12-11 14h03.43.173533 -0500,
1.0,"[-0.64, 0.4]",None,,,,,0.0,23.0,23.0,23.0,,,,,2679.6212520999834,,,,,,,,,,,,,,,,,,,,,,,,,,,,,,,,,,,,,,,,,,,,,,2679.605861400021,2679.6212520999834,2679.6212520999834,2680.104490700061,2680.121257800027,2682.6044890000485,2682.604663099977,None,1.0,,,,,,,,,,,,,,,,,,,,,,,,nback15,1.0,2023-12-11_14h03.28.052,untitled,2023.2.3,59.984835829765245,2023-12-11 14h03.43.173533 -0500,
3.0,"[0, 0.2]",None,,,,,0.0,24.0,24.0,24.0,,,,,2682.620948099997,,,,,,,,,,,,,,,,,,,,,,,,,,,,,,,,,,,,,,,,,,,,,,2682.6053450000472,2682.620948099997,2682.620948099997,2683.104573599994,2683.1210744000277,2685.604521600064,2685.604710099986,None,1.0,,,,,,,,,,,,,,,,,,,,,,,,nback15,1.0,2023-12-11_14h03.28.052,untitled,2023.2.3,59.984835829765245,2023-12-11 14h03.43.173533 -0500,
6.0,"[-0.3, 0]",None,,,,,0.0,25.0,25.0,25.0,,,,,2685.621332300012,,,,,,,,,,,,,,,,,,,,,,,,,,,,,,,,,,,,,,,,,,,,,,2685.605484400061,2685.621332300012,2685.621332300012,2686.104448499973,2686.121055900003,2688.604260600056,2688.6043952000327,None,1.0,,,,,,,,,,,,,,,,,,,,,,,,nback15,1.0,2023-12-11_14h03.28.052,untitled,2023.2.3,59.984835829765245,2023-12-11 14h03.43.173533 -0500,
1.0,"[-0.64, 0.4]",None,,,,,0.0,26.0,26.0,26.0,,,,,2688.620846900041,,,,,,,,,,,,,,,,,,,,,,,,,,,,,,,,,,,,,,,,,,,,,,2688.604886300047,2688.620846900041,2688.620846900041,2689.104253199999,2689.1211114999605,2691.6044056999963,2691.6045990999555,None,1.0,,,,,,,,,,,,,,,,,,,,,,,,nback15,1.0,2023-12-11_14h03.28.052,untitled,2023.2.3,59.984835829765245,2023-12-11 14h03.43.173533 -0500,
1.0,"[-0.64, 0.4]",space,,,,,0.0,27.0,27.0,27.0,,,,,2691.621068699984,,,,,,,,,,,,,,,,,,,,,,,,,,,,,,,,,,,,,,,,,,,,,,2691.605334999971,2691.621068699984,2691.621068699984,2692.104181700037,2692.120903800009,2694.604380100034,2694.604569899966,space,1.0,0.5003859999123961,None,,,,,,,,,,,,,,,,,,,,,,nback15,1.0,2023-12-11_14h03.28.052,untitled,2023.2.3,59.984835829765245,2023-12-11 14h03.43.173533 -0500,
1.0,"[-0.64, 0.4]",space,,,,,0.0,28.0,28.0,28.0,,,,,2694.620941900066,,,,,,,,,,,,,,,,,,,,,,,,,,,,,,,,,,,,,,,,,,,,,,2694.605478600017,2694.620941900066,2694.620941900066,2695.104236199986,2695.1208839999745,2697.6041931000077,2697.604367700056,space,1.0,0.771637300029397,None,,,,,,,,,,,,,,,,,,,,,,nback15,1.0,2023-12-11_14h03.28.052,untitled,2023.2.3,59.984835829765245,2023-12-11 14h03.43.173533 -0500,
3.0,"[0, 0.2]",None,,,,,0.0,29.0,29.0,29.0,,,,,2697.6213317000074,,,,,,,,,,,,,,,,,,,,,,,,,,,,,,,,,,,,,,,,,,,,,,2697.6052008999977,2697.6213317000074,2697.6213317000074,2698.1045270999894,2698.1207204000093,2700.6045462000184,2700.6046940999804,None,1.0,,,,,,,,,,,,,,,,,,,,,,,,nback15,1.0,2023-12-11_14h03.28.052,untitled,2023.2.3,59.984835829765245,2023-12-11 14h03.43.173533 -0500,
12.0,"[0.64, -0.4]",None,,,,,0.0,30.0,30.0,30.0,,,,,2700.620753300027,,,,,,,,,,,,,,,,,,,,,,,,,,,,,,,,,,,,,,,,,,,,,,2700.605254800059,2700.620753300027,2700.620753300027,2701.104071700014,2701.12058550003,2703.604124400066,2703.6042914000573,None,1.0,,,,,,,,,,,,,,,,,,,,,,,,nback15,1.0,2023-12-11_14h03.28.052,untitled,2023.2.3,59.984835829765245,2023-12-11 14h03.43.173533 -0500,
12.0,"[0.64, -0.4]",space,,,,,0.0,31.0,31.0,31.0,,,,,2703.620686699985,,,,,,,,,,,,,,,,,,,,,,,,,,,,,,,,,,,,,,,,,,,,,,2703.604971299996,2703.620686699985,2703.620686699985,2704.104368400061,2704.12113590003,2706.6041333000176,2706.6043409999693,space,1.0,0.4415279000531882,None,,,,,,,,,,,,,,,,,,,,,,nback15,1.0,2023-12-11_14h03.28.052,untitled,2023.2.3,59.984835829765245,2023-12-11 14h03.43.173533 -0500,
2.0,"[0.64, 0.4]",None,,,,,0.0,32.0,32.0,32.0,,,,,2706.620952300029,,,,,,,,,,,,,,,,,,,,,,,,,,,,,,,,,,,,,,,,,,,,,,2706.60534010001,2706.620952300029,2706.620952300029,2707.104051799979,2707.120790099958,2709.604418599978,2709.6046735000564,None,1.0,,,,,,,,,,,,,,,,,,,,,,,,nback15,1.0,2023-12-11_14h03.28.052,untitled,2023.2.3,59.984835829765245,2023-12-11 14h03.43.173533 -0500,
1.0,"[-0.64, 0.4]",None,,,,,0.0,33.0,33.0,33.0,,,,,2709.620942099951,,,,,,,,,,,,,,,,,,,,,,,,,,,,,,,,,,,,,,,,,,,,,,2709.605545100057,2709.620942099951,2709.620942099951,2710.103943299968,2710.1207161999773,2712.6041355000343,2712.604311299976,None,1.0,,,,,,,,,,,,,,,,,,,,,,,,nback15,1.0,2023-12-11_14h03.28.052,untitled,2023.2.3,59.984835829765245,2023-12-11 14h03.43.173533 -0500,
7.0,"[0.3, 0]",None,,,,,0.0,34.0,34.0,34.0,,,,,2712.620922000031,,,,,,,,,,,,,,,,,,,,,,,,,,,,,,,,,,,,,,,,,,,,,,2712.6050472999923,2712.620922000031,2712.620922000031,2713.1037826000247,2713.120502899983,2715.603943699971,2715.604139400064,None,1.0,,,,,,,,,,,,,,,,,,,,,,,,nback15,1.0,2023-12-11_14h03.28.052,untitled,2023.2.3,59.984835829765245,2023-12-11 14h03.43.173533 -0500,
7.0,"[0.3, 0]",space,,,,,0.0,35.0,35.0,35.0,,,,,2715.6206797000486,,,,,,,,,,,,,,,,,,,,,,,,,,,,,,,,,,,,,,,,,,,,,,2715.6048796999967,2715.6206797000486,2715.6206797000486,2716.1038539999863,2716.1207389000338,2718.603923400049,2718.604131800006,space,1.0,0.6507696000626311,None,,,,,,,,,,,,,,,,,,,,,,nback15,1.0,2023-12-11_14h03.28.052,untitled,2023.2.3,59.984835829765245,2023-12-11 14h03.43.173533 -0500,
11.0,"[-0.64, -0.4]",None,,,,,0.0,36.0,36.0,36.0,,,,,2718.62053179997,,,,,,,,,,,,,,,,,,,,,,,,,,,,,,,,,,,,,,,,,,,,,,2718.6052026000107,2718.62053179997,2718.62053179997,2719.103673300008,2719.120570600033,2721.603872300009,2721.604069299996,None,1.0,,,,,,,,,,,,,,,,,,,,,,,,nback15,1.0,2023-12-11_14h03.28.052,untitled,2023.2.3,59.984835829765245,2023-12-11 14h03.43.173533 -0500,
2.0,"[0.64, 0.4]",None,,,,,0.0,37.0,37.0,37.0,,,,,2721.62066330004,,,,,,,,,,,,,,,,,,,,,,,,,,,,,,,,,,,,,,,,,,,,,,2721.604847299983,2721.62066330004,2721.62066330004,2722.1038969999645,2722.1204893999966,2724.603855399997,2724.6040643999586,None,1.0,,,,,,,,,,,,,,,,,,,,,,,,nback15,1.0,2023-12-11_14h03.28.052,untitled,2023.2.3,59.984835829765245,2023-12-11 14h03.43.173533 -0500,
6.0,"[-0.3, 0]",None,,,,,0.0,38.0,38.0,38.0,,,,,2724.6204384999583,,,,,,,,,,,,,,,,,,,,,,,,,,,,,,,,,,,,,,,,,,,,,,2724.6049104999984,2724.6204384999583,2724.6204384999583,2725.103810400004,2725.120346499956,2727.603874500026,2727.604066299973,None,1.0,,,,,,,,,,,,,,,,,,,,,,,,nback15,1.0,2023-12-11_14h03.28.052,untitled,2023.2.3,59.984835829765245,2023-12-11 14h03.43.173533 -0500,
10.0,"[0, -0.2]",None,,,,,0.0,39.0,39.0,39.0,,,,,2727.620536900009,,,,,,,,,,,,,,,,,,,,,,,,,,,,,,,,,,,,,,,,,,,,,,2727.6049935000483,2727.620536900009,2727.620536900009,2728.103803300066,2728.120410399977,2730.6037421000656,2730.603914699983,None,1.0,,,,,,,,,,,,,,,,,,,,,,,,nback15,1.0,2023-12-11_14h03.28.052,untitled,2023.2.3,59.984835829765245,2023-12-11 14h03.43.173533 -0500,
,,,,,,,,,,,,,,,,,,,,,,,,,,,,,,,,,,,,,,,,,,,,,,,,,,,,,,,,,,,,,,,,,,,,,,,,2730.6043888999848,2730.6204437999986,2730.6204437999986,2770.5711281000404,space,39.941221199929714,None,,,,,,,,,,,,,,,nback15,1.0,2023-12-11_14h03.28.052,untitled,2023.2.3,59.984835829765245,2023-12-11 14h03.43.173533 -0500,
,"[0.2, 0.1]",None,,,,,,,,,0.0,0.0,0.0,0.0,2771.5877122000093,,,,,,,,,,,,,,,,,,,,,,,,2770.5711774000665,2770.586340000038,2771.5877122000093,2771.5706559000537,,,,,,,,,,,,,,,,,,,,,,,,,,,,,,,,,,,,,2771.5858962000348,2771.5877122000093,2771.5877122000093,2772.0862542999675,2772.1030964000383,2774.5862090999726,2774.586392099969,None,1.0,,,,,,nback15,1.0,2023-12-11_14h03.28.052,untitled,2023.2.3,59.984835829765245,2023-12-11 14h03.43.173533 -0500,
,"[0.64, 0.4]",None,,,,,,,,,0.0,1.0,1.0,1.0,2774.6029899000423,,,,,,,,,,,,,,,,,,,,,,,,,,,,,,,,,,,,,,,,,,,,,,,,,,,,,,,,,,,,,,,,2774.58726369997,2774.6029899000423,2774.6029899000423,2775.0860783000244,2775.1028578999685,2777.586194499978,2777.586360699963,None,1.0,,,,,,nback15,1.0,2023-12-11_14h03.28.052,untitled,2023.2.3,59.984835829765245,2023-12-11 14h03.43.173533 -0500,
,"[-0.3, 0]",None,,,,,,,,,0.0,2.0,2.0,2.0,2777.602962200064,,,,,,,,,,,,,,,,,,,,,,,,,,,,,,,,,,,,,,,,,,,,,,,,,,,,,,,,,,,,,,,,2777.5870078000007,2777.602962200064,2777.602962200064,2778.086257899995,2778.102993799956,2780.5861974,2780.5864036000567,None,1.0,,,,,,nback15,1.0,2023-12-11_14h03.28.052,untitled,2023.2.3,59.984835829765245,2023-12-11 14h03.43.173533 -0500,
,"[0.2, -0.1]",None,,,,,,,,,0.0,3.0,3.0,3.0,2780.6029599000467,,,,,,,,,,,,,,,,,,,,,,,,,,,,,,,,,,,,,,,,,,,,,,,,,,,,,,,,,,,,,,,,2780.587201699964,2780.6029599000467,2780.6029599000467,2781.0861617999617,2781.1029554000124,2783.586148299976,2783.586317999987,None,1.0,,,,,,nback15,1.0,2023-12-11_14h03.28.052,untitled,2023.2.3,59.984835829765245,2023-12-11 14h03.43.173533 -0500,
,"[0, 0.2]",None,,,,,,,,,0.0,4.0,4.0,4.0,2783.60273100005,,,,,,,,,,,,,,,,,,,,,,,,,,,,,,,,,,,,,,,,,,,,,,,,,,,,,,,,,,,,,,,,2783.5870618000627,2783.60273100005,2783.60273100005,2784.086093800026,2784.1027581000235,2786.586005900055,2786.5861839000136,None,1.0,,,,,,nback15,1.0,2023-12-11_14h03.28.052,untitled,2023.2.3,59.984835829765245,2023-12-11 14h03.43.173533 -0500,
,"[0.2, -0.1]",space,,,,,,,,,0.0,5.0,5.0,5.0,2786.6028944000136,,,,,,,,,,,,,,,,,,,,,,,,,,,,,,,,,,,,,,,,,,,,,,,,,,,,,,,,,,,,,,,,2786.586941499961,2786.6028944000136,2786.6028944000136,2787.086059699999,2787.1026903999737,2789.5860641000327,2789.586263200036,space,1.0,0.8017959001008421,None,,,,nback15,1.0,2023-12-11_14h03.28.052,untitled,2023.2.3,59.984835829765245,2023-12-11 14h03.43.173533 -0500,
,"[0, -0.2]",None,,,,,,,,,0.0,6.0,6.0,6.0,2789.60261479998,,,,,,,,,,,,,,,,,,,,,,,,,,,,,,,,,,,,,,,,,,,,,,,,,,,,,,,,,,,,,,,,2789.5874386000214,2789.60261479998,2789.60261479998,2790.086020100047,2790.102709700004,2792.586046200013,2792.586221699952,None,1.0,,,,,,nback15,1.0,2023-12-11_14h03.28.052,untitled,2023.2.3,59.984835829765245,2023-12-11 14h03.43.173533 -0500,
,"[0.64, -0.4]",None,,,,,,,,,0.0,7.0,7.0,7.0,2792.6025280000176,,,,,,,,,,,,,,,,,,,,,,,,,,,,,,,,,,,,,,,,,,,,,,,,,,,,,,,,,,,,,,,,2792.5869018000085,2792.6025280000176,2792.6025280000176,2793.085874099983,2793.10274760006,2795.5859282000456,2795.5861549000256,None,1.0,,,,,,nback15,1.0,2023-12-11_14h03.28.052,untitled,2023.2.3,59.984835829765245,2023-12-11 14h03.43.173533 -0500,
,"[0.3, 0]",None,,,,,,,,,0.0,8.0,8.0,8.0,2795.6026794000063,,,,,,,,,,,,,,,,,,,,,,,,,,,,,,,,,,,,,,,,,,,,,,,,,,,,,,,,,,,,,,,,2795.5869993000524,2795.6026794000063,2795.6026794000063,2796.085982599994,2796.1026085000485,2798.58584179997,2798.586040199967,None,1.0,,,,,,nback15,1.0,2023-12-11_14h03.28.052,untitled,2023.2.3,59.984835829765245,2023-12-11 14h03.43.173533 -0500,
,"[0.64, -0.4]",space,,,,,,,,,0.0,9.0,9.0,9.0,2798.6026052000234,,,,,,,,,,,,,,,,,,,,,,,,,,,,,,,,,,,,,,,,,,,,,,,,,,,,,,,,,,,,,,,,2798.586840700009,2798.6026052000234,2798.6026052000234,2799.08573000005,2799.1025430000154,2801.585897000041,2801.586130599957,space,1.0,0.4096672999439761,None,,,,nback15,1.0,2023-12-11_14h03.28.052,untitled,2023.2.3,59.984835829765245,2023-12-11 14h03.43.173533 -0500,
,"[-0.64, 0.4]",None,,,,,,,,,0.0,10.0,10.0,10.0,2801.6025408999994,,,,,,,,,,,,,,,,,,,,,,,,,,,,,,,,,,,,,,,,,,,,,,,,,,,,,,,,,,,,,,,,2801.5870505999774,2801.6025408999994,2801.6025408999994,2802.085796099971,2802.1025506999576,2804.585699600051,2804.585858699982,None,1.0,,,,,,nback15,1.0,2023-12-11_14h03.28.052,untitled,2023.2.3,59.984835829765245,2023-12-11 14h03.43.173533 -0500,
,"[0.2, 0.1]",None,,,,,,,,,0.0,11.0,11.0,11.0,2804.6024983000243,,,,,,,,,,,,,,,,,,,,,,,,,,,,,,,,,,,,,,,,,,,,,,,,,,,,,,,,,,,,,,,,2804.5865379000315,2804.6024983000243,2804.6024983000243,2805.085729100043,2805.102449500002,2807.585796499974,2807.5859834000003,None,1.0,,,,,,nback15,1.0,2023-12-11_14h03.28.052,untitled,2023.2.3,59.984835829765245,2023-12-11 14h03.43.173533 -0500,
,"[0.3, 0]",None,,,,,,,,,0.0,12.0,12.0,12.0,2807.602330000024,,,,,,,,,,,,,,,,,,,,,,,,,,,,,,,,,,,,,,,,,,,,,,,,,,,,,,,,,,,,,,,,2807.586748000001,2807.602330000024,2807.602330000024,2808.085612999974,2808.102422500029,2810.585751799983,2810.585973600042,None,1.0,,,,,,nback15,1.0,2023-12-11_14h03.28.052,untitled,2023.2.3,59.984835829765245,2023-12-11 14h03.43.173533 -0500,
,"[0.2, 0.1]",space,,,,,,,,,0.0,13.0,13.0,13.0,2810.6023449000204,,,,,,,,,,,,,,,,,,,,,,,,,,,,,,,,,,,,,,,,,,,,,,,,,,,,,,,,,,,,,,,,2810.586827000021,2810.6023449000204,2810.6023449000204,2811.085770100006,2811.102380500058,2813.585695400019,2813.5858858999563,space,1.0,0.9360740000847728,None,,,,nback15,1.0,2023-12-11_14h03.28.052,untitled,2023.2.3,59.984835829765245,2023-12-11 14h03.43.173533 -0500,
,"[-0.3, 0]",None,,,,,,,,,0.0,14.0,14.0,14.0,2813.602210300043,,,,,,,,,,,,,,,,,,,,,,,,,,,,,,,,,,,,,,,,,,,,,,,,,,,,,,,,,,,,,,,,2813.586791699985,2813.602210300043,2813.602210300043,2814.085647500004,2814.102405900019,2816.585507799988,2816.585695100017,None,1.0,,,,,,nback15,1.0,2023-12-11_14h03.28.052,untitled,2023.2.3,59.984835829765245,2023-12-11 14h03.43.173533 -0500,
,"[0, 0.2]",None,,,,,,,,,0.0,15.0,15.0,15.0,2816.6021953000454,,,,,,,,,,,,,,,,,,,,,,,,,,,,,,,,,,,,,,,,,,,,,,,,,,,,,,,,,,,,,,,,2816.586461400031,2816.6021953000454,2816.6021953000454,2817.0856168000028,2817.1020637999754,2819.5856194000226,2819.585826699971,None,1.0,,,,,,nback15,1.0,2023-12-11_14h03.28.052,untitled,2023.2.3,59.984835829765245,2023-12-11 14h03.43.173533 -0500,
,"[-0.3, 0]",space,,,,,,,,,0.0,16.0,16.0,16.0,2819.6021424999926,,,,,,,,,,,,,,,,,,,,,,,,,,,,,,,,,,,,,,,,,,,,,,,,,,,,,,,,,,,,,,,,2819.5865950000007,2819.6021424999926,2819.6021424999926,2820.085248699994,2820.1021000000183,2822.585466900025,2822.585662800004,space,1.0,0.7678246999857947,None,,,,nback15,1.0,2023-12-11_14h03.28.052,untitled,2023.2.3,59.984835829765245,2023-12-11 14h03.43.173533 -0500,
,"[-0.64, -0.4]",None,,,,,,,,,0.0,17.0,17.0,17.0,2822.6021710999776,,,,,,,,,,,,,,,,,,,,,,,,,,,,,,,,,,,,,,,,,,,,,,,,,,,,,,,,,,,,,,,,2822.5867062000325,2822.6021710999776,2822.6021710999776,2823.08544299996,2823.102343300008,2825.58556789998,2825.5857970999787,None,1.0,,,,,,nback15,1.0,2023-12-11_14h03.28.052,untitled,2023.2.3,59.984835829765245,2023-12-11 14h03.43.173533 -0500,
,"[-0.2, -0.1]",None,,,,,,,,,0.0,18.0,18.0,18.0,2825.6022259000456,,,,,,,,,,,,,,,,,,,,,,,,,,,,,,,,,,,,,,,,,,,,,,,,,,,,,,,,,,,,,,,,2825.5866947000613,2825.6022259000456,2825.6022259000456,2826.0854052000213,2826.1021757000126,2828.5853992999764,2828.5856082000537,None,1.0,,,,,,nback15,1.0,2023-12-11_14h03.28.052,untitled,2023.2.3,59.984835829765245,2023-12-11 14h03.43.173533 -0500,
,"[0.2, -0.1]",None,,,,,,,,,0.0,19.0,19.0,19.0,2828.602111999993,,,,,,,,,,,,,,,,,,,,,,,,,,,,,,,,,,,,,,,,,,,,,,,,,,,,,,,,,,,,,,,,2828.586427900009,2828.602111999993,2828.602111999993,2829.085410400061,2829.102054800024,2831.5853511999594,2831.58551939996,None,1.0,,,,,,nback15,1.0,2023-12-11_14h03.28.052,untitled,2023.2.3,59.984835829765245,2023-12-11 14h03.43.173533 -0500,
,"[0.2, -0.1]",None,,,,,,,,,0.0,20.0,20.0,20.0,2831.6019895999925,,,,,,,,,,,,,,,,,,,,,,,,,,,,,,,,,,,,,,,,,,,,,,,,,,,,,,,,,,,,,,,,2831.586178399972,2831.6019895999925,2831.6019895999925,2832.0852390000364,2832.1019511000486,2834.5853489000583,2834.585525900009,None,1.0,,,,,,nback15,1.0,2023-12-11_14h03.28.052,untitled,2023.2.3,59.984835829765245,2023-12-11 14h03.43.173533 -0500,
,"[-0.64, 0.4]",None,,,,,,,,,0.0,21.0,21.0,21.0,2834.6019337000325,,,,,,,,,,,,,,,,,,,,,,,,,,,,,,,,,,,,,,,,,,,,,,,,,,,,,,,,,,,,,,,,2834.5862350000534,2834.6019337000325,2834.6019337000325,2835.0853015000466,2835.102013300057,2837.5852535000304,2837.585411899956,None,1.0,,,,,,nback15,1.0,2023-12-11_14h03.28.052,untitled,2023.2.3,59.984835829765245,2023-12-11 14h03.43.173533 -0500,
,"[0, 0.2]",None,,,,,,,,,0.0,22.0,22.0,22.0,2837.601825500024,,,,,,,,,,,,,,,,,,,,,,,,,,,,,,,,,,,,,,,,,,,,,,,,,,,,,,,,,,,,,,,,2837.58599469997,2837.601825500024,2837.601825500024,2838.0852480999893,2838.1021217999514,2840.5851533999667,2840.5853177000536,None,1.0,,,,,,nback15,1.0,2023-12-11_14h03.28.052,untitled,2023.2.3,59.984835829765245,2023-12-11 14h03.43.173533 -0500,
,"[0.64, -0.4]",None,,,,,,,,,0.0,23.0,23.0,23.0,2840.601599400048,,,,,,,,,,,,,,,,,,,,,,,,,,,,,,,,,,,,,,,,,,,,,,,,,,,,,,,,,,,,,,,,2840.585960100056,2840.601599400048,2840.601599400048,2841.085121399956,2841.1018591000466,2843.5850741000613,2843.58555660001,None,1.0,,,,,,nback15,1.0,2023-12-11_14h03.28.052,untitled,2023.2.3,59.984835829765245,2023-12-11 14h03.43.173533 -0500,
,"[0, 0.2]",space,,,,,,,,,0.0,24.0,24.0,24.0,2843.6016470000613,,,,,,,,,,,,,,,,,,,,,,,,,,,,,,,,,,,,,,,,,,,,,,,,,,,,,,,,,,,,,,,,2843.5863659000024,2843.6016470000613,2843.6016470000613,2844.085070500034,2844.101785899955,2846.585023100022,2846.585171599989,space,1.0,0.608022499945946,None,,,,nback15,1.0,2023-12-11_14h03.28.052,untitled,2023.2.3,59.984835829765245,2023-12-11 14h03.43.173533 -0500,
,"[-0.2, 0.1]",None,,,,,,,,,0.0,25.0,25.0,25.0,2846.6016316000605,,,,,,,,,,,,,,,,,,,,,,,,,,,,,,,,,,,,,,,,,,,,,,,,,,,,,,,,,,,,,,,,2846.5858669000445,2846.6016316000605,2846.6016316000605,2847.085034399992,2847.1017251999583,2849.585053000017,2849.5852399000432,None,1.0,,,,,,nback15,1.0,2023-12-11_14h03.28.052,untitled,2023.2.3,59.984835829765245,2023-12-11 14h03.43.173533 -0500,
,"[0.3, 0]",None,,,,,,,,,0.0,26.0,26.0,26.0,2849.601839800016,,,,,,,,,,,,,,,,,,,,,,,,,,,,,,,,,,,,,,,,,,,,,,,,,,,,,,,,,,,,,,,,2849.5859819999896,2849.601839800016,2849.601839800016,2850.084870200022,2850.1016993999947,2852.584941399982,2852.5851223999634,None,1.0,,,,,,nback15,1.0,2023-12-11_14h03.28.052,untitled,2023.2.3,59.984835829765245,2023-12-11 14h03.43.173533 -0500,
,"[-0.2, 0.1]",space,,,,,,,,,0.0,27.0,27.0,27.0,2852.6015892999712,,,,,,,,,,,,,,,,,,,,,,,,,,,,,,,,,,,,,,,,,,,,,,,,,,,,,,,,,,,,,,,,2852.5858371000504,2852.6015892999712,2852.6015892999712,2853.0850284000626,2853.1016972999787,2855.584809000022,2855.5849775000243,space,1.0,0.6004151999950409,None,,,,nback15,1.0,2023-12-11_14h03.28.052,untitled,2023.2.3,59.984835829765245,2023-12-11 14h03.43.173533 -0500,
,"[-0.2, 0.1]",None,,,,,,,,,0.0,28.0,28.0,28.0,2855.601586300065,,,,,,,,,,,,,,,,,,,,,,,,,,,,,,,,,,,,,,,,,,,,,,,,,,,,,,,,,,,,,,,,2855.585863400018,2855.601586300065,2855.601586300065,2856.0851215999573,2856.101536600036,2858.5848673,2858.5850797999883,None,1.0,,,,,,nback15,1.0,2023-12-11_14h03.28.052,untitled,2023.2.3,59.984835829765245,2023-12-11 14h03.43.173533 -0500,
,"[0.2, 0.1]",None,,,,,,,,,0.0,29.0,29.0,29.0,2858.6014535999857,,,,,,,,,,,,,,,,,,,,,,,,,,,,,,,,,,,,,,,,,,,,,,,,,,,,,,,,,,,,,,,,2858.585902299965,2858.6014535999857,2858.6014535999857,2859.0848968999926,2859.101467199973,2861.584730700008,2861.584890600061,None,1.0,,,,,,nback15,1.0,2023-12-11_14h03.28.052,untitled,2023.2.3,59.984835829765245,2023-12-11 14h03.43.173533 -0500,
,"[-0.64, -0.4]",None,,,,,,,,,0.0,30.0,30.0,30.0,2861.6014672999736,,,,,,,,,,,,,,,,,,,,,,,,,,,,,,,,,,,,,,,,,,,,,,,,,,,,,,,,,,,,,,,,2861.585501600057,2861.6014672999736,2861.6014672999736,2862.084932000027,2862.101409199997,2864.584724199958,2864.584881399991,None,1.0,,,,,,nback15,1.0,2023-12-11_14h03.28.052,untitled,2023.2.3,59.984835829765245,2023-12-11 14h03.43.173533 -0500,
,"[0, -0.2]",None,,,,,,,,,0.0,31.0,31.0,31.0,2864.601303100004,,,,,,,,,,,,,,,,,,,,,,,,,,,,,,,,,,,,,,,,,,,,,,,,,,,,,,,,,,,,,,,,2864.585526700015,2864.601303100004,2864.601303100004,2865.084784699953,2865.1013761999784,2867.584567500045,2867.584735100041,None,1.0,,,,,,nback15,1.0,2023-12-11_14h03.28.052,untitled,2023.2.3,59.984835829765245,2023-12-11 14h03.43.173533 -0500,
,"[-0.64, -0.4]",space,,,,,,,,,0.0,32.0,32.0,32.0,2867.6013833000325,,,,,,,,,,,,,,,,,,,,,,,,,,,,,,,,,,,,,,,,,,,,,,,,,,,,,,,,,,,,,,,,2867.585384199978,2867.6013833000325,2867.6013833000325,2868.0845807000296,2868.1013321999926,2870.584545299993,2870.5847076000646,space,1.0,0.6530391999986023,None,,,,nback15,1.0,2023-12-11_14h03.28.052,untitled,2023.2.3,59.984835829765245,2023-12-11 14h03.43.173533 -0500,
,"[0.64, 0.4]",None,,,,,,,,,0.0,33.0,33.0,33.0,2870.601181000005,,,,,,,,,,,,,,,,,,,,,,,,,,,,,,,,,,,,,,,,,,,,,,,,,,,,,,,,,,,,,,,,2870.5854661000194,2870.601181000005,2870.601181000005,2871.0845181000186,2871.10128599999,2873.5845216000453,2873.58466319996,None,1.0,,,,,,nback15,1.0,2023-12-11_14h03.28.052,untitled,2023.2.3,59.984835829765245,2023-12-11 14h03.43.173533 -0500,
,"[-0.3, 0]",None,,,,,,,,,0.0,34.0,34.0,34.0,2873.601123800036,,,,,,,,,,,,,,,,,,,,,,,,,,,,,,,,,,,,,,,,,,,,,,,,,,,,,,,,,,,,,,,,2873.585200099973,2873.601123800036,2873.601123800036,2874.084555099951,2874.1013952000067,2876.5844853000017,2876.584708999959,None,1.0,,,,,,nback15,1.0,2023-12-11_14h03.28.052,untitled,2023.2.3,59.984835829765245,2023-12-11 14h03.43.173533 -0500,
,"[0.3, 0]",None,,,,,,,,,0.0,35.0,35.0,35.0,2876.601176799973,,,,,,,,,,,,,,,,,,,,,,,,,,,,,,,,,,,,,,,,,,,,,,,,,,,,,,,,,,,,,,,,2876.585470500053,2876.601176799973,2876.601176799973,2877.084434199962,2877.1012184000574,2879.5845130999805,2879.5847102999687,None,1.0,,,,,,nback15,1.0,2023-12-11_14h03.28.052,untitled,2023.2.3,59.984835829765245,2023-12-11 14h03.43.173533 -0500,
,"[-0.3, 0]",space,,,,,,,,,0.0,36.0,36.0,36.0,2879.601045500021,,,,,,,,,,,,,,,,,,,,,,,,,,,,,,,,,,,,,,,,,,,,,,,,,,,,,,,,,,,,,,,,2879.5854806000134,2879.601045500021,2879.601045500021,2880.084443800035,2880.101234500064,2882.584353400045,2882.5845496000256,space,1.0,0.6407004999928176,None,,,,nback15,1.0,2023-12-11_14h03.28.052,untitled,2023.2.3,59.984835829765245,2023-12-11 14h03.43.173533 -0500,
,"[0, -0.2]",None,,,,,,,,,0.0,37.0,37.0,37.0,2882.6012141000247,,,,,,,,,,,,,,,,,,,,,,,,,,,,,,,,,,,,,,,,,,,,,,,,,,,,,,,,,,,,,,,,2882.5855888000224,2882.6012141000247,2882.6012141000247,2883.084407999995,2883.1012116000056,2885.5844367999816,2885.5846511999844,None,1.0,,,,,,nback15,1.0,2023-12-11_14h03.28.052,untitled,2023.2.3,59.984835829765245,2023-12-11 14h03.43.173533 -0500,
,"[0.3, 0]",None,,,,,,,,,0.0,38.0,38.0,38.0,2885.601154800039,,,,,,,,,,,,,,,,,,,,,,,,,,,,,,,,,,,,,,,,,,,,,,,,,,,,,,,,,,,,,,,,2885.585364600061,2885.601154800039,2885.601154800039,2886.084539200063,2886.1009761999594,2888.5843281999696,2888.58451299998,space,0.0,0.8341540000401437,None,,,,nback15,1.0,2023-12-11_14h03.28.052,untitled,2023.2.3,59.984835829765245,2023-12-11 14h03.43.173533 -0500,
,"[0.2, 0.1]",None,,,,,,,,,0.0,39.0,39.0,39.0,2888.601050200057,,,,,,,,,,,,,,,,,,,,,,,,,,,,,,,,,,,,,,,,,,,,,,,,,,,,,,,,,,,,,,,,2888.5854243000504,2888.601050200057,2888.601050200057,2889.0843230000464,2889.101123800036,2891.58430029999,2891.5844948999584,None,1.0,,,,,,nback15,1.0,2023-12-11_14h03.28.052,untitled,2023.2.3,59.984835829765245,2023-12-11 14h03.43.173533 -0500,
,,,,,,,,,,,,,,,,,,,,,,,,,,,,,,,,,,,,,,,,,,,,,,,,,,,,,,,,,,,,,,,,,,,,,,,,,,,,,,,,,,,,,,,,,,2891.58502280002,2891.600989300059,2894.584528999985,,,,,,,,
