square,location,corrAns,trials_0.thisRepN,trials_0.thisTrialN,trials_0.thisN,trials_0.thisIndex,trials_1.thisRepN,trials_1.thisTrialN,trials_1.thisN,trials_1.thisIndex,trials_2.thisRepN,trials_2.thisTrialN,trials_2.thisN,trials_2.thisIndex,thisRow.t,notes,Instructions.started,instructions.started,key_resp.started,inst_sq11.started,Instructions.stopped,key_resp.keys,key_resp.rt,key_resp.duration,All.started,sq_1.started,sq_2.started,sq_3.started,sq_4.started,sq_5.started,sq_6.started,sq_7.started,sq_8.started,sq_9.started,sq_10.started,sq_11.started,sq_12.started,All.stopped,Fixation.started,fixation_3.started,fixation_3.stopped,Fixation.stopped,N_back_0_Trial.started,target_square_0.started,response_0.started,fixation_0.started,target_square_0.stopped,fixation_0.stopped,response_0.stopped,N_back_0_Trial.stopped,response_0.keys,response_0.corr,response_0.rt,response_0.duration,Instructions_1.started,instructions_1.started,key_resp_1.started,Instructions_1.stopped,key_resp_1.keys,key_resp_1.rt,key_resp_1.duration,N_back_1_Trial.started,target_square_1.started,response_1.started,target_square_1.stopped,fixation_1.started,fixation_1.stopped,response_1.stopped,N_back_1_Trial.stopped,response_1.keys,response_1.corr,response_1.rt,response_1.duration,Instructions_2.started,instructions_2.started,key_resp_2.started,Instructions_2.stopped,key_resp_2.keys,key_resp_2.rt,key_resp_2.duration,N_back_2_trials.started,target_square_2.started,response_2.started,target_square_2.stopped,fixation_2.started,fixation_2.stopped,response_2.stopped,N_back_2_trials.stopped,response_2.keys,response_2.corr,response_2.rt,response_2.duration,End.started,thank_you.started,thank_you.stopped,End.stopped,participant,session,date,expName,psychopyVersion,frameRate,expStart,Unnamed: 104
,,,,,,,,,,,,,,,,,0.0013627000153064,0.0038343000051099,0.0038343000051099,0.0038343000051099,2826.1651922000165,space,2826.158366699994,None,,,,,,,,,,,,,,,,,,,,,,,,,,,,,,,,,,,,,,,,,,,,,,,,,,,,,,,,,,,,,,,,,,,,,,,,,nback34,1.0,2023-12-18_13h55.48.507,untitled,2023.2.3,59.797203760904985,2023-12-18 14h19.09.283209 -0500,
6.0,"[-0.3, 0]",None,0.0,0.0,0.0,0.0,,,,,,,,,2828.1800184000167,,,,,,,,,,2826.165233500011,2826.180033600016,2826.180033600016,2826.180033600016,2826.180033600016,2826.180033600016,2826.180033600016,2826.180033600016,2826.180033600016,2826.180033600016,2826.180033600016,2826.180033600016,2826.180033600016,2827.1642775000078,2827.164304200007,2827.180138900003,2828.1800184000167,2828.1641704000067,2828.1759256000223,2828.1800184000167,2828.1800184000167,2828.663612200005,2828.680090300011,2831.163513800013,2831.1799605000124,2831.1645037000126,None,1.0,,,,,,,,,,,,,,,,,,,,,,,,,,,,,,,,,,,,,,,,,,,,,nback34,1.0,2023-12-18_13h55.48.507,untitled,2023.2.3,59.797203760904985,2023-12-18 14h19.09.283209 -0500,
10.0,"[0, -0.2]",None,0.0,1.0,1.0,1.0,,,,,,,,,2831.1799605000124,,,,,,,,,,,,,,,,,,,,,,,,,,,,2831.1655126000114,2831.1799605000124,2831.1799605000124,2831.663440000004,2831.679979000008,2834.1634140000097,2834.180008299998,2834.1643276000104,None,1.0,,,,,,,,,,,,,,,,,,,,,,,,,,,,,,,,,,,,,,,,,,,,,nback34,1.0,2023-12-18_13h55.48.507,untitled,2023.2.3,59.797203760904985,2023-12-18 14h19.09.283209 -0500,
11.0,"[-0.64, -0.4]",space,0.0,2.0,2.0,2.0,,,,,,,,,2834.180008299998,,,,,,,,,,,,,,,,,,,,,,,,,,,,2834.1650463000115,2834.180008299998,2834.180008299998,2834.6634004000225,2834.680047500005,2837.163548000012,2837.1799629000016,2837.164476100006,None,0.0,,,,,,,,,,,,,,,,,,,,,,,,,,,,,,,,,,,,,,,,,,,,,nback34,1.0,2023-12-18_13h55.48.507,untitled,2023.2.3,59.797203760904985,2023-12-18 14h19.09.283209 -0500,
12.0,"[0.64, -0.4]",None,0.0,3.0,3.0,3.0,,,,,,,,,2837.1799629000016,,,,,,,,,,,,,,,,,,,,,,,,,,,,2837.165271900012,2837.1799629000016,2837.1799629000016,2837.663510500017,2837.6798764000123,2840.16331980002,2840.180063000007,2840.1641505000007,None,1.0,,,,,,,,,,,,,,,,,,,,,,,,,,,,,,,,,,,,,,,,,,,,,nback34,1.0,2023-12-18_13h55.48.507,untitled,2023.2.3,59.797203760904985,2023-12-18 14h19.09.283209 -0500,
1.0,"[-0.64, 0.4]",None,0.0,4.0,4.0,4.0,,,,,,,,,2840.180063000007,,,,,,,,,,,,,,,,,,,,,,,,,,,,2840.16482570002,2840.180063000007,2840.180063000007,2840.663421400008,2840.680017100007,2843.163134000002,2843.1799630000023,2843.164152500016,None,1.0,,,,,,,,,,,,,,,,,,,,,,,,,,,,,,,,,,,,,,,,,,,,,nback34,1.0,2023-12-18_13h55.48.507,untitled,2023.2.3,59.797203760904985,2023-12-18 14h19.09.283209 -0500,
1.0,"[-0.64, 0.4]",None,0.0,5.0,5.0,5.0,,,,,,,,,2843.1799630000023,,,,,,,,,,,,,,,,,,,,,,,,,,,,2843.1648608999967,2843.1799630000023,2843.1799630000023,2843.663280200009,2843.679882099997,2846.1632463000133,2846.179818000004,2846.164166600007,None,1.0,,,,,,,,,,,,,,,,,,,,,,,,,,,,,,,,,,,,,,,,,,,,,nback34,1.0,2023-12-18_13h55.48.507,untitled,2023.2.3,59.797203760904985,2023-12-18 14h19.09.283209 -0500,
4.0,"[-0.2, 0.1]",None,0.0,6.0,6.0,6.0,,,,,,,,,2846.179818000004,,,,,,,,,,,,,,,,,,,,,,,,,,,,2846.1649291000213,2846.179818000004,2846.179818000004,2846.679896900023,2846.679896900023,2849.179741200001,2849.179741200001,2849.1641447000147,None,1.0,,,,,,,,,,,,,,,,,,,,,,,,,,,,,,,,,,,,,,,,,,,,,nback34,1.0,2023-12-18_13h55.48.507,untitled,2023.2.3,59.797203760904985,2023-12-18 14h19.09.283209 -0500,
5.0,"[0.2, 0.1]",None,0.0,7.0,7.0,7.0,,,,,,,,,2849.179741200001,,,,,,,,,,,,,,,,,,,,,,,,,,,,2849.164867500018,2849.179741200001,2849.179741200001,2849.679842400016,2849.679842400016,2852.1795799999963,2852.1795799999963,2852.1634406000085,None,1.0,,,,,,,,,,,,,,,,,,,,,,,,,,,,,,,,,,,,,,,,,,,,,nback34,1.0,2023-12-18_13h55.48.507,untitled,2023.2.3,59.797203760904985,2023-12-18 14h19.09.283209 -0500,
11.0,"[-0.64, -0.4]",space,0.0,8.0,8.0,8.0,,,,,,,,,2852.1795799999963,,,,,,,,,,,,,,,,,,,,,,,,,,,,2852.1639065000054,2852.1795799999963,2852.1795799999963,2852.6797022999963,2852.6797022999963,2855.179661400005,2855.179661400005,2855.163474400004,space,1.0,0.3244321999954991,None,,,,,,,,,,,,,,,,,,,,,,,,,,,,,,,,,,,,,,,,,,,nback34,1.0,2023-12-18_13h55.48.507,untitled,2023.2.3,59.797203760904985,2023-12-18 14h19.09.283209 -0500,
9.0,"[0.2, -0.1]",None,0.0,9.0,9.0,9.0,,,,,,,,,2855.179661400005,,,,,,,,,,,,,,,,,,,,,,,,,,,,2855.1642728000006,2855.179661400005,2855.179661400005,2855.679695300001,2855.679695300001,2858.1794962999998,2858.1794962999998,2858.163919100014,None,1.0,,,,,,,,,,,,,,,,,,,,,,,,,,,,,,,,,,,,,,,,,,,,,nback34,1.0,2023-12-18_13h55.48.507,untitled,2023.2.3,59.797203760904985,2023-12-18 14h19.09.283209 -0500,
8.0,"[-0.2, -0.1]",None,0.0,10.0,10.0,10.0,,,,,,,,,2858.1794962999998,,,,,,,,,,,,,,,,,,,,,,,,,,,,2858.1646410000103,2858.1794962999998,2858.1794962999998,2858.6796019000176,2858.6796019000176,2861.1795451000216,2861.1795451000216,2861.1641518000106,None,1.0,,,,,,,,,,,,,,,,,,,,,,,,,,,,,,,,,,,,,,,,,,,,,nback34,1.0,2023-12-18_13h55.48.507,untitled,2023.2.3,59.797203760904985,2023-12-18 14h19.09.283209 -0500,
9.0,"[0.2, -0.1]",None,0.0,11.0,11.0,11.0,,,,,,,,,2861.1795451000216,,,,,,,,,,,,,,,,,,,,,,,,,,,,2861.164991400001,2861.1795451000216,2861.1795451000216,2861.67954360001,2861.67954360001,2864.179641299997,2864.179641299997,2864.163915200013,None,1.0,,,,,,,,,,,,,,,,,,,,,,,,,,,,,,,,,,,,,,,,,,,,,nback34,1.0,2023-12-18_13h55.48.507,untitled,2023.2.3,59.797203760904985,2023-12-18 14h19.09.283209 -0500,
6.0,"[-0.3, 0]",None,0.0,12.0,12.0,12.0,,,,,,,,,2864.179641299997,,,,,,,,,,,,,,,,,,,,,,,,,,,,2864.1647699000023,2864.179641299997,2864.179641299997,2864.6793934000016,2864.6793934000016,2867.1794812000007,2867.1794812000007,2867.164044600009,None,1.0,,,,,,,,,,,,,,,,,,,,,,,,,,,,,,,,,,,,,,,,,,,,,nback34,1.0,2023-12-18_13h55.48.507,untitled,2023.2.3,59.797203760904985,2023-12-18 14h19.09.283209 -0500,
9.0,"[0.2, -0.1]",None,0.0,13.0,13.0,13.0,,,,,,,,,2867.1794812000007,,,,,,,,,,,,,,,,,,,,,,,,,,,,2867.164844000013,2867.1794812000007,2867.1794812000007,2867.679485400004,2867.679485400004,2870.1794528000173,2870.1794528000173,2870.1636516000144,None,1.0,,,,,,,,,,,,,,,,,,,,,,,,,,,,,,,,,,,,,,,,,,,,,nback34,1.0,2023-12-18_13h55.48.507,untitled,2023.2.3,59.797203760904985,2023-12-18 14h19.09.283209 -0500,
7.0,"[0.3, 0]",None,0.0,14.0,14.0,14.0,,,,,,,,,2870.1794528000173,,,,,,,,,,,,,,,,,,,,,,,,,,,,2870.164347300015,2870.1794528000173,2870.1794528000173,2870.679363400006,2870.679363400006,2873.1794552000065,2873.1794552000065,2873.163637300022,None,1.0,,,,,,,,,,,,,,,,,,,,,,,,,,,,,,,,,,,,,,,,,,,,,nback34,1.0,2023-12-18_13h55.48.507,untitled,2023.2.3,59.797203760904985,2023-12-18 14h19.09.283209 -0500,
2.0,"[0.64, 0.4]",None,0.0,15.0,15.0,15.0,,,,,,,,,2873.1794552000065,,,,,,,,,,,,,,,,,,,,,,,,,,,,2873.164330300002,2873.1794552000065,2873.1794552000065,2873.679347400001,2873.679347400001,2876.179478300008,2876.179478300008,2876.1636210000142,None,1.0,,,,,,,,,,,,,,,,,,,,,,,,,,,,,,,,,,,,,,,,,,,,,nback34,1.0,2023-12-18_13h55.48.507,untitled,2023.2.3,59.797203760904985,2023-12-18 14h19.09.283209 -0500,
2.0,"[0.64, 0.4]",None,0.0,16.0,16.0,16.0,,,,,,,,,2876.179478300008,,,,,,,,,,,,,,,,,,,,,,,,,,,,2876.164338700008,2876.179478300008,2876.179478300008,2876.679281000019,2876.679281000019,2879.1792463000165,2879.1792463000165,2879.1637403000204,None,1.0,,,,,,,,,,,,,,,,,,,,,,,,,,,,,,,,,,,,,,,,,,,,,nback34,1.0,2023-12-18_13h55.48.507,untitled,2023.2.3,59.797203760904985,2023-12-18 14h19.09.283209 -0500,
11.0,"[-0.64, -0.4]",space,0.0,17.0,17.0,17.0,,,,,,,,,2879.1792463000165,,,,,,,,,,,,,,,,,,,,,,,,,,,,2879.164600500022,2879.1792463000165,2879.1792463000165,2879.679318700015,2879.679318700015,2882.1793428999954,2882.1793428999954,2882.16378990002,space,1.0,0.4873709000239614,None,,,,,,,,,,,,,,,,,,,,,,,,,,,,,,,,,,,,,,,,,,,nback34,1.0,2023-12-18_13h55.48.507,untitled,2023.2.3,59.797203760904985,2023-12-18 14h19.09.283209 -0500,
11.0,"[-0.64, -0.4]",space,0.0,18.0,18.0,18.0,,,,,,,,,2882.1793428999954,,,,,,,,,,,,,,,,,,,,,,,,,,,,2882.164850800007,2882.1793428999954,2882.1793428999954,2882.679158300016,2882.679158300016,2885.179111800011,2885.179111800011,2885.163212900021,space,1.0,0.447509000019636,None,,,,,,,,,,,,,,,,,,,,,,,,,,,,,,,,,,,,,,,,,,,nback34,1.0,2023-12-18_13h55.48.507,untitled,2023.2.3,59.797203760904985,2023-12-18 14h19.09.283209 -0500,
7.0,"[0.3, 0]",None,0.0,19.0,19.0,19.0,,,,,,,,,2885.179111800011,,,,,,,,,,,,,,,,,,,,,,,,,,,,2885.1639951000107,2885.179111800011,2885.179111800011,2885.679097400018,2885.679097400018,2888.179225400003,2888.179225400003,2888.1634272999945,None,1.0,,,,,,,,,,,,,,,,,,,,,,,,,,,,,,,,,,,,,,,,,,,,,nback34,1.0,2023-12-18_13h55.48.507,untitled,2023.2.3,59.797203760904985,2023-12-18 14h19.09.283209 -0500,
3.0,"[0, 0.2]",None,0.0,20.0,20.0,20.0,,,,,,,,,2888.179225400003,,,,,,,,,,,,,,,,,,,,,,,,,,,,2888.1641295000154,2888.179225400003,2888.179225400003,2888.678832900012,2888.678832900012,2891.1791498000093,2891.1791498000093,2891.163362799998,None,1.0,,,,,,,,,,,,,,,,,,,,,,,,,,,,,,,,,,,,,,,,,,,,,nback34,1.0,2023-12-18_13h55.48.507,untitled,2023.2.3,59.797203760904985,2023-12-18 14h19.09.283209 -0500,
10.0,"[0, -0.2]",None,0.0,21.0,21.0,21.0,,,,,,,,,2891.1791498000093,,,,,,,,,,,,,,,,,,,,,,,,,,,,2891.164079500013,2891.1791498000093,2891.1791498000093,2891.6789661000075,2891.6789661000075,2894.1790690000053,2894.1790690000053,2894.163211600011,None,1.0,,,,,,,,,,,,,,,,,,,,,,,,,,,,,,,,,,,,,,,,,,,,,nback34,1.0,2023-12-18_13h55.48.507,untitled,2023.2.3,59.797203760904985,2023-12-18 14h19.09.283209 -0500,
1.0,"[-0.64, 0.4]",None,0.0,22.0,22.0,22.0,,,,,,,,,2894.1790690000053,,,,,,,,,,,,,,,,,,,,,,,,,,,,2894.1639318000234,2894.1790690000053,2894.1790690000053,2894.678899799997,2894.678899799997,2897.178969200002,2897.178969200002,2897.163427599997,None,1.0,,,,,,,,,,,,,,,,,,,,,,,,,,,,,,,,,,,,,,,,,,,,,nback34,1.0,2023-12-18_13h55.48.507,untitled,2023.2.3,59.797203760904985,2023-12-18 14h19.09.283209 -0500,
2.0,"[0.64, 0.4]",None,0.0,23.0,23.0,23.0,,,,,,,,,2897.178969200002,,,,,,,,,,,,,,,,,,,,,,,,,,,,2897.1642657000048,2897.178969200002,2897.178969200002,2897.678995299997,2897.678995299997,2900.178708100022,2900.178708100022,2900.163032100012,None,1.0,,,,,,,,,,,,,,,,,,,,,,,,,,,,,,,,,,,,,,,,,,,,,nback34,1.0,2023-12-18_13h55.48.507,untitled,2023.2.3,59.797203760904985,2023-12-18 14h19.09.283209 -0500,
6.0,"[-0.3, 0]",None,0.0,24.0,24.0,24.0,,,,,,,,,2900.178708100022,,,,,,,,,,,,,,,,,,,,,,,,,,,,2900.163633500022,2900.178708100022,2900.178708100022,2900.678949699999,2900.678949699999,2903.178660900012,2903.178660900012,2903.162820500001,None,1.0,,,,,,,,,,,,,,,,,,,,,,,,,,,,,,,,,,,,,,,,,,,,,nback34,1.0,2023-12-18_13h55.48.507,untitled,2023.2.3,59.797203760904985,2023-12-18 14h19.09.283209 -0500,
3.0,"[0, 0.2]",None,0.0,25.0,25.0,25.0,,,,,,,,,2903.178660900012,,,,,,,,,,,,,,,,,,,,,,,,,,,,2903.163485700002,2903.178660900012,2903.178660900012,2903.6787167,2903.6787167,2906.1788779000053,2906.1788779000053,2906.1630368000187,None,1.0,,,,,,,,,,,,,,,,,,,,,,,,,,,,,,,,,,,,,,,,,,,,,nback34,1.0,2023-12-18_13h55.48.507,untitled,2023.2.3,59.797203760904985,2023-12-18 14h19.09.283209 -0500,
11.0,"[-0.64, -0.4]",space,0.0,26.0,26.0,26.0,,,,,,,,,2906.1788779000053,,,,,,,,,,,,,,,,,,,,,,,,,,,,2906.1637170000176,2906.1788779000053,2906.1788779000053,2906.678841500019,2906.678841500019,2909.178677100019,2909.178677100019,2909.163195900008,space,1.0,0.4345885000075213,None,,,,,,,,,,,,,,,,,,,,,,,,,,,,,,,,,,,,,,,,,,,nback34,1.0,2023-12-18_13h55.48.507,untitled,2023.2.3,59.797203760904985,2023-12-18 14h19.09.283209 -0500,
1.0,"[-0.64, 0.4]",None,0.0,27.0,27.0,27.0,,,,,,,,,2909.178677100019,,,,,,,,,,,,,,,,,,,,,,,,,,,,2909.164202400017,2909.178677100019,2909.178677100019,2909.678697299998,2909.678697299998,2912.1784704000165,2912.1784704000165,2912.162779500009,None,1.0,,,,,,,,,,,,,,,,,,,,,,,,,,,,,,,,,,,,,,,,,,,,,nback34,1.0,2023-12-18_13h55.48.507,untitled,2023.2.3,59.797203760904985,2023-12-18 14h19.09.283209 -0500,
3.0,"[0, 0.2]",None,0.0,28.0,28.0,28.0,,,,,,,,,2912.1784704000165,,,,,,,,,,,,,,,,,,,,,,,,,,,,2912.163480600022,2912.1784704000165,2912.1784704000165,2912.678701800003,2912.678701800003,2915.1784423000063,2915.1784423000063,2915.16275790002,None,1.0,,,,,,,,,,,,,,,,,,,,,,,,,,,,,,,,,,,,,,,,,,,,,nback34,1.0,2023-12-18_13h55.48.507,untitled,2023.2.3,59.797203760904985,2023-12-18 14h19.09.283209 -0500,
9.0,"[0.2, -0.1]",None,0.0,29.0,29.0,29.0,,,,,,,,,2915.1784423000063,,,,,,,,,,,,,,,,,,,,,,,,,,,,2915.1634579999954,2915.1784423000063,2915.1784423000063,2915.6787203999997,2915.6787203999997,2918.1786466000194,2918.1786466000194,2918.162912300002,None,1.0,,,,,,,,,,,,,,,,,,,,,,,,,,,,,,,,,,,,,,,,,,,,,nback34,1.0,2023-12-18_13h55.48.507,untitled,2023.2.3,59.797203760904985,2023-12-18 14h19.09.283209 -0500,
8.0,"[-0.2, -0.1]",None,0.0,30.0,30.0,30.0,,,,,,,,,2918.1786466000194,,,,,,,,,,,,,,,,,,,,,,,,,,,,2918.1636800999986,2918.1786466000194,2918.1786466000194,2918.678657900018,2918.678657900018,2921.178441199998,2921.178441199998,2921.162662800023,None,1.0,,,,,,,,,,,,,,,,,,,,,,,,,,,,,,,,,,,,,,,,,,,,,nback34,1.0,2023-12-18_13h55.48.507,untitled,2023.2.3,59.797203760904985,2023-12-18 14h19.09.283209 -0500,
12.0,"[0.64, -0.4]",None,0.0,31.0,31.0,31.0,,,,,,,,,2921.178441199998,,,,,,,,,,,,,,,,,,,,,,,,,,,,2921.163295400009,2921.178441199998,2921.178441199998,2921.678484300006,2921.678484300006,2924.1785285000224,2924.1785285000224,2924.162763100001,None,1.0,,,,,,,,,,,,,,,,,,,,,,,,,,,,,,,,,,,,,,,,,,,,,nback34,1.0,2023-12-18_13h55.48.507,untitled,2023.2.3,59.797203760904985,2023-12-18 14h19.09.283209 -0500,
9.0,"[0.2, -0.1]",None,0.0,32.0,32.0,32.0,,,,,,,,,2924.1785285000224,,,,,,,,,,,,,,,,,,,,,,,,,,,,2924.163475700014,2924.1785285000224,2924.1785285000224,2924.678492900013,2924.678492900013,2927.178537,2927.178537,2927.1628861000063,None,1.0,,,,,,,,,,,,,,,,,,,,,,,,,,,,,,,,,,,,,,,,,,,,,nback34,1.0,2023-12-18_13h55.48.507,untitled,2023.2.3,59.797203760904985,2023-12-18 14h19.09.283209 -0500,
11.0,"[-0.64, -0.4]",space,0.0,33.0,33.0,33.0,,,,,,,,,2927.178537,,,,,,,,,,,,,,,,,,,,,,,,,,,,2927.1636581000057,2927.178537,2927.178537,2927.6785897000227,2927.6785897000227,2930.1781990000163,2930.1781990000163,2930.162545600004,space,1.0,0.4236252000264358,None,,,,,,,,,,,,,,,,,,,,,,,,,,,,,,,,,,,,,,,,,,,nback34,1.0,2023-12-18_13h55.48.507,untitled,2023.2.3,59.797203760904985,2023-12-18 14h19.09.283209 -0500,
7.0,"[0.3, 0]",None,0.0,34.0,34.0,34.0,,,,,,,,,2930.1781990000163,,,,,,,,,,,,,,,,,,,,,,,,,,,,2930.163372400013,2930.1781990000163,2930.1781990000163,2930.678412600013,2930.678412600013,2933.178317400016,2933.178317400016,2933.162776800018,None,1.0,,,,,,,,,,,,,,,,,,,,,,,,,,,,,,,,,,,,,,,,,,,,,nback34,1.0,2023-12-18_13h55.48.507,untitled,2023.2.3,59.797203760904985,2023-12-18 14h19.09.283209 -0500,
11.0,"[-0.64, -0.4]",space,0.0,35.0,35.0,35.0,,,,,,,,,2933.178317400016,,,,,,,,,,,,,,,,,,,,,,,,,,,,2933.163500499999,2933.178317400016,2933.178317400016,2933.678333899996,2933.678333899996,2936.178327300004,2936.178327300004,2936.16252860002,space,1.0,0.4529061000212095,None,,,,,,,,,,,,,,,,,,,,,,,,,,,,,,,,,,,,,,,,,,,nback34,1.0,2023-12-18_13h55.48.507,untitled,2023.2.3,59.797203760904985,2023-12-18 14h19.09.283209 -0500,
4.0,"[-0.2, 0.1]",None,0.0,36.0,36.0,36.0,,,,,,,,,2936.178327300004,,,,,,,,,,,,,,,,,,,,,,,,,,,,2936.163360900013,2936.178327300004,2936.178327300004,2936.678397100012,2936.678397100012,2939.178276999999,2939.178276999999,2939.1626536000117,None,1.0,,,,,,,,,,,,,,,,,,,,,,,,,,,,,,,,,,,,,,,,,,,,,nback34,1.0,2023-12-18_13h55.48.507,untitled,2023.2.3,59.797203760904985,2023-12-18 14h19.09.283209 -0500,
5.0,"[0.2, 0.1]",None,0.0,37.0,37.0,37.0,,,,,,,,,2939.178276999999,,,,,,,,,,,,,,,,,,,,,,,,,,,,2939.163494000008,2939.178276999999,2939.178276999999,2939.67825170001,2939.67825170001,2942.1782154999964,2942.1782154999964,2942.162357699999,None,1.0,,,,,,,,,,,,,,,,,,,,,,,,,,,,,,,,,,,,,,,,,,,,,nback34,1.0,2023-12-18_13h55.48.507,untitled,2023.2.3,59.797203760904985,2023-12-18 14h19.09.283209 -0500,
6.0,"[-0.3, 0]",None,0.0,38.0,38.0,38.0,,,,,,,,,2942.1782154999964,,,,,,,,,,,,,,,,,,,,,,,,,,,,2942.1629681000195,2942.1782154999964,2942.1782154999964,2942.678126600018,2942.678126600018,2945.1779903999995,2945.1779903999995,2945.1622068000142,None,1.0,,,,,,,,,,,,,,,,,,,,,,,,,,,,,,,,,,,,,,,,,,,,,nback34,1.0,2023-12-18_13h55.48.507,untitled,2023.2.3,59.797203760904985,2023-12-18 14h19.09.283209 -0500,
11.0,"[-0.64, -0.4]",space,0.0,39.0,39.0,39.0,,,,,,,,,2945.1779903999995,,,,,,,,,,,,,,,,,,,,,,,,,,,,2945.162943000003,2945.1779903999995,2945.1779903999995,2945.678434100002,2945.678434100002,2948.178442200005,2948.178442200005,2948.1621589999995,space,1.0,0.7744774000020698,None,,,,,,,,,,,,,,,,,,,,,,,,,,,,,,,,,,,,,,,,,,,nback34,1.0,2023-12-18_13h55.48.507,untitled,2023.2.3,59.797203760904985,2023-12-18 14h19.09.283209 -0500,
,,,,,,,,,,,,,,,,,,,,,,,,,,,,,,,,,,,,,,,,,,,,,,,,,,,,,,,2948.162826600019,2948.178442200005,2948.178442200005,2971.062658300012,space,22.868772200017705,None,,,,,,,,,,,,,,,,,,,,,,,,,,,,,,,,,,,,nback34,1.0,2023-12-18_13h55.48.507,untitled,2023.2.3,59.797203760904985,2023-12-18 14h19.09.283209 -0500,
10.0,"[0, -0.2]",None,,,,,0.0,0.0,0.0,0.0,,,,,2972.0777974000084,,,,,,,,,,,,,,,,,,,,,,,,2971.0627004000125,2971.0776328000065,2972.0777974000084,2972.0622125999944,,,,,,,,,,,,,,,,,,,,2972.0705948999966,2972.0777974000084,2972.0777974000084,2972.5776345000195,2972.5776345000195,2975.0777611999947,2975.0777611999947,2975.062052399997,None,1.0,,,,,,,,,,,,,,,,,,,,,,,,,,nback34,1.0,2023-12-18_13h55.48.507,untitled,2023.2.3,59.797203760904985,2023-12-18 14h19.09.283209 -0500,
5.0,"[0.2, 0.1]",None,,,,,0.0,1.0,1.0,1.0,,,,,2975.0777611999947,,,,,,,,,,,,,,,,,,,,,,,,,,,,,,,,,,,,,,,,,,,,,,,2975.063001700008,2975.0777611999947,2975.0777611999947,2975.5777335000166,2975.5777335000166,2978.077450400014,2978.077450400014,2978.0616746000014,None,1.0,,,,,,,,,,,,,,,,,,,,,,,,,,nback34,1.0,2023-12-18_13h55.48.507,untitled,2023.2.3,59.797203760904985,2023-12-18 14h19.09.283209 -0500,
6.0,"[-0.3, 0]",None,,,,,0.0,2.0,2.0,2.0,,,,,2978.077450400014,,,,,,,,,,,,,,,,,,,,,,,,,,,,,,,,,,,,,,,,,,,,,,,2978.062277699996,2978.077450400014,2978.077450400014,2978.5775217000046,2978.5775217000046,2981.0774863999977,2981.0774863999977,2981.0617215000093,None,1.0,,,,,,,,,,,,,,,,,,,,,,,,,,nback34,1.0,2023-12-18_13h55.48.507,untitled,2023.2.3,59.797203760904985,2023-12-18 14h19.09.283209 -0500,
6.0,"[-0.3, 0]",space,,,,,0.0,3.0,3.0,3.0,,,,,2981.0774863999977,,,,,,,,,,,,,,,,,,,,,,,,,,,,,,,,,,,,,,,,,,,,,,,2981.0623679000128,2981.0774863999977,2981.0774863999977,2981.577537600009,2981.577537600009,2984.077484600013,2984.077484600013,2984.061862200004,None,0.0,,,,,,,,,,,,,,,,,,,,,,,,,,nback34,1.0,2023-12-18_13h55.48.507,untitled,2023.2.3,59.797203760904985,2023-12-18 14h19.09.283209 -0500,
12.0,"[0.64, -0.4]",None,,,,,0.0,4.0,4.0,4.0,,,,,2984.077484600013,,,,,,,,,,,,,,,,,,,,,,,,,,,,,,,,,,,,,,,,,,,,,,,2984.0626448999974,2984.077484600013,2984.077484600013,2984.5774901999976,2984.5774901999976,2987.0775142000057,2987.0775142000057,2987.0619418999995,None,1.0,,,,,,,,,,,,,,,,,,,,,,,,,,nback34,1.0,2023-12-18_13h55.48.507,untitled,2023.2.3,59.797203760904985,2023-12-18 14h19.09.283209 -0500,
10.0,"[0, -0.2]",None,,,,,0.0,5.0,5.0,5.0,,,,,2987.0775142000057,,,,,,,,,,,,,,,,,,,,,,,,,,,,,,,,,,,,,,,,,,,,,,,2987.06279690002,2987.0775142000057,2987.0775142000057,2987.5773292999947,2987.5773292999947,2990.077416300017,2990.077416300017,2990.0617719000147,None,1.0,,,,,,,,,,,,,,,,,,,,,,,,,,nback34,1.0,2023-12-18_13h55.48.507,untitled,2023.2.3,59.797203760904985,2023-12-18 14h19.09.283209 -0500,
2.0,"[0.64, 0.4]",None,,,,,0.0,6.0,6.0,6.0,,,,,2990.077416300017,,,,,,,,,,,,,,,,,,,,,,,,,,,,,,,,,,,,,,,,,,,,,,,2990.062609500019,2990.077416300017,2990.077416300017,2990.57720640002,2990.57720640002,2993.077503000008,2993.077503000008,2993.061504000012,None,1.0,,,,,,,,,,,,,,,,,,,,,,,,,,nback34,1.0,2023-12-18_13h55.48.507,untitled,2023.2.3,59.797203760904985,2023-12-18 14h19.09.283209 -0500,
9.0,"[0.2, -0.1]",None,,,,,0.0,7.0,7.0,7.0,,,,,2993.077503000008,,,,,,,,,,,,,,,,,,,,,,,,,,,,,,,,,,,,,,,,,,,,,,,2993.0623117000214,2993.077503000008,2993.077503000008,2993.577166600008,2993.577166600008,2996.0773875000014,2996.0773875000014,2996.061773499998,None,1.0,,,,,,,,,,,,,,,,,,,,,,,,,,nback34,1.0,2023-12-18_13h55.48.507,untitled,2023.2.3,59.797203760904985,2023-12-18 14h19.09.283209 -0500,
9.0,"[0.2, -0.1]",space,,,,,0.0,8.0,8.0,8.0,,,,,2996.0773875000014,,,,,,,,,,,,,,,,,,,,,,,,,,,,,,,,,,,,,,,,,,,,,,,2996.0625838999986,2996.0773875000014,2996.0773875000014,2996.5772400000133,2996.5772400000133,2999.0771152000234,2999.0771152000234,2999.061341499997,space,1.0,0.8599367999995593,None,,,,,,,,,,,,,,,,,,,,,,,,nback34,1.0,2023-12-18_13h55.48.507,untitled,2023.2.3,59.797203760904985,2023-12-18 14h19.09.283209 -0500,
6.0,"[-0.3, 0]",None,,,,,0.0,9.0,9.0,9.0,,,,,2999.0771152000234,,,,,,,,,,,,,,,,,,,,,,,,,,,,,,,,,,,,,,,,,,,,,,,2999.0622044000197,2999.0771152000234,2999.0771152000234,2999.577042400022,2999.577042400022,3002.0771760000207,3002.0771760000207,3002.0614840000053,None,1.0,,,,,,,,,,,,,,,,,,,,,,,,,,nback34,1.0,2023-12-18_13h55.48.507,untitled,2023.2.3,59.797203760904985,2023-12-18 14h19.09.283209 -0500,
11.0,"[-0.64, -0.4]",None,,,,,0.0,10.0,10.0,10.0,,,,,3002.0771760000207,,,,,,,,,,,,,,,,,,,,,,,,,,,,,,,,,,,,,,,,,,,,,,,3002.062253800017,3002.0771760000207,3002.0771760000207,3002.5772959000024,3002.5772959000024,3005.0771405000123,3005.0771405000123,3005.061505599995,None,1.0,,,,,,,,,,,,,,,,,,,,,,,,,,nback34,1.0,2023-12-18_13h55.48.507,untitled,2023.2.3,59.797203760904985,2023-12-18 14h19.09.283209 -0500,
11.0,"[-0.64, -0.4]",space,,,,,0.0,11.0,11.0,11.0,,,,,3005.0771405000123,,,,,,,,,,,,,,,,,,,,,,,,,,,,,,,,,,,,,,,,,,,,,,,3005.0622365000017,3005.0771405000123,3005.0771405000123,3005.577256799996,3005.577256799996,3008.077217100013,3008.077217100013,3008.061204700003,space,1.0,0.6856649999972433,None,,,,,,,,,,,,,,,,,,,,,,,,nback34,1.0,2023-12-18_13h55.48.507,untitled,2023.2.3,59.797203760904985,2023-12-18 14h19.09.283209 -0500,
4.0,"[-0.2, 0.1]",None,,,,,0.0,12.0,12.0,12.0,,,,,3008.077217100013,,,,,,,,,,,,,,,,,,,,,,,,,,,,,,,,,,,,,,,,,,,,,,,3008.0619754000218,3008.077217100013,3008.077217100013,3008.577130999998,3008.577130999998,3011.077060200012,3011.077060200012,3011.0612281000067,None,1.0,,,,,,,,,,,,,,,,,,,,,,,,,,nback34,1.0,2023-12-18_13h55.48.507,untitled,2023.2.3,59.797203760904985,2023-12-18 14h19.09.283209 -0500,
3.0,"[0, 0.2]",None,,,,,0.0,13.0,13.0,13.0,,,,,3011.077060200012,,,,,,,,,,,,,,,,,,,,,,,,,,,,,,,,,,,,,,,,,,,,,,,3011.061946600006,3011.077060200012,3011.077060200012,3011.5768379000074,3011.5768379000074,3014.076858100016,3014.076858100016,3014.0610659999948,None,1.0,,,,,,,,,,,,,,,,,,,,,,,,,,nback34,1.0,2023-12-18_13h55.48.507,untitled,2023.2.3,59.797203760904985,2023-12-18 14h19.09.283209 -0500,
3.0,"[0, 0.2]",space,,,,,0.0,14.0,14.0,14.0,,,,,3014.076858100016,,,,,,,,,,,,,,,,,,,,,,,,,,,,,,,,,,,,,,,,,,,,,,,3014.061643199995,3014.076858100016,3014.076858100016,3014.5769940000027,3014.5769940000027,3017.076927999995,3017.076927999995,3017.061068800016,space,1.0,0.7964404000085779,None,,,,,,,,,,,,,,,,,,,,,,,,nback34,1.0,2023-12-18_13h55.48.507,untitled,2023.2.3,59.797203760904985,2023-12-18 14h19.09.283209 -0500,
8.0,"[-0.2, -0.1]",None,,,,,0.0,15.0,15.0,15.0,,,,,3017.076927999995,,,,,,,,,,,,,,,,,,,,,,,,,,,,,,,,,,,,,,,,,,,,,,,3017.0618345999974,3017.076927999995,3017.076927999995,3017.5769795000087,3017.5769795000087,3020.076869800017,3020.076869800017,3020.061070900003,None,1.0,,,,,,,,,,,,,,,,,,,,,,,,,,nback34,1.0,2023-12-18_13h55.48.507,untitled,2023.2.3,59.797203760904985,2023-12-18 14h19.09.283209 -0500,
1.0,"[-0.64, 0.4]",None,,,,,0.0,16.0,16.0,16.0,,,,,3020.076869800017,,,,,,,,,,,,,,,,,,,,,,,,,,,,,,,,,,,,,,,,,,,,,,,3020.0618893000064,3020.076869800017,3020.076869800017,3020.5768607000064,3020.5768607000064,3023.0768848000157,3023.0768848000157,3023.0609646000084,None,1.0,,,,,,,,,,,,,,,,,,,,,,,,,,nback34,1.0,2023-12-18_13h55.48.507,untitled,2023.2.3,59.797203760904985,2023-12-18 14h19.09.283209 -0500,
2.0,"[0.64, 0.4]",None,,,,,0.0,17.0,17.0,17.0,,,,,3023.0768848000157,,,,,,,,,,,,,,,,,,,,,,,,,,,,,,,,,,,,,,,,,,,,,,,3023.061646900024,3023.0768848000157,3023.0768848000157,3023.5768146000046,3023.5768146000046,3026.076760900003,3026.076760900003,3026.0605963999988,None,1.0,,,,,,,,,,,,,,,,,,,,,,,,,,nback34,1.0,2023-12-18_13h55.48.507,untitled,2023.2.3,59.797203760904985,2023-12-18 14h19.09.283209 -0500,
4.0,"[-0.2, 0.1]",None,,,,,0.0,18.0,18.0,18.0,,,,,3026.076760900003,,,,,,,,,,,,,,,,,,,,,,,,,,,,,,,,,,,,,,,,,,,,,,,3026.061104799999,3026.076760900003,3026.076760900003,3026.5767919000064,3026.5767919000064,3029.0766575000016,3029.0766575000016,3029.0604938000038,None,1.0,,,,,,,,,,,,,,,,,,,,,,,,,,nback34,1.0,2023-12-18_13h55.48.507,untitled,2023.2.3,59.797203760904985,2023-12-18 14h19.09.283209 -0500,
4.0,"[-0.2, 0.1]",space,,,,,0.0,19.0,19.0,19.0,,,,,3029.0766575000016,,,,,,,,,,,,,,,,,,,,,,,,,,,,,,,,,,,,,,,,,,,,,,,3029.061023700022,3029.0766575000016,3029.0766575000016,3029.576774200017,3029.576774200017,3032.076882299996,3032.076882299996,3032.0609687000106,space,1.0,1.320617499994114,None,,,,,,,,,,,,,,,,,,,,,,,,nback34,1.0,2023-12-18_13h55.48.507,untitled,2023.2.3,59.797203760904985,2023-12-18 14h19.09.283209 -0500,
8.0,"[-0.2, -0.1]",None,,,,,0.0,20.0,20.0,20.0,,,,,3032.076882299996,,,,,,,,,,,,,,,,,,,,,,,,,,,,,,,,,,,,,,,,,,,,,,,3032.061924400012,3032.076882299996,3032.076882299996,3032.576737700001,3032.576737700001,3035.076494000008,3035.076494000008,3035.0610031000106,None,1.0,,,,,,,,,,,,,,,,,,,,,,,,,,nback34,1.0,2023-12-18_13h55.48.507,untitled,2023.2.3,59.797203760904985,2023-12-18 14h19.09.283209 -0500,
5.0,"[0.2, 0.1]",None,,,,,0.0,21.0,21.0,21.0,,,,,3035.076494000008,,,,,,,,,,,,,,,,,,,,,,,,,,,,,,,,,,,,,,,,,,,,,,,3035.0618739000056,3035.076494000008,3035.076494000008,3035.5766964000068,3035.5766964000068,3038.076759000018,3038.076759000018,3038.0607191000017,None,1.0,,,,,,,,,,,,,,,,,,,,,,,,,,nback34,1.0,2023-12-18_13h55.48.507,untitled,2023.2.3,59.797203760904985,2023-12-18 14h19.09.283209 -0500,
5.0,"[0.2, 0.1]",space,,,,,0.0,22.0,22.0,22.0,,,,,3038.076759000018,,,,,,,,,,,,,,,,,,,,,,,,,,,,,,,,,,,,,,,,,,,,,,,3038.0613989999983,3038.076759000018,3038.076759000018,3038.576606300019,3038.576606300019,3041.0764165,3041.0764165,3041.060516700003,space,1.0,1.6319730000104755,None,,,,,,,,,,,,,,,,,,,,,,,,nback34,1.0,2023-12-18_13h55.48.507,untitled,2023.2.3,59.797203760904985,2023-12-18 14h19.09.283209 -0500,
1.0,"[-0.64, 0.4]",None,,,,,0.0,23.0,23.0,23.0,,,,,3041.0764165,,,,,,,,,,,,,,,,,,,,,,,,,,,,,,,,,,,,,,,,,,,,,,,3041.0612639000174,3041.0764165,3041.0764165,3041.576455500006,3041.576455500006,3044.076316699997,3044.076316699997,3044.0605477000063,None,1.0,,,,,,,,,,,,,,,,,,,,,,,,,,nback34,1.0,2023-12-18_13h55.48.507,untitled,2023.2.3,59.797203760904985,2023-12-18 14h19.09.283209 -0500,
3.0,"[0, 0.2]",None,,,,,0.0,24.0,24.0,24.0,,,,,3044.076316699997,,,,,,,,,,,,,,,,,,,,,,,,,,,,,,,,,,,,,,,,,,,,,,,3044.061139500001,3044.076316699997,3044.076316699997,3044.5764598000096,3044.5764598000096,3047.0763209,3047.0763209,3047.060419300018,None,1.0,,,,,,,,,,,,,,,,,,,,,,,,,,nback34,1.0,2023-12-18_13h55.48.507,untitled,2023.2.3,59.797203760904985,2023-12-18 14h19.09.283209 -0500,
6.0,"[-0.3, 0]",None,,,,,0.0,25.0,25.0,25.0,,,,,3047.0763209,,,,,,,,,,,,,,,,,,,,,,,,,,,,,,,,,,,,,,,,,,,,,,,3047.061013700004,3047.0763209,3047.0763209,3047.576429800014,3047.576429800014,3050.0763529000105,3050.0763529000105,3050.0605422000226,None,1.0,,,,,,,,,,,,,,,,,,,,,,,,,,nback34,1.0,2023-12-18_13h55.48.507,untitled,2023.2.3,59.797203760904985,2023-12-18 14h19.09.283209 -0500,
1.0,"[-0.64, 0.4]",None,,,,,0.0,26.0,26.0,26.0,,,,,3050.0763529000105,,,,,,,,,,,,,,,,,,,,,,,,,,,,,,,,,,,,,,,,,,,,,,,3050.0612386,3050.0763529000105,3050.0763529000105,3050.5763910000096,3050.5763910000096,3053.076307500014,3053.076307500014,3053.0605095000064,None,1.0,,,,,,,,,,,,,,,,,,,,,,,,,,nback34,1.0,2023-12-18_13h55.48.507,untitled,2023.2.3,59.797203760904985,2023-12-18 14h19.09.283209 -0500,
1.0,"[-0.64, 0.4]",space,,,,,0.0,27.0,27.0,27.0,,,,,3053.076307500014,,,,,,,,,,,,,,,,,,,,,,,,,,,,,,,,,,,,,,,,,,,,,,,3053.06114190002,3053.076307500014,3053.076307500014,3053.5762882000126,3053.5762882000126,3056.076263800001,3056.076263800001,3056.060438100016,space,1.0,0.9334804999816696,None,,,,,,,,,,,,,,,,,,,,,,,,nback34,1.0,2023-12-18_13h55.48.507,untitled,2023.2.3,59.797203760904985,2023-12-18 14h19.09.283209 -0500,
1.0,"[-0.64, 0.4]",space,,,,,0.0,28.0,28.0,28.0,,,,,3056.076263800001,,,,,,,,,,,,,,,,,,,,,,,,,,,,,,,,,,,,,,,,,,,,,,,3056.061215199996,3056.076263800001,3056.076263800001,3056.5761859000195,3056.5761859000195,3059.076288900018,3059.076288900018,3059.0606683000224,None,0.0,,,,,,,,,,,,,,,,,,,,,,,,,,nback34,1.0,2023-12-18_13h55.48.507,untitled,2023.2.3,59.797203760904985,2023-12-18 14h19.09.283209 -0500,
3.0,"[0, 0.2]",None,,,,,0.0,29.0,29.0,29.0,,,,,3059.076288900018,,,,,,,,,,,,,,,,,,,,,,,,,,,,,,,,,,,,,,,,,,,,,,,3059.0614873000013,3059.076288900018,3059.076288900018,3059.5763240000238,3059.5763240000238,3062.076309600001,3062.076309600001,3062.060476600018,None,1.0,,,,,,,,,,,,,,,,,,,,,,,,,,nback34,1.0,2023-12-18_13h55.48.507,untitled,2023.2.3,59.797203760904985,2023-12-18 14h19.09.283209 -0500,
12.0,"[0.64, -0.4]",None,,,,,0.0,30.0,30.0,30.0,,,,,3062.076309600001,,,,,,,,,,,,,,,,,,,,,,,,,,,,,,,,,,,,,,,,,,,,,,,3062.0611858000048,3062.076309600001,3062.076309600001,3062.5760084000067,3062.5760084000067,3065.075997000007,3065.075997000007,3065.060193000012,None,1.0,,,,,,,,,,,,,,,,,,,,,,,,,,nback34,1.0,2023-12-18_13h55.48.507,untitled,2023.2.3,59.797203760904985,2023-12-18 14h19.09.283209 -0500,
12.0,"[0.64, -0.4]",space,,,,,0.0,31.0,31.0,31.0,,,,,3065.075997000007,,,,,,,,,,,,,,,,,,,,,,,,,,,,,,,,,,,,,,,,,,,,,,,3065.060910900007,3065.075997000007,3065.075997000007,3065.576052300021,3065.576052300021,3068.0760395000107,3068.0760395000107,3068.0604220000096,space,1.0,0.4394838000007439,None,,,,,,,,,,,,,,,,,,,,,,,,nback34,1.0,2023-12-18_13h55.48.507,untitled,2023.2.3,59.797203760904985,2023-12-18 14h19.09.283209 -0500,
2.0,"[0.64, 0.4]",None,,,,,0.0,32.0,32.0,32.0,,,,,3068.0760395000107,,,,,,,,,,,,,,,,,,,,,,,,,,,,,,,,,,,,,,,,,,,,,,,3068.0611858000048,3068.0760395000107,3068.0760395000107,3068.575890900014,3068.575890900014,3071.0760068999957,3071.0760068999957,3071.0603007000173,None,1.0,,,,,,,,,,,,,,,,,,,,,,,,,,nback34,1.0,2023-12-18_13h55.48.507,untitled,2023.2.3,59.797203760904985,2023-12-18 14h19.09.283209 -0500,
1.0,"[-0.64, 0.4]",None,,,,,0.0,33.0,33.0,33.0,,,,,3071.0760068999957,,,,,,,,,,,,,,,,,,,,,,,,,,,,,,,,,,,,,,,,,,,,,,,3071.0609857999957,3071.0760068999957,3071.0760068999957,3071.5760997000034,3071.5760997000034,3074.076000300003,3074.076000300003,3074.0602105,None,1.0,,,,,,,,,,,,,,,,,,,,,,,,,,nback34,1.0,2023-12-18_13h55.48.507,untitled,2023.2.3,59.797203760904985,2023-12-18 14h19.09.283209 -0500,
7.0,"[0.3, 0]",None,,,,,0.0,34.0,34.0,34.0,,,,,3074.076000300003,,,,,,,,,,,,,,,,,,,,,,,,,,,,,,,,,,,,,,,,,,,,,,,3074.060886499996,3074.076000300003,3074.076000300003,3074.575838799996,3074.575838799996,3077.0758821000054,3077.0758821000054,3077.0600093000103,None,1.0,,,,,,,,,,,,,,,,,,,,,,,,,,nback34,1.0,2023-12-18_13h55.48.507,untitled,2023.2.3,59.797203760904985,2023-12-18 14h19.09.283209 -0500,
7.0,"[0.3, 0]",space,,,,,0.0,35.0,35.0,35.0,,,,,3077.0758821000054,,,,,,,,,,,,,,,,,,,,,,,,,,,,,,,,,,,,,,,,,,,,,,,3077.0606578000006,3077.0758821000054,3077.0758821000054,3077.5760030999954,3077.5760030999954,3080.075873599999,3080.075873599999,3080.0602608000045,space,1.0,0.612404699990293,None,,,,,,,,,,,,,,,,,,,,,,,,nback34,1.0,2023-12-18_13h55.48.507,untitled,2023.2.3,59.797203760904985,2023-12-18 14h19.09.283209 -0500,
11.0,"[-0.64, -0.4]",None,,,,,0.0,36.0,36.0,36.0,,,,,3080.075873599999,,,,,,,,,,,,,,,,,,,,,,,,,,,,,,,,,,,,,,,,,,,,,,,3080.0611887999985,3080.075873599999,3080.075873599999,3080.5758476000046,3080.5758476000046,3083.0757357999973,3083.0757357999973,3083.0601086000097,None,1.0,,,,,,,,,,,,,,,,,,,,,,,,,,nback34,1.0,2023-12-18_13h55.48.507,untitled,2023.2.3,59.797203760904985,2023-12-18 14h19.09.283209 -0500,
2.0,"[0.64, 0.4]",None,,,,,0.0,37.0,37.0,37.0,,,,,3083.0757357999973,,,,,,,,,,,,,,,,,,,,,,,,,,,,,,,,,,,,,,,,,,,,,,,3083.060854100011,3083.0757357999973,3083.0757357999973,3083.575861599995,3083.575861599995,3086.075677100016,3086.075677100016,3086.059838200017,None,1.0,,,,,,,,,,,,,,,,,,,,,,,,,,nback34,1.0,2023-12-18_13h55.48.507,untitled,2023.2.3,59.797203760904985,2023-12-18 14h19.09.283209 -0500,
6.0,"[-0.3, 0]",None,,,,,0.0,38.0,38.0,38.0,,,,,3086.075677100016,,,,,,,,,,,,,,,,,,,,,,,,,,,,,,,,,,,,,,,,,,,,,,,3086.060616600007,3086.075677100016,3086.075677100016,3086.575796300021,3086.575796300021,3089.0758164,3089.0758164,3089.0597158000164,None,1.0,,,,,,,,,,,,,,,,,,,,,,,,,,nback34,1.0,2023-12-18_13h55.48.507,untitled,2023.2.3,59.797203760904985,2023-12-18 14h19.09.283209 -0500,
10.0,"[0, -0.2]",None,,,,,0.0,39.0,39.0,39.0,,,,,3089.0758164,,,,,,,,,,,,,,,,,,,,,,,,,,,,,,,,,,,,,,,,,,,,,,,3089.060401099996,3089.0758164,3089.0758164,3089.57574,3089.57574,3092.075595000002,3092.075595000002,3092.05963850001,None,1.0,,,,,,,,,,,,,,,,,,,,,,,,,,nback34,1.0,2023-12-18_13h55.48.507,untitled,2023.2.3,59.797203760904985,2023-12-18 14h19.09.283209 -0500,
,,,,,,,,,,,,,,,,,,,,,,,,,,,,,,,,,,,,,,,,,,,,,,,,,,,,,,,,,,,,,,,,,,,,,,,,,,3092.060116800014,3092.075595000002,3092.075595000002,3176.30907410002,space,84.23076080001192,None,,,,,,,,,,,,,,,,,nback34,1.0,2023-12-18_13h55.48.507,untitled,2023.2.3,59.797203760904985,2023-12-18 14h19.09.283209 -0500,
,"[0.2, 0.1]",None,,,,,,,,,0.0,0.0,0.0,0.0,3177.323866300023,,,,,,,,,,,,,,,,,,,,,,,,3176.309114500007,3176.324205800018,3177.323866300023,3177.3083832999982,,,,,,,,,,,,,,,,,,,,,,,,,,,,,,,,,,,,,,,3177.3173198000004,3177.323866300023,3177.323866300023,3177.8241309000005,3177.8241309000005,3180.3239190000168,3180.3239190000168,3180.3085354000214,None,1.0,,,,,,,nback34,1.0,2023-12-18_13h55.48.507,untitled,2023.2.3,59.797203760904985,2023-12-18 14h19.09.283209 -0500,
,"[0.64, 0.4]",None,,,,,,,,,0.0,1.0,1.0,1.0,3180.3239190000168,,,,,,,,,,,,,,,,,,,,,,,,,,,,,,,,,,,,,,,,,,,,,,,,,,,,,,,,,,,,,,,,,,3180.3094239000056,3180.3239190000168,3180.3239190000168,3180.8239662999986,3180.8239662999986,3183.323974800005,3183.323974800005,3183.308373100008,None,1.0,,,,,,,nback34,1.0,2023-12-18_13h55.48.507,untitled,2023.2.3,59.797203760904985,2023-12-18 14h19.09.283209 -0500,
,"[-0.3, 0]",None,,,,,,,,,0.0,2.0,2.0,2.0,3183.323974800005,,,,,,,,,,,,,,,,,,,,,,,,,,,,,,,,,,,,,,,,,,,,,,,,,,,,,,,,,,,,,,,,,,3183.3087852000026,3183.323974800005,3183.323974800005,3183.824088900001,3183.824088900001,3186.323911000014,3186.323911000014,3186.30791470001,None,1.0,,,,,,,nback34,1.0,2023-12-18_13h55.48.507,untitled,2023.2.3,59.797203760904985,2023-12-18 14h19.09.283209 -0500,
,"[0.2, -0.1]",None,,,,,,,,,0.0,3.0,3.0,3.0,3186.323911000014,,,,,,,,,,,,,,,,,,,,,,,,,,,,,,,,,,,,,,,,,,,,,,,,,,,,,,,,,,,,,,,,,,3186.308528900001,3186.323911000014,3186.323911000014,3186.823809499998,3186.823809499998,3189.3239406000066,3189.3239406000066,3189.308214300021,None,1.0,,,,,,,nback34,1.0,2023-12-18_13h55.48.507,untitled,2023.2.3,59.797203760904985,2023-12-18 14h19.09.283209 -0500,
,"[0, 0.2]",None,,,,,,,,,0.0,4.0,4.0,4.0,3189.3239406000066,,,,,,,,,,,,,,,,,,,,,,,,,,,,,,,,,,,,,,,,,,,,,,,,,,,,,,,,,,,,,,,,,,3189.30894040002,3189.3239406000066,3189.3239406000066,3189.824201600015,3189.824201600015,3192.3240015000047,3192.3240015000047,3192.3079305000138,None,1.0,,,,,,,nback34,1.0,2023-12-18_13h55.48.507,untitled,2023.2.3,59.797203760904985,2023-12-18 14h19.09.283209 -0500,
,"[0.2, -0.1]",space,,,,,,,,,0.0,5.0,5.0,5.0,3192.3240015000047,,,,,,,,,,,,,,,,,,,,,,,,,,,,,,,,,,,,,,,,,,,,,,,,,,,,,,,,,,,,,,,,,,3192.3085708,3192.3240015000047,3192.3240015000047,3192.8238896999974,3192.8238896999974,3195.3239183000114,3195.3239183000114,3195.3081975000096,space,1.0,0.8244383000128437,None,,,,,nback34,1.0,2023-12-18_13h55.48.507,untitled,2023.2.3,59.797203760904985,2023-12-18 14h19.09.283209 -0500,
,"[0, -0.2]",None,,,,,,,,,0.0,6.0,6.0,6.0,3195.3239183000114,,,,,,,,,,,,,,,,,,,,,,,,,,,,,,,,,,,,,,,,,,,,,,,,,,,,,,,,,,,,,,,,,,3195.3093751000124,3195.3239183000114,3195.3239183000114,3195.823781700019,3195.823781700019,3198.3237335000013,3198.3237335000013,3198.3077002000064,None,1.0,,,,,,,nback34,1.0,2023-12-18_13h55.48.507,untitled,2023.2.3,59.797203760904985,2023-12-18 14h19.09.283209 -0500,
,"[0.64, -0.4]",None,,,,,,,,,0.0,7.0,7.0,7.0,3198.3237335000013,,,,,,,,,,,,,,,,,,,,,,,,,,,,,,,,,,,,,,,,,,,,,,,,,,,,,,,,,,,,,,,,,,3198.308221300016,3198.3237335000013,3198.3237335000013,3198.8238896999974,3198.8238896999974,3201.323802400002,3201.323802400002,3201.3080451000133,None,1.0,,,,,,,nback34,1.0,2023-12-18_13h55.48.507,untitled,2023.2.3,59.797203760904985,2023-12-18 14h19.09.283209 -0500,
,"[0.3, 0]",None,,,,,,,,,0.0,8.0,8.0,8.0,3201.323802400002,,,,,,,,,,,,,,,,,,,,,,,,,,,,,,,,,,,,,,,,,,,,,,,,,,,,,,,,,,,,,,,,,,3201.3087289000105,3201.323802400002,3201.323802400002,3201.823782599997,3201.823782599997,3204.323760500003,3204.323760500003,3204.3081283000065,None,1.0,,,,,,,nback34,1.0,2023-12-18_13h55.48.507,untitled,2023.2.3,59.797203760904985,2023-12-18 14h19.09.283209 -0500,
,"[0.64, -0.4]",space,,,,,,,,,0.0,9.0,9.0,9.0,3204.323760500003,,,,,,,,,,,,,,,,,,,,,,,,,,,,,,,,,,,,,,,,,,,,,,,,,,,,,,,,,,,,,,,,,,3204.3090789999987,3204.323760500003,3204.323760500003,3204.823751000018,3204.823751000018,3207.323648999998,3207.323648999998,3207.308050200023,None,0.0,,,,,,,nback34,1.0,2023-12-18_13h55.48.507,untitled,2023.2.3,59.797203760904985,2023-12-18 14h19.09.283209 -0500,
,"[-0.64, 0.4]",None,,,,,,,,,0.0,10.0,10.0,10.0,3207.323648999998,,,,,,,,,,,,,,,,,,,,,,,,,,,,,,,,,,,,,,,,,,,,,,,,,,,,,,,,,,,,,,,,,,3207.308882500016,3207.323648999998,3207.323648999998,3207.8236057000177,3207.8236057000177,3210.323527100001,3210.323527100001,3210.30785740001,None,1.0,,,,,,,nback34,1.0,2023-12-18_13h55.48.507,untitled,2023.2.3,59.797203760904985,2023-12-18 14h19.09.283209 -0500,
,"[0.2, 0.1]",None,,,,,,,,,0.0,11.0,11.0,11.0,3210.323527100001,,,,,,,,,,,,,,,,,,,,,,,,,,,,,,,,,,,,,,,,,,,,,,,,,,,,,,,,,,,,,,,,,,3210.308661700022,3210.323527100001,3210.323527100001,3210.823664299998,3210.823664299998,3213.323378800007,3213.323378800007,3213.307563200011,None,1.0,,,,,,,nback34,1.0,2023-12-18_13h55.48.507,untitled,2023.2.3,59.797203760904985,2023-12-18 14h19.09.283209 -0500,
,"[0.3, 0]",None,,,,,,,,,0.0,12.0,12.0,12.0,3213.323378800007,,,,,,,,,,,,,,,,,,,,,,,,,,,,,,,,,,,,,,,,,,,,,,,,,,,,,,,,,,,,,,,,,,3213.308128900011,3213.323378800007,3213.323378800007,3213.8233824000054,3213.8233824000054,3216.3234148000192,3216.3234148000192,3216.3075671000115,None,1.0,,,,,,,nback34,1.0,2023-12-18_13h55.48.507,untitled,2023.2.3,59.797203760904985,2023-12-18 14h19.09.283209 -0500,
,"[0.2, 0.1]",space,,,,,,,,,0.0,13.0,13.0,13.0,3216.3234148000192,,,,,,,,,,,,,,,,,,,,,,,,,,,,,,,,,,,,,,,,,,,,,,,,,,,,,,,,,,,,,,,,,,3216.3082750000176,3216.3234148000192,3216.3234148000192,3216.823633699998,3216.823633699998,3219.3234409000142,3219.3234409000142,3219.307580499997,space,1.0,0.7371232000004966,None,,,,,nback34,1.0,2023-12-18_13h55.48.507,untitled,2023.2.3,59.797203760904985,2023-12-18 14h19.09.283209 -0500,
,"[-0.3, 0]",None,,,,,,,,,0.0,14.0,14.0,14.0,3219.3234409000142,,,,,,,,,,,,,,,,,,,,,,,,,,,,,,,,,,,,,,,,,,,,,,,,,,,,,,,,,,,,,,,,,,3219.308408800018,3219.3234409000142,3219.3234409000142,3219.8237281000183,3219.8237281000183,3222.323356000008,3222.323356000008,3222.3074370000104,None,1.0,,,,,,,nback34,1.0,2023-12-18_13h55.48.507,untitled,2023.2.3,59.797203760904985,2023-12-18 14h19.09.283209 -0500,
,"[0, 0.2]",None,,,,,,,,,0.0,15.0,15.0,15.0,3222.323356000008,,,,,,,,,,,,,,,,,,,,,,,,,,,,,,,,,,,,,,,,,,,,,,,,,,,,,,,,,,,,,,,,,,3222.3080828000093,3222.323356000008,3222.323356000008,3222.823300799995,3222.823300799995,3225.3235088000074,3225.3235088000074,3225.3077798000013,None,1.0,,,,,,,nback34,1.0,2023-12-18_13h55.48.507,untitled,2023.2.3,59.797203760904985,2023-12-18 14h19.09.283209 -0500,
,"[-0.3, 0]",space,,,,,,,,,0.0,16.0,16.0,16.0,3225.3235088000074,,,,,,,,,,,,,,,,,,,,,,,,,,,,,,,,,,,,,,,,,,,,,,,,,,,,,,,,,,,,,,,,,,3225.3086116000195,3225.3235088000074,3225.3235088000074,3225.8233210000035,3225.8233210000035,3228.323163299996,3228.323163299996,3228.307075699995,space,1.0,0.9524403999967036,None,,,,,nback34,1.0,2023-12-18_13h55.48.507,untitled,2023.2.3,59.797203760904985,2023-12-18 14h19.09.283209 -0500,
,"[-0.64, -0.4]",None,,,,,,,,,0.0,17.0,17.0,17.0,3228.323163299996,,,,,,,,,,,,,,,,,,,,,,,,,,,,,,,,,,,,,,,,,,,,,,,,,,,,,,,,,,,,,,,,,,3228.3076871999947,3228.323163299996,3228.323163299996,3228.823367900012,3228.823367900012,3231.323273200018,3231.323273200018,3231.307350600022,None,1.0,,,,,,,nback34,1.0,2023-12-18_13h55.48.507,untitled,2023.2.3,59.797203760904985,2023-12-18 14h19.09.283209 -0500,
,"[-0.2, -0.1]",None,,,,,,,,,0.0,18.0,18.0,18.0,3231.323273200018,,,,,,,,,,,,,,,,,,,,,,,,,,,,,,,,,,,,,,,,,,,,,,,,,,,,,,,,,,,,,,,,,,3231.308001199999,3231.323273200018,3231.323273200018,3231.823093600018,3231.823093600018,3234.3232318000228,3234.3232318000228,3234.307223700016,None,1.0,,,,,,,nback34,1.0,2023-12-18_13h55.48.507,untitled,2023.2.3,59.797203760904985,2023-12-18 14h19.09.283209 -0500,
,"[0.2, -0.1]",None,,,,,,,,,0.0,19.0,19.0,19.0,3234.3232318000228,,,,,,,,,,,,,,,,,,,,,,,,,,,,,,,,,,,,,,,,,,,,,,,,,,,,,,,,,,,,,,,,,,3234.3078660000174,3234.3232318000228,3234.3232318000228,3234.823213900003,3234.823213900003,3237.3231242000184,3237.3231242000184,3237.3073938000016,None,1.0,,,,,,,nback34,1.0,2023-12-18_13h55.48.507,untitled,2023.2.3,59.797203760904985,2023-12-18 14h19.09.283209 -0500,
,"[0.2, -0.1]",None,,,,,,,,,0.0,20.0,20.0,20.0,3237.3231242000184,,,,,,,,,,,,,,,,,,,,,,,,,,,,,,,,,,,,,,,,,,,,,,,,,,,,,,,,,,,,,,,,,,3237.308119000023,3237.3231242000184,3237.3231242000184,3237.8230399000167,3237.8230399000167,3240.322987599997,3240.322987599997,3240.3074272999947,None,1.0,,,,,,,nback34,1.0,2023-12-18_13h55.48.507,untitled,2023.2.3,59.797203760904985,2023-12-18 14h19.09.283209 -0500,
,"[-0.64, 0.4]",None,,,,,,,,,0.0,21.0,21.0,21.0,3240.322987599997,,,,,,,,,,,,,,,,,,,,,,,,,,,,,,,,,,,,,,,,,,,,,,,,,,,,,,,,,,,,,,,,,,3240.3082916999992,3240.322987599997,3240.322987599997,3240.8230546000123,3240.8230546000123,3243.3229719999945,3243.3229719999945,3243.3072359000216,None,1.0,,,,,,,nback34,1.0,2023-12-18_13h55.48.507,untitled,2023.2.3,59.797203760904985,2023-12-18 14h19.09.283209 -0500,
,"[0, 0.2]",None,,,,,,,,,0.0,22.0,22.0,22.0,3243.3229719999945,,,,,,,,,,,,,,,,,,,,,,,,,,,,,,,,,,,,,,,,,,,,,,,,,,,,,,,,,,,,,,,,,,3243.3079431000224,3243.3229719999945,3243.3229719999945,3243.822926299996,3243.822926299996,3246.322846099996,3246.322846099996,3246.307277200016,None,1.0,,,,,,,nback34,1.0,2023-12-18_13h55.48.507,untitled,2023.2.3,59.797203760904985,2023-12-18 14h19.09.283209 -0500,
,"[0.64, -0.4]",None,,,,,,,,,0.0,23.0,23.0,23.0,3246.322846099996,,,,,,,,,,,,,,,,,,,,,,,,,,,,,,,,,,,,,,,,,,,,,,,,,,,,,,,,,,,,,,,,,,3246.307922500011,3246.322846099996,3246.322846099996,3246.822847100004,3246.822847100004,3249.323087900004,3249.323087900004,3249.30738860002,None,1.0,,,,,,,nback34,1.0,2023-12-18_13h55.48.507,untitled,2023.2.3,59.797203760904985,2023-12-18 14h19.09.283209 -0500,
,"[0, 0.2]",space,,,,,,,,,0.0,24.0,24.0,24.0,3249.323087900004,,,,,,,,,,,,,,,,,,,,,,,,,,,,,,,,,,,,,,,,,,,,,,,,,,,,,,,,,,,,,,,,,,3249.308158400003,3249.323087900004,3249.323087900004,3249.823031900014,3249.823031900014,3252.322786200006,3252.322786200006,3252.3071444000234,space,1.0,1.0261452999839094,None,,,,,nback34,1.0,2023-12-18_13h55.48.507,untitled,2023.2.3,59.797203760904985,2023-12-18 14h19.09.283209 -0500,
,"[-0.2, 0.1]",None,,,,,,,,,0.0,25.0,25.0,25.0,3252.322786200006,,,,,,,,,,,,,,,,,,,,,,,,,,,,,,,,,,,,,,,,,,,,,,,,,,,,,,,,,,,,,,,,,,3252.308205700014,3252.322786200006,3252.322786200006,3252.8231486000004,3252.8231486000004,3255.3228857000067,3255.3228857000067,3255.3068271999946,None,1.0,,,,,,,nback34,1.0,2023-12-18_13h55.48.507,untitled,2023.2.3,59.797203760904985,2023-12-18 14h19.09.283209 -0500,
,"[0.3, 0]",None,,,,,,,,,0.0,26.0,26.0,26.0,3255.3228857000067,,,,,,,,,,,,,,,,,,,,,,,,,,,,,,,,,,,,,,,,,,,,,,,,,,,,,,,,,,,,,,,,,,3255.3074145000137,3255.3228857000067,3255.3228857000067,3255.8226637000043,3255.8226637000043,3258.3227686000173,3258.3227686000173,3258.3070291000186,None,1.0,,,,,,,nback34,1.0,2023-12-18_13h55.48.507,untitled,2023.2.3,59.797203760904985,2023-12-18 14h19.09.283209 -0500,
,"[-0.2, 0.1]",space,,,,,,,,,0.0,27.0,27.0,27.0,3258.3227686000173,,,,,,,,,,,,,,,,,,,,,,,,,,,,,,,,,,,,,,,,,,,,,,,,,,,,,,,,,,,,,,,,,,3258.307808500016,3258.3227686000173,3258.3227686000173,3258.8227631000045,3258.8227631000045,3261.3226296000066,3261.3226296000066,3261.307080900005,space,1.0,1.075642899988452,None,,,,,nback34,1.0,2023-12-18_13h55.48.507,untitled,2023.2.3,59.797203760904985,2023-12-18 14h19.09.283209 -0500,
,"[-0.2, 0.1]",None,,,,,,,,,0.0,28.0,28.0,28.0,3261.3226296000066,,,,,,,,,,,,,,,,,,,,,,,,,,,,,,,,,,,,,,,,,,,,,,,,,,,,,,,,,,,,,,,,,,3261.307996500021,3261.3226296000066,3261.3226296000066,3261.822578100022,3261.822578100022,3264.322825100011,3264.322825100011,3264.3070854000107,None,1.0,,,,,,,nback34,1.0,2023-12-18_13h55.48.507,untitled,2023.2.3,59.797203760904985,2023-12-18 14h19.09.283209 -0500,
,"[0.2, 0.1]",None,,,,,,,,,0.0,29.0,29.0,29.0,3264.322825100011,,,,,,,,,,,,,,,,,,,,,,,,,,,,,,,,,,,,,,,,,,,,,,,,,,,,,,,,,,,,,,,,,,3264.307919600018,3264.322825100011,3264.322825100011,3264.8227243,3264.8227243,3267.322679100005,3267.322679100005,3267.306554300012,None,1.0,,,,,,,nback34,1.0,2023-12-18_13h55.48.507,untitled,2023.2.3,59.797203760904985,2023-12-18 14h19.09.283209 -0500,
,"[-0.64, -0.4]",None,,,,,,,,,0.0,30.0,30.0,30.0,3267.322679100005,,,,,,,,,,,,,,,,,,,,,,,,,,,,,,,,,,,,,,,,,,,,,,,,,,,,,,,,,,,,,,,,,,3267.307228300022,3267.322679100005,3267.322679100005,3267.8223452999955,3267.8223452999955,3270.3224502000085,3270.3224502000085,3270.3068472000014,None,1.0,,,,,,,nback34,1.0,2023-12-18_13h55.48.507,untitled,2023.2.3,59.797203760904985,2023-12-18 14h19.09.283209 -0500,
,"[0, -0.2]",None,,,,,,,,,0.0,31.0,31.0,31.0,3270.3224502000085,,,,,,,,,,,,,,,,,,,,,,,,,,,,,,,,,,,,,,,,,,,,,,,,,,,,,,,,,,,,,,,,,,3270.307609500014,3270.3224502000085,3270.3224502000085,3270.822666499997,3270.822666499997,3273.3224140999955,3273.3224140999955,3273.3063734000025,None,1.0,,,,,,,nback34,1.0,2023-12-18_13h55.48.507,untitled,2023.2.3,59.797203760904985,2023-12-18 14h19.09.283209 -0500,
,"[-0.64, -0.4]",space,,,,,,,,,0.0,32.0,32.0,32.0,3273.3224140999955,,,,,,,,,,,,,,,,,,,,,,,,,,,,,,,,,,,,,,,,,,,,,,,,,,,,,,,,,,,,,,,,,,3273.306938499998,3273.3224140999955,3273.3224140999955,3273.8224419000035,3273.8224419000035,3276.3224835,3276.3224835,3276.3066230000118,space,1.0,0.7354552999895532,None,,,,,nback34,1.0,2023-12-18_13h55.48.507,untitled,2023.2.3,59.797203760904985,2023-12-18 14h19.09.283209 -0500,
,"[0.64, 0.4]",None,,,,,,,,,0.0,33.0,33.0,33.0,3276.3224835,,,,,,,,,,,,,,,,,,,,,,,,,,,,,,,,,,,,,,,,,,,,,,,,,,,,,,,,,,,,,,,,,,3276.307611700002,3276.3224835,3276.3224835,3276.8225264000066,3276.8225264000066,3279.3224049000128,3279.3224049000128,3279.3068227000185,None,1.0,,,,,,,nback34,1.0,2023-12-18_13h55.48.507,untitled,2023.2.3,59.797203760904985,2023-12-18 14h19.09.283209 -0500,
,"[-0.3, 0]",None,,,,,,,,,0.0,34.0,34.0,34.0,3279.3224049000128,,,,,,,,,,,,,,,,,,,,,,,,,,,,,,,,,,,,,,,,,,,,,,,,,,,,,,,,,,,,,,,,,,3279.3076068000228,3279.3224049000128,3279.3224049000128,3279.822312400007,3279.822312400007,3282.3223527999944,3282.3223527999944,3282.3065774000133,None,1.0,,,,,,,nback34,1.0,2023-12-18_13h55.48.507,untitled,2023.2.3,59.797203760904985,2023-12-18 14h19.09.283209 -0500,
,"[0.3, 0]",None,,,,,,,,,0.0,35.0,35.0,35.0,3282.3223527999944,,,,,,,,,,,,,,,,,,,,,,,,,,,,,,,,,,,,,,,,,,,,,,,,,,,,,,,,,,,,,,,,,,3282.307275500003,3282.3223527999944,3282.3223527999944,3282.822438800009,3282.822438800009,3285.3223810000054,3285.3223810000054,3285.3067206999986,None,1.0,,,,,,,nback34,1.0,2023-12-18_13h55.48.507,untitled,2023.2.3,59.797203760904985,2023-12-18 14h19.09.283209 -0500,
,"[-0.3, 0]",space,,,,,,,,,0.0,36.0,36.0,36.0,3285.3223810000054,,,,,,,,,,,,,,,,,,,,,,,,,,,,,,,,,,,,,,,,,,,,,,,,,,,,,,,,,,,,,,,,,,3285.3075435000064,3285.3223810000054,3285.3223810000054,3285.8224540000083,3285.8224540000083,3288.322185500001,3288.322185500001,3288.306349100021,space,1.0,0.972156299976632,None,,,,,nback34,1.0,2023-12-18_13h55.48.507,untitled,2023.2.3,59.797203760904985,2023-12-18 14h19.09.283209 -0500,
,"[0, -0.2]",None,,,,,,,,,0.0,37.0,37.0,37.0,3288.322185500001,,,,,,,,,,,,,,,,,,,,,,,,,,,,,,,,,,,,,,,,,,,,,,,,,,,,,,,,,,,,,,,,,,3288.307171499997,3288.322185500001,3288.322185500001,3288.822236600012,3288.822236600012,3291.3218778000155,3291.3218778000155,3291.3061227000144,None,1.0,,,,,,,nback34,1.0,2023-12-18_13h55.48.507,untitled,2023.2.3,59.797203760904985,2023-12-18 14h19.09.283209 -0500,
,"[0.3, 0]",None,,,,,,,,,0.0,38.0,38.0,38.0,3291.3218778000155,,,,,,,,,,,,,,,,,,,,,,,,,,,,,,,,,,,,,,,,,,,,,,,,,,,,,,,,,,,,,,,,,,3291.3064592000155,3291.3218778000155,3291.3218778000155,3291.822103100014,3291.822103100014,3294.3220202999946,3294.3220202999946,3294.3060625000217,None,1.0,,,,,,,nback34,1.0,2023-12-18_13h55.48.507,untitled,2023.2.3,59.797203760904985,2023-12-18 14h19.09.283209 -0500,
,"[0.2, 0.1]",None,,,,,,,,,0.0,39.0,39.0,39.0,3294.3220202999946,,,,,,,,,,,,,,,,,,,,,,,,,,,,,,,,,,,,,,,,,,,,,,,,,,,,,,,,,,,,,,,,,,3294.3066668999963,3294.3220202999946,3294.3220202999946,3294.822282600013,3294.822282600013,3297.3220271000173,3297.3220271000173,3297.3064128000115,None,1.0,,,,,,,nback34,1.0,2023-12-18_13h55.48.507,untitled,2023.2.3,59.797203760904985,2023-12-18 14h19.09.283209 -0500,
,,,,,,,,,,,,,,,,,,,,,,,,,,,,,,,,,,,,,,,,,,,,,,,,,,,,,,,,,,,,,,,,,,,,,,,,,,,,,,,,,,,,,,,,,,,,,3297.3069885000004,3297.3220271000173,3300.3220440000005,3300.306548100023,,,,,,,,
