square,location,corrAns,trials_0.thisRepN,trials_0.thisTrialN,trials_0.thisN,trials_0.thisIndex,trials_1.thisRepN,trials_1.thisTrialN,trials_1.thisN,trials_1.thisIndex,trials_2.thisRepN,trials_2.thisTrialN,trials_2.thisN,trials_2.thisIndex,thisRow.t,notes,Instructions.started,instructions.started,key_resp.started,inst_sq11.started,Instructions.stopped,key_resp.keys,key_resp.rt,key_resp.duration,All.started,sq_1.started,sq_2.started,sq_3.started,sq_4.started,sq_5.started,sq_6.started,sq_7.started,sq_8.started,sq_9.started,sq_10.started,sq_11.started,sq_12.started,All.stopped,Fixation.started,fixation_3.started,fixation_3.stopped,Fixation.stopped,N_back_0_Trial.started,target_square_0.started,response_0.started,fixation_0.started,target_square_0.stopped,fixation_0.stopped,response_0.stopped,N_back_0_Trial.stopped,response_0.keys,response_0.corr,response_0.rt,response_0.duration,Instructions_1.started,instructions_1.started,key_resp_1.started,Instructions_1.stopped,key_resp_1.keys,key_resp_1.rt,key_resp_1.duration,N_back_1_Trial.started,target_square_1.started,response_1.started,target_square_1.stopped,fixation_1.started,fixation_1.stopped,response_1.stopped,N_back_1_Trial.stopped,response_1.keys,response_1.corr,response_1.rt,response_1.duration,Instructions_2.started,instructions_2.started,key_resp_2.started,Instructions_2.stopped,key_resp_2.keys,key_resp_2.rt,key_resp_2.duration,N_back_2_trials.started,target_square_2.started,response_2.started,target_square_2.stopped,fixation_2.started,fixation_2.stopped,response_2.stopped,N_back_2_trials.stopped,response_2.keys,response_2.corr,response_2.rt,response_2.duration,End.started,thank_you.started,thank_you.stopped,End.stopped,participant,session,date,expName,psychopyVersion,frameRate,expStart,Unnamed: 104
,,,,,,,,,,,,,,,,,0.0014533000066876,0.0080677999940235,0.0080677999940235,0.0080677999940235,35.499910699989414,space,35.48635459999787,None,,,,,,,,,,,,,,,,,,,,,,,,,,,,,,,,,,,,,,,,,,,,,,,,,,,,,,,,,,,,,,,,,,,,,,,,,nback28,1.0,2023-12-14_17h46.02.251,untitled,2023.2.3,60.02339712716013,2023-12-14 18h29.07.666701 -0500,
6.0,"[-0.3, 0]",None,0.0,0.0,0.0,0.0,,,,,,,,,37.51500970000052,,,,,,,,,,35.49994159999187,35.5150394999946,35.5150394999946,35.5150394999946,35.5150394999946,35.5150394999946,35.5150394999946,35.5150394999946,35.5150394999946,35.5150394999946,35.5150394999946,35.5150394999946,35.5150394999946,36.49903259999701,36.49904759999481,36.514969599986216,37.51500970000052,37.49925799999619,37.51177139999345,37.51500970000052,37.51500970000052,37.998346199980006,38.01498390000779,40.498496599990176,40.51507729999139,40.49928429999272,None,1.0,,,,,,,,,,,,,,,,,,,,,,,,,,,,,,,,,,,,,,,,,,,,,nback28,1.0,2023-12-14_17h46.02.251,untitled,2023.2.3,60.02339712716013,2023-12-14 18h29.07.666701 -0500,
10.0,"[0, -0.2]",None,0.0,1.0,1.0,1.0,,,,,,,,,40.51507729999139,,,,,,,,,,,,,,,,,,,,,,,,,,,,40.500173299980816,40.51507729999139,40.51507729999139,40.99833719999879,41.014973899989855,43.49850240000524,43.51517400000012,43.49940780000179,None,1.0,,,,,,,,,,,,,,,,,,,,,,,,,,,,,,,,,,,,,,,,,,,,,nback28,1.0,2023-12-14_17h46.02.251,untitled,2023.2.3,60.02339712716013,2023-12-14 18h29.07.666701 -0500,
11.0,"[-0.64, -0.4]",space,0.0,2.0,2.0,2.0,,,,,,,,,43.51517400000012,,,,,,,,,,,,,,,,,,,,,,,,,,,,43.50023669999791,43.51517400000012,43.51517400000012,43.998296300007496,44.01498239999637,46.49821540000266,46.5150262999814,46.49912459999905,space,1.0,0.4233749999839347,None,,,,,,,,,,,,,,,,,,,,,,,,,,,,,,,,,,,,,,,,,,,nback28,1.0,2023-12-14_17h46.02.251,untitled,2023.2.3,60.02339712716013,2023-12-14 18h29.07.666701 -0500,
12.0,"[0.64, -0.4]",None,0.0,3.0,3.0,3.0,,,,,,,,,46.5150262999814,,,,,,,,,,,,,,,,,,,,,,,,,,,,46.50021919998108,46.5150262999814,46.5150262999814,46.99824590000208,47.01492529999814,49.49832869999227,49.51488499998232,49.49928910000017,None,1.0,,,,,,,,,,,,,,,,,,,,,,,,,,,,,,,,,,,,,,,,,,,,,nback28,1.0,2023-12-14_17h46.02.251,untitled,2023.2.3,60.02339712716013,2023-12-14 18h29.07.666701 -0500,
1.0,"[-0.64, 0.4]",None,0.0,4.0,4.0,4.0,,,,,,,,,49.51488499998232,,,,,,,,,,,,,,,,,,,,,,,,,,,,49.50015119998716,49.51488499998232,49.51488499998232,49.99835829998483,50.01505210000323,52.49820770000224,52.51475689999643,52.49892270000419,None,1.0,,,,,,,,,,,,,,,,,,,,,,,,,,,,,,,,,,,,,,,,,,,,,nback28,1.0,2023-12-14_17h46.02.251,untitled,2023.2.3,60.02339712716013,2023-12-14 18h29.07.666701 -0500,
1.0,"[-0.64, 0.4]",None,0.0,5.0,5.0,5.0,,,,,,,,,52.51475689999643,,,,,,,,,,,,,,,,,,,,,,,,,,,,52.49930530000711,52.51475689999643,52.51475689999643,52.99813429999631,53.014861100004055,55.498228499986,55.51494900000398,55.49914189998526,None,1.0,,,,,,,,,,,,,,,,,,,,,,,,,,,,,,,,,,,,,,,,,,,,,nback28,1.0,2023-12-14_17h46.02.251,untitled,2023.2.3,60.02339712716013,2023-12-14 18h29.07.666701 -0500,
4.0,"[-0.2, 0.1]",None,0.0,6.0,6.0,6.0,,,,,,,,,55.51494900000398,,,,,,,,,,,,,,,,,,,,,,,,,,,,55.49987749999855,55.51494900000398,55.51494900000398,55.99823659998947,56.01508489999105,58.4980033999891,58.51480189998984,58.49860309998621,None,1.0,,,,,,,,,,,,,,,,,,,,,,,,,,,,,,,,,,,,,,,,,,,,,nback28,1.0,2023-12-14_17h46.02.251,untitled,2023.2.3,60.02339712716013,2023-12-14 18h29.07.666701 -0500,
5.0,"[0.2, 0.1]",None,0.0,7.0,7.0,7.0,,,,,,,,,58.51480189998984,,,,,,,,,,,,,,,,,,,,,,,,,,,,58.49912100000074,58.51480189998984,58.51480189998984,58.99812589999056,59.01470139998128,61.49810500000604,61.51473199998145,61.49885079998057,None,1.0,,,,,,,,,,,,,,,,,,,,,,,,,,,,,,,,,,,,,,,,,,,,,nback28,1.0,2023-12-14_17h46.02.251,untitled,2023.2.3,60.02339712716013,2023-12-14 18h29.07.666701 -0500,
11.0,"[-0.64, -0.4]",space,0.0,8.0,8.0,8.0,,,,,,,,,61.51473199998145,,,,,,,,,,,,,,,,,,,,,,,,,,,,61.49972719998914,61.51473199998145,61.51473199998145,61.99802769999951,62.01487439998891,64.49806529999478,64.5147566999949,64.49888599998667,space,1.0,0.3889192000206094,None,,,,,,,,,,,,,,,,,,,,,,,,,,,,,,,,,,,,,,,,,,,nback28,1.0,2023-12-14_17h46.02.251,untitled,2023.2.3,60.02339712716013,2023-12-14 18h29.07.666701 -0500,
9.0,"[0.2, -0.1]",None,0.0,9.0,9.0,9.0,,,,,,,,,64.5147566999949,,,,,,,,,,,,,,,,,,,,,,,,,,,,64.49981459998526,64.5147566999949,64.5147566999949,65.0147963000054,65.0147963000054,67.51457279999158,67.51457279999158,67.4986558999808,None,1.0,,,,,,,,,,,,,,,,,,,,,,,,,,,,,,,,,,,,,,,,,,,,,nback28,1.0,2023-12-14_17h46.02.251,untitled,2023.2.3,60.02339712716013,2023-12-14 18h29.07.666701 -0500,
8.0,"[-0.2, -0.1]",None,0.0,10.0,10.0,10.0,,,,,,,,,67.51457279999158,,,,,,,,,,,,,,,,,,,,,,,,,,,,67.49933540000347,67.51457279999158,67.51457279999158,68.01485109998612,68.01485109998612,70.51457569998456,70.51457569998456,70.49876289998065,None,1.0,,,,,,,,,,,,,,,,,,,,,,,,,,,,,,,,,,,,,,,,,,,,,nback28,1.0,2023-12-14_17h46.02.251,untitled,2023.2.3,60.02339712716013,2023-12-14 18h29.07.666701 -0500,
9.0,"[0.2, -0.1]",None,0.0,11.0,11.0,11.0,,,,,,,,,70.51457569998456,,,,,,,,,,,,,,,,,,,,,,,,,,,,70.49945989999105,70.51457569998456,70.51457569998456,71.01473199998145,71.01473199998145,73.51445879999665,73.51445879999665,73.49871009998606,None,1.0,,,,,,,,,,,,,,,,,,,,,,,,,,,,,,,,,,,,,,,,,,,,,nback28,1.0,2023-12-14_17h46.02.251,untitled,2023.2.3,60.02339712716013,2023-12-14 18h29.07.666701 -0500,
6.0,"[-0.3, 0]",None,0.0,12.0,12.0,12.0,,,,,,,,,73.51445879999665,,,,,,,,,,,,,,,,,,,,,,,,,,,,73.49936899999739,73.51445879999665,73.51445879999665,74.014588799997,74.014588799997,76.514468999987,76.514468999987,76.49850260000676,None,1.0,,,,,,,,,,,,,,,,,,,,,,,,,,,,,,,,,,,,,,,,,,,,,nback28,1.0,2023-12-14_17h46.02.251,untitled,2023.2.3,60.02339712716013,2023-12-14 18h29.07.666701 -0500,
9.0,"[0.2, -0.1]",None,0.0,13.0,13.0,13.0,,,,,,,,,76.514468999987,,,,,,,,,,,,,,,,,,,,,,,,,,,,76.49918559999787,76.514468999987,76.514468999987,77.01460860000225,77.01460860000225,79.51447679998819,79.51447679998819,79.4989130999893,None,1.0,,,,,,,,,,,,,,,,,,,,,,,,,,,,,,,,,,,,,,,,,,,,,nback28,1.0,2023-12-14_17h46.02.251,untitled,2023.2.3,60.02339712716013,2023-12-14 18h29.07.666701 -0500,
7.0,"[0.3, 0]",None,0.0,14.0,14.0,14.0,,,,,,,,,79.51447679998819,,,,,,,,,,,,,,,,,,,,,,,,,,,,79.49984030000633,79.51447679998819,79.51447679998819,80.01456720000715,80.01456720000715,82.51455739999074,82.51455739999074,82.49875989998691,None,1.0,,,,,,,,,,,,,,,,,,,,,,,,,,,,,,,,,,,,,,,,,,,,,nback28,1.0,2023-12-14_17h46.02.251,untitled,2023.2.3,60.02339712716013,2023-12-14 18h29.07.666701 -0500,
2.0,"[0.64, 0.4]",None,0.0,15.0,15.0,15.0,,,,,,,,,82.51455739999074,,,,,,,,,,,,,,,,,,,,,,,,,,,,82.49949560000096,82.51455739999074,82.51455739999074,83.01443749997998,83.01443749997998,85.5143843999831,85.5143843999831,85.4984717000043,None,1.0,,,,,,,,,,,,,,,,,,,,,,,,,,,,,,,,,,,,,,,,,,,,,nback28,1.0,2023-12-14_17h46.02.251,untitled,2023.2.3,60.02339712716013,2023-12-14 18h29.07.666701 -0500,
2.0,"[0.64, 0.4]",None,0.0,16.0,16.0,16.0,,,,,,,,,85.5143843999831,,,,,,,,,,,,,,,,,,,,,,,,,,,,85.49913009998272,85.5143843999831,85.5143843999831,86.01441430000705,86.01441430000705,88.51435270000366,88.51435270000366,88.49891429999843,None,1.0,,,,,,,,,,,,,,,,,,,,,,,,,,,,,,,,,,,,,,,,,,,,,nback28,1.0,2023-12-14_17h46.02.251,untitled,2023.2.3,60.02339712716013,2023-12-14 18h29.07.666701 -0500,
11.0,"[-0.64, -0.4]",space,0.0,17.0,17.0,17.0,,,,,,,,,88.51435270000366,,,,,,,,,,,,,,,,,,,,,,,,,,,,88.49974149998161,88.51435270000366,88.51435270000366,89.01428129998385,89.01428129998385,91.51438449998386,91.51438449998386,91.4985694999923,space,1.0,0.3756413999944925,None,,,,,,,,,,,,,,,,,,,,,,,,,,,,,,,,,,,,,,,,,,,nback28,1.0,2023-12-14_17h46.02.251,untitled,2023.2.3,60.02339712716013,2023-12-14 18h29.07.666701 -0500,
11.0,"[-0.64, -0.4]",space,0.0,18.0,18.0,18.0,,,,,,,,,91.51438449998386,,,,,,,,,,,,,,,,,,,,,,,,,,,,91.49958969998988,91.51438449998386,91.51438449998386,92.01435979999953,92.01435979999953,94.51428129998384,94.51428129998384,94.49856419998105,space,1.0,0.4840791999886278,None,,,,,,,,,,,,,,,,,,,,,,,,,,,,,,,,,,,,,,,,,,,nback28,1.0,2023-12-14_17h46.02.251,untitled,2023.2.3,60.02339712716013,2023-12-14 18h29.07.666701 -0500,
7.0,"[0.3, 0]",None,0.0,19.0,19.0,19.0,,,,,,,,,94.51428129998384,,,,,,,,,,,,,,,,,,,,,,,,,,,,94.49953359999928,94.51428129998384,94.51428129998384,95.01440089999232,95.01440089999232,97.51415909998468,97.51415909998468,97.49864800000796,None,1.0,,,,,,,,,,,,,,,,,,,,,,,,,,,,,,,,,,,,,,,,,,,,,nback28,1.0,2023-12-14_17h46.02.251,untitled,2023.2.3,60.02339712716013,2023-12-14 18h29.07.666701 -0500,
3.0,"[0, 0.2]",None,0.0,20.0,20.0,20.0,,,,,,,,,97.51415909998468,,,,,,,,,,,,,,,,,,,,,,,,,,,,97.49950279999756,97.51415909998468,97.51415909998468,98.01412419998088,98.01412419998088,100.51414899999509,100.51414899999509,100.49827159999404,None,1.0,,,,,,,,,,,,,,,,,,,,,,,,,,,,,,,,,,,,,,,,,,,,,nback28,1.0,2023-12-14_17h46.02.251,untitled,2023.2.3,60.02339712716013,2023-12-14 18h29.07.666701 -0500,
10.0,"[0, -0.2]",None,0.0,21.0,21.0,21.0,,,,,,,,,100.51414899999509,,,,,,,,,,,,,,,,,,,,,,,,,,,,100.4989466999832,100.51414899999509,100.51414899999509,101.01416359998984,101.01416359998984,103.51391129998956,103.51391129998956,103.49802699999418,None,1.0,,,,,,,,,,,,,,,,,,,,,,,,,,,,,,,,,,,,,,,,,,,,,nback28,1.0,2023-12-14_17h46.02.251,untitled,2023.2.3,60.02339712716013,2023-12-14 18h29.07.666701 -0500,
1.0,"[-0.64, 0.4]",None,0.0,22.0,22.0,22.0,,,,,,,,,103.51391129998956,,,,,,,,,,,,,,,,,,,,,,,,,,,,103.49834170000396,103.51391129998956,103.51391129998956,104.0142394999857,104.0142394999857,106.51409330000752,106.51409330000752,106.4981091999798,None,1.0,,,,,,,,,,,,,,,,,,,,,,,,,,,,,,,,,,,,,,,,,,,,,nback28,1.0,2023-12-14_17h46.02.251,untitled,2023.2.3,60.02339712716013,2023-12-14 18h29.07.666701 -0500,
2.0,"[0.64, 0.4]",None,0.0,23.0,23.0,23.0,,,,,,,,,106.51409330000752,,,,,,,,,,,,,,,,,,,,,,,,,,,,106.4987973999814,106.51409330000752,106.51409330000752,107.01399350000428,107.01399350000428,109.5138966999948,109.5138966999948,109.4982294999936,None,1.0,,,,,,,,,,,,,,,,,,,,,,,,,,,,,,,,,,,,,,,,,,,,,nback28,1.0,2023-12-14_17h46.02.251,untitled,2023.2.3,60.02339712716013,2023-12-14 18h29.07.666701 -0500,
6.0,"[-0.3, 0]",None,0.0,24.0,24.0,24.0,,,,,,,,,109.5138966999948,,,,,,,,,,,,,,,,,,,,,,,,,,,,109.4989715999982,109.5138966999948,109.5138966999948,110.01387379999504,110.01387379999504,112.51375650000408,112.51375650000408,112.49757059998228,None,1.0,,,,,,,,,,,,,,,,,,,,,,,,,,,,,,,,,,,,,,,,,,,,,nback28,1.0,2023-12-14_17h46.02.251,untitled,2023.2.3,60.02339712716013,2023-12-14 18h29.07.666701 -0500,
3.0,"[0, 0.2]",None,0.0,25.0,25.0,25.0,,,,,,,,,112.51375650000408,,,,,,,,,,,,,,,,,,,,,,,,,,,,112.49790719998418,112.51375650000408,112.51375650000408,113.01378249999834,113.01378249999834,115.51395170000616,115.51395170000616,115.49815820000369,None,1.0,,,,,,,,,,,,,,,,,,,,,,,,,,,,,,,,,,,,,,,,,,,,,nback28,1.0,2023-12-14_17h46.02.251,untitled,2023.2.3,60.02339712716013,2023-12-14 18h29.07.666701 -0500,
11.0,"[-0.64, -0.4]",space,0.0,26.0,26.0,26.0,,,,,,,,,115.51395170000616,,,,,,,,,,,,,,,,,,,,,,,,,,,,115.49889889999758,115.51395170000616,115.51395170000616,116.0138702999975,116.0138702999975,118.5137442999985,118.5137442999985,118.49785419998808,space,1.0,0.4293666000012308,None,,,,,,,,,,,,,,,,,,,,,,,,,,,,,,,,,,,,,,,,,,,nback28,1.0,2023-12-14_17h46.02.251,untitled,2023.2.3,60.02339712716013,2023-12-14 18h29.07.666701 -0500,
1.0,"[-0.64, 0.4]",None,0.0,27.0,27.0,27.0,,,,,,,,,118.5137442999985,,,,,,,,,,,,,,,,,,,,,,,,,,,,118.4985858,118.5137442999985,118.5137442999985,119.0137909000041,119.0137909000041,121.51382759999252,121.51382759999252,121.4979492999846,None,1.0,,,,,,,,,,,,,,,,,,,,,,,,,,,,,,,,,,,,,,,,,,,,,nback28,1.0,2023-12-14_17h46.02.251,untitled,2023.2.3,60.02339712716013,2023-12-14 18h29.07.666701 -0500,
3.0,"[0, 0.2]",None,0.0,28.0,28.0,28.0,,,,,,,,,121.51382759999252,,,,,,,,,,,,,,,,,,,,,,,,,,,,121.4986563999846,121.51382759999252,121.51382759999252,122.01391009998042,122.01391009998042,124.51356079999825,124.51356079999825,124.49808980000672,None,1.0,,,,,,,,,,,,,,,,,,,,,,,,,,,,,,,,,,,,,,,,,,,,,nback28,1.0,2023-12-14_17h46.02.251,untitled,2023.2.3,60.02339712716013,2023-12-14 18h29.07.666701 -0500,
9.0,"[0.2, -0.1]",None,0.0,29.0,29.0,29.0,,,,,,,,,124.51356079999825,,,,,,,,,,,,,,,,,,,,,,,,,,,,124.49893149998388,124.51356079999825,124.51356079999825,125.01364619997912,125.01364619997912,127.51358949998394,127.51358949998394,127.49746779998532,None,1.0,,,,,,,,,,,,,,,,,,,,,,,,,,,,,,,,,,,,,,,,,,,,,nback28,1.0,2023-12-14_17h46.02.251,untitled,2023.2.3,60.02339712716013,2023-12-14 18h29.07.666701 -0500,
8.0,"[-0.2, -0.1]",None,0.0,30.0,30.0,30.0,,,,,,,,,127.51358949998394,,,,,,,,,,,,,,,,,,,,,,,,,,,,127.4979686999868,127.51358949998394,127.51358949998394,128.0134661000047,128.0134661000047,130.51361150000594,130.51361150000594,130.498019199993,None,1.0,,,,,,,,,,,,,,,,,,,,,,,,,,,,,,,,,,,,,,,,,,,,,nback28,1.0,2023-12-14_17h46.02.251,untitled,2023.2.3,60.02339712716013,2023-12-14 18h29.07.666701 -0500,
12.0,"[0.64, -0.4]",None,0.0,31.0,31.0,31.0,,,,,,,,,130.51361150000594,,,,,,,,,,,,,,,,,,,,,,,,,,,,130.49889089999488,130.51361150000594,130.51361150000594,131.01351279998198,131.01351279998198,133.5136544999841,133.5136544999841,133.49787970000762,None,1.0,,,,,,,,,,,,,,,,,,,,,,,,,,,,,,,,,,,,,,,,,,,,,nback28,1.0,2023-12-14_17h46.02.251,untitled,2023.2.3,60.02339712716013,2023-12-14 18h29.07.666701 -0500,
9.0,"[0.2, -0.1]",None,0.0,32.0,32.0,32.0,,,,,,,,,133.5136544999841,,,,,,,,,,,,,,,,,,,,,,,,,,,,133.4986585000006,133.5136544999841,133.5136544999841,134.0136804000067,134.0136804000067,136.51355899998453,136.51355899998453,136.49777709998307,None,1.0,,,,,,,,,,,,,,,,,,,,,,,,,,,,,,,,,,,,,,,,,,,,,nback28,1.0,2023-12-14_17h46.02.251,untitled,2023.2.3,60.02339712716013,2023-12-14 18h29.07.666701 -0500,
11.0,"[-0.64, -0.4]",space,0.0,33.0,33.0,33.0,,,,,,,,,136.51355899998453,,,,,,,,,,,,,,,,,,,,,,,,,,,,136.49856239999644,136.51355899998453,136.51355899998453,137.01338359998772,137.01338359998772,139.51368010000442,139.51368010000442,139.49803620000603,space,1.0,0.3968559000059031,None,,,,,,,,,,,,,,,,,,,,,,,,,,,,,,,,,,,,,,,,,,,nback28,1.0,2023-12-14_17h46.02.251,untitled,2023.2.3,60.02339712716013,2023-12-14 18h29.07.666701 -0500,
7.0,"[0.3, 0]",None,0.0,34.0,34.0,34.0,,,,,,,,,139.51368010000442,,,,,,,,,,,,,,,,,,,,,,,,,,,,139.4991461999889,139.51368010000442,139.51368010000442,140.0134834999917,140.0134834999917,142.51344789998257,142.51344789998257,142.4974971000047,None,1.0,,,,,,,,,,,,,,,,,,,,,,,,,,,,,,,,,,,,,,,,,,,,,nback28,1.0,2023-12-14_17h46.02.251,untitled,2023.2.3,60.02339712716013,2023-12-14 18h29.07.666701 -0500,
11.0,"[-0.64, -0.4]",space,0.0,35.0,35.0,35.0,,,,,,,,,142.51344789998257,,,,,,,,,,,,,,,,,,,,,,,,,,,,142.49802349999663,142.51344789998257,142.51344789998257,143.01364019999164,143.01364019999164,145.51327199998195,145.51327199998195,145.49748689998523,space,1.0,0.4463223000057041,None,,,,,,,,,,,,,,,,,,,,,,,,,,,,,,,,,,,,,,,,,,,nback28,1.0,2023-12-14_17h46.02.251,untitled,2023.2.3,60.02339712716013,2023-12-14 18h29.07.666701 -0500,
4.0,"[-0.2, 0.1]",None,0.0,36.0,36.0,36.0,,,,,,,,,145.51327199998195,,,,,,,,,,,,,,,,,,,,,,,,,,,,145.49835019998136,145.51327199998195,145.51327199998195,146.0135370999924,146.0135370999924,148.51327949998085,148.51327949998085,148.49723389997962,None,1.0,,,,,,,,,,,,,,,,,,,,,,,,,,,,,,,,,,,,,,,,,,,,,nback28,1.0,2023-12-14_17h46.02.251,untitled,2023.2.3,60.02339712716013,2023-12-14 18h29.07.666701 -0500,
5.0,"[0.2, 0.1]",None,0.0,37.0,37.0,37.0,,,,,,,,,148.51327949998085,,,,,,,,,,,,,,,,,,,,,,,,,,,,148.49789949998376,148.51327949998085,148.51327949998085,149.01333699998213,149.01333699998213,151.51328579999972,151.51328579999972,151.49743200000376,None,1.0,,,,,,,,,,,,,,,,,,,,,,,,,,,,,,,,,,,,,,,,,,,,,nback28,1.0,2023-12-14_17h46.02.251,untitled,2023.2.3,60.02339712716013,2023-12-14 18h29.07.666701 -0500,
6.0,"[-0.3, 0]",None,0.0,38.0,38.0,38.0,,,,,,,,,151.51328579999972,,,,,,,,,,,,,,,,,,,,,,,,,,,,151.49812289999682,151.51328579999972,151.51328579999972,152.0132850999944,152.0132850999944,154.51331320000463,154.51331320000463,154.49770010000793,None,1.0,,,,,,,,,,,,,,,,,,,,,,,,,,,,,,,,,,,,,,,,,,,,,nback28,1.0,2023-12-14_17h46.02.251,untitled,2023.2.3,60.02339712716013,2023-12-14 18h29.07.666701 -0500,
11.0,"[-0.64, -0.4]",space,0.0,39.0,39.0,39.0,,,,,,,,,154.51331320000463,,,,,,,,,,,,,,,,,,,,,,,,,,,,154.49859159998596,154.51331320000463,154.51331320000463,155.01331189999473,155.01331189999473,157.51321720000124,157.51321720000124,157.49721149998368,space,1.0,0.4248349999834317,None,,,,,,,,,,,,,,,,,,,,,,,,,,,,,,,,,,,,,,,,,,,nback28,1.0,2023-12-14_17h46.02.251,untitled,2023.2.3,60.02339712716013,2023-12-14 18h29.07.666701 -0500,
,,,,,,,,,,,,,,,,,,,,,,,,,,,,,,,,,,,,,,,,,,,,,,,,,,,,,,,157.4976999000064,157.51321720000124,157.51321720000124,180.56427489998168,space,23.03766119998181,None,,,,,,,,,,,,,,,,,,,,,,,,,,,,,,,,,,,,nback28,1.0,2023-12-14_17h46.02.251,untitled,2023.2.3,60.02339712716013,2023-12-14 18h29.07.666701 -0500,
10.0,"[0, -0.2]",None,,,,,0.0,0.0,0.0,0.0,,,,,181.5792703999905,,,,,,,,,,,,,,,,,,,,,,,,180.56431149999844,180.57937510000195,181.5792703999905,181.56338989999492,,,,,,,,,,,,,,,,,,,,181.5723580000049,181.5792703999905,181.5792703999905,182.07931679999456,182.07931679999456,184.5792946000001,184.5792946000001,184.56336239998927,None,1.0,,,,,,,,,,,,,,,,,,,,,,,,,,nback28,1.0,2023-12-14_17h46.02.251,untitled,2023.2.3,60.02339712716013,2023-12-14 18h29.07.666701 -0500,
5.0,"[0.2, 0.1]",None,,,,,0.0,1.0,1.0,1.0,,,,,184.5792946000001,,,,,,,,,,,,,,,,,,,,,,,,,,,,,,,,,,,,,,,,,,,,,,,184.56415389999165,184.5792946000001,184.5792946000001,185.0792815999885,185.0792815999885,187.57929769999464,187.57929769999464,187.56387129999348,None,1.0,,,,,,,,,,,,,,,,,,,,,,,,,,nback28,1.0,2023-12-14_17h46.02.251,untitled,2023.2.3,60.02339712716013,2023-12-14 18h29.07.666701 -0500,
6.0,"[-0.3, 0]",None,,,,,0.0,2.0,2.0,2.0,,,,,187.57929769999464,,,,,,,,,,,,,,,,,,,,,,,,,,,,,,,,,,,,,,,,,,,,,,,187.564696299989,187.57929769999464,187.57929769999464,188.07913019999975,188.07913019999975,190.5791359999857,190.5791359999857,190.56322089998864,None,1.0,,,,,,,,,,,,,,,,,,,,,,,,,,nback28,1.0,2023-12-14_17h46.02.251,untitled,2023.2.3,60.02339712716013,2023-12-14 18h29.07.666701 -0500,
6.0,"[-0.3, 0]",space,,,,,0.0,3.0,3.0,3.0,,,,,190.5791359999857,,,,,,,,,,,,,,,,,,,,,,,,,,,,,,,,,,,,,,,,,,,,,,,190.5638689000043,190.5791359999857,190.5791359999857,191.07928259999608,191.07928259999608,193.57930079998917,193.57930079998917,193.56328400000348,space,1.0,0.5335781000030693,None,,,,,,,,,,,,,,,,,,,,,,,,nback28,1.0,2023-12-14_17h46.02.251,untitled,2023.2.3,60.02339712716013,2023-12-14 18h29.07.666701 -0500,
12.0,"[0.64, -0.4]",None,,,,,0.0,4.0,4.0,4.0,,,,,193.57930079998917,,,,,,,,,,,,,,,,,,,,,,,,,,,,,,,,,,,,,,,,,,,,,,,193.56419159998768,193.57930079998917,193.57930079998917,194.079287200002,194.079287200002,196.5790530999948,196.5790530999948,196.56374329997925,None,1.0,,,,,,,,,,,,,,,,,,,,,,,,,,nback28,1.0,2023-12-14_17h46.02.251,untitled,2023.2.3,60.02339712716013,2023-12-14 18h29.07.666701 -0500,
10.0,"[0, -0.2]",None,,,,,0.0,5.0,5.0,5.0,,,,,196.5790530999948,,,,,,,,,,,,,,,,,,,,,,,,,,,,,,,,,,,,,,,,,,,,,,,196.5645988000033,196.5790530999948,196.5790530999948,197.07919419999237,197.07919419999237,199.57898570000543,199.57898570000543,199.56360170000696,None,1.0,,,,,,,,,,,,,,,,,,,,,,,,,,nback28,1.0,2023-12-14_17h46.02.251,untitled,2023.2.3,60.02339712716013,2023-12-14 18h29.07.666701 -0500,
2.0,"[0.64, 0.4]",None,,,,,0.0,6.0,6.0,6.0,,,,,199.57898570000543,,,,,,,,,,,,,,,,,,,,,,,,,,,,,,,,,,,,,,,,,,,,,,,199.5643780999817,199.57898570000543,199.57898570000543,200.0791321999859,200.0791321999859,202.57896290000645,202.57896290000645,202.56320929998765,None,1.0,,,,,,,,,,,,,,,,,,,,,,,,,,nback28,1.0,2023-12-14_17h46.02.251,untitled,2023.2.3,60.02339712716013,2023-12-14 18h29.07.666701 -0500,
9.0,"[0.2, -0.1]",None,,,,,0.0,7.0,7.0,7.0,,,,,202.57896290000645,,,,,,,,,,,,,,,,,,,,,,,,,,,,,,,,,,,,,,,,,,,,,,,202.5639075000072,202.57896290000645,202.57896290000645,203.0790436999814,203.0790436999814,205.57894350000424,205.57894350000424,205.56265509998772,None,1.0,,,,,,,,,,,,,,,,,,,,,,,,,,nback28,1.0,2023-12-14_17h46.02.251,untitled,2023.2.3,60.02339712716013,2023-12-14 18h29.07.666701 -0500,
9.0,"[0.2, -0.1]",space,,,,,0.0,8.0,8.0,8.0,,,,,205.57894350000424,,,,,,,,,,,,,,,,,,,,,,,,,,,,,,,,,,,,,,,,,,,,,,,205.5629515000037,205.57894350000424,205.57894350000424,206.0789139999833,206.0789139999833,208.57889929998785,208.57889929998785,208.5634133999993,space,1.0,0.5229480999987572,None,,,,,,,,,,,,,,,,,,,,,,,,nback28,1.0,2023-12-14_17h46.02.251,untitled,2023.2.3,60.02339712716013,2023-12-14 18h29.07.666701 -0500,
6.0,"[-0.3, 0]",None,,,,,0.0,9.0,9.0,9.0,,,,,208.57889929998785,,,,,,,,,,,,,,,,,,,,,,,,,,,,,,,,,,,,,,,,,,,,,,,208.5645804999804,208.57889929998785,208.57889929998785,209.0789762999921,209.0789762999921,211.57878159999385,211.57878159999385,211.56284579998464,None,1.0,,,,,,,,,,,,,,,,,,,,,,,,,,nback28,1.0,2023-12-14_17h46.02.251,untitled,2023.2.3,60.02339712716013,2023-12-14 18h29.07.666701 -0500,
11.0,"[-0.64, -0.4]",None,,,,,0.0,10.0,10.0,10.0,,,,,211.57878159999385,,,,,,,,,,,,,,,,,,,,,,,,,,,,,,,,,,,,,,,,,,,,,,,211.5634982000047,211.57878159999385,211.57878159999385,212.07885560000432,212.07885560000432,214.5788227999874,214.5788227999874,214.5631656000041,None,1.0,,,,,,,,,,,,,,,,,,,,,,,,,,nback28,1.0,2023-12-14_17h46.02.251,untitled,2023.2.3,60.02339712716013,2023-12-14 18h29.07.666701 -0500,
11.0,"[-0.64, -0.4]",space,,,,,0.0,11.0,11.0,11.0,,,,,214.5788227999874,,,,,,,,,,,,,,,,,,,,,,,,,,,,,,,,,,,,,,,,,,,,,,,214.5639969999902,214.5788227999874,214.5788227999874,215.0787789000024,215.0787789000024,217.5787425999879,217.5787425999879,217.56279060000088,space,1.0,0.3969137000094633,None,,,,,,,,,,,,,,,,,,,,,,,,nback28,1.0,2023-12-14_17h46.02.251,untitled,2023.2.3,60.02339712716013,2023-12-14 18h29.07.666701 -0500,
4.0,"[-0.2, 0.1]",None,,,,,0.0,12.0,12.0,12.0,,,,,217.5787425999879,,,,,,,,,,,,,,,,,,,,,,,,,,,,,,,,,,,,,,,,,,,,,,,217.5636440999806,217.5787425999879,217.5787425999879,218.07860909999,218.07860909999,220.57846249997965,220.57846249997965,220.5625178999908,None,1.0,,,,,,,,,,,,,,,,,,,,,,,,,,nback28,1.0,2023-12-14_17h46.02.251,untitled,2023.2.3,60.02339712716013,2023-12-14 18h29.07.666701 -0500,
3.0,"[0, 0.2]",None,,,,,0.0,13.0,13.0,13.0,,,,,220.57846249997965,,,,,,,,,,,,,,,,,,,,,,,,,,,,,,,,,,,,,,,,,,,,,,,220.5631172999856,220.57846249997965,220.57846249997965,221.07882860000245,221.07882860000245,223.57854919999957,223.57854919999957,223.56271229998677,None,1.0,,,,,,,,,,,,,,,,,,,,,,,,,,nback28,1.0,2023-12-14_17h46.02.251,untitled,2023.2.3,60.02339712716013,2023-12-14 18h29.07.666701 -0500,
3.0,"[0, 0.2]",space,,,,,0.0,14.0,14.0,14.0,,,,,223.57854919999957,,,,,,,,,,,,,,,,,,,,,,,,,,,,,,,,,,,,,,,,,,,,,,,223.5632846999797,223.57854919999957,223.57854919999957,224.0787800999824,224.0787800999824,226.57840919998125,226.57840919998125,226.56221949998871,space,1.0,0.4530349999840837,None,,,,,,,,,,,,,,,,,,,,,,,,nback28,1.0,2023-12-14_17h46.02.251,untitled,2023.2.3,60.02339712716013,2023-12-14 18h29.07.666701 -0500,
8.0,"[-0.2, -0.1]",None,,,,,0.0,15.0,15.0,15.0,,,,,226.57840919998125,,,,,,,,,,,,,,,,,,,,,,,,,,,,,,,,,,,,,,,,,,,,,,,226.5626177999948,226.57840919998125,226.57840919998125,227.07823670000653,227.07823670000653,229.57833449999453,229.57833449999453,229.56254250000347,None,1.0,,,,,,,,,,,,,,,,,,,,,,,,,,nback28,1.0,2023-12-14_17h46.02.251,untitled,2023.2.3,60.02339712716013,2023-12-14 18h29.07.666701 -0500,
1.0,"[-0.64, 0.4]",None,,,,,0.0,16.0,16.0,16.0,,,,,229.57833449999453,,,,,,,,,,,,,,,,,,,,,,,,,,,,,,,,,,,,,,,,,,,,,,,229.56291479998615,229.57833449999453,229.57833449999453,230.0785809000081,230.0785809000081,232.5784020999854,232.5784020999854,232.5623387999949,None,1.0,,,,,,,,,,,,,,,,,,,,,,,,,,nback28,1.0,2023-12-14_17h46.02.251,untitled,2023.2.3,60.02339712716013,2023-12-14 18h29.07.666701 -0500,
2.0,"[0.64, 0.4]",None,,,,,0.0,17.0,17.0,17.0,,,,,232.5784020999854,,,,,,,,,,,,,,,,,,,,,,,,,,,,,,,,,,,,,,,,,,,,,,,232.5629987999855,232.5784020999854,232.5784020999854,233.0783545000013,233.0783545000013,235.57856209998133,235.57856209998133,235.5628364000004,None,1.0,,,,,,,,,,,,,,,,,,,,,,,,,,nback28,1.0,2023-12-14_17h46.02.251,untitled,2023.2.3,60.02339712716013,2023-12-14 18h29.07.666701 -0500,
4.0,"[-0.2, 0.1]",None,,,,,0.0,18.0,18.0,18.0,,,,,235.57856209998133,,,,,,,,,,,,,,,,,,,,,,,,,,,,,,,,,,,,,,,,,,,,,,,235.56360379999387,235.57856209998133,235.57856209998133,236.07834919999004,236.07834919999004,238.57837239999208,238.57837239999208,238.56258130000788,None,1.0,,,,,,,,,,,,,,,,,,,,,,,,,,nback28,1.0,2023-12-14_17h46.02.251,untitled,2023.2.3,60.02339712716013,2023-12-14 18h29.07.666701 -0500,
4.0,"[-0.2, 0.1]",space,,,,,0.0,19.0,19.0,19.0,,,,,238.57837239999208,,,,,,,,,,,,,,,,,,,,,,,,,,,,,,,,,,,,,,,,,,,,,,,238.56319379998604,238.57837239999208,238.57837239999208,239.0782830999815,239.0782830999815,241.57828039999004,241.57828039999004,241.56269699998663,space,1.0,0.7196653000137303,None,,,,,,,,,,,,,,,,,,,,,,,,nback28,1.0,2023-12-14_17h46.02.251,untitled,2023.2.3,60.02339712716013,2023-12-14 18h29.07.666701 -0500,
8.0,"[-0.2, -0.1]",None,,,,,0.0,20.0,20.0,20.0,,,,,241.57828039999004,,,,,,,,,,,,,,,,,,,,,,,,,,,,,,,,,,,,,,,,,,,,,,,241.5636036999931,241.57828039999004,241.57828039999004,242.07828289998,242.07828289998,244.57830779999492,244.57830779999492,244.56251079999493,None,1.0,,,,,,,,,,,,,,,,,,,,,,,,,,nback28,1.0,2023-12-14_17h46.02.251,untitled,2023.2.3,60.02339712716013,2023-12-14 18h29.07.666701 -0500,
5.0,"[0.2, 0.1]",None,,,,,0.0,21.0,21.0,21.0,,,,,244.57830779999492,,,,,,,,,,,,,,,,,,,,,,,,,,,,,,,,,,,,,,,,,,,,,,,244.5631716999924,244.57830779999492,244.57830779999492,245.0785047999816,245.0785047999816,247.57835589998285,247.57835589998285,247.56264889999875,None,1.0,,,,,,,,,,,,,,,,,,,,,,,,,,nback28,1.0,2023-12-14_17h46.02.251,untitled,2023.2.3,60.02339712716013,2023-12-14 18h29.07.666701 -0500,
5.0,"[0.2, 0.1]",space,,,,,0.0,22.0,22.0,22.0,,,,,247.57835589998285,,,,,,,,,,,,,,,,,,,,,,,,,,,,,,,,,,,,,,,,,,,,,,,247.5634528999799,247.57835589998285,247.57835589998285,248.07835830000116,248.07835830000116,250.5780698999879,250.5780698999879,250.5623418999894,space,1.0,0.5337825000169687,None,,,,,,,,,,,,,,,,,,,,,,,,nback28,1.0,2023-12-14_17h46.02.251,untitled,2023.2.3,60.02339712716013,2023-12-14 18h29.07.666701 -0500,
1.0,"[-0.64, 0.4]",None,,,,,0.0,23.0,23.0,23.0,,,,,250.5780698999879,,,,,,,,,,,,,,,,,,,,,,,,,,,,,,,,,,,,,,,,,,,,,,,250.56312459998296,250.5780698999879,250.5780698999879,251.07827830000315,251.07827830000315,253.5783104999864,253.5783104999864,253.5625100999896,None,1.0,,,,,,,,,,,,,,,,,,,,,,,,,,nback28,1.0,2023-12-14_17h46.02.251,untitled,2023.2.3,60.02339712716013,2023-12-14 18h29.07.666701 -0500,
3.0,"[0, 0.2]",None,,,,,0.0,24.0,24.0,24.0,,,,,253.5783104999864,,,,,,,,,,,,,,,,,,,,,,,,,,,,,,,,,,,,,,,,,,,,,,,253.5632554999902,253.5783104999864,253.5783104999864,254.07806460000572,254.07806460000572,256.5779692000069,256.5779692000069,256.5622350999911,None,1.0,,,,,,,,,,,,,,,,,,,,,,,,,,nback28,1.0,2023-12-14_17h46.02.251,untitled,2023.2.3,60.02339712716013,2023-12-14 18h29.07.666701 -0500,
6.0,"[-0.3, 0]",None,,,,,0.0,25.0,25.0,25.0,,,,,256.5779692000069,,,,,,,,,,,,,,,,,,,,,,,,,,,,,,,,,,,,,,,,,,,,,,,256.5629403000057,256.5779692000069,256.5779692000069,257.0781225999817,257.0781225999817,259.5780603000021,259.5780603000021,259.5623522999813,None,1.0,,,,,,,,,,,,,,,,,,,,,,,,,,nback28,1.0,2023-12-14_17h46.02.251,untitled,2023.2.3,60.02339712716013,2023-12-14 18h29.07.666701 -0500,
1.0,"[-0.64, 0.4]",None,,,,,0.0,26.0,26.0,26.0,,,,,259.5780603000021,,,,,,,,,,,,,,,,,,,,,,,,,,,,,,,,,,,,,,,,,,,,,,,259.56303469999693,259.5780603000021,259.5780603000021,260.0782460999908,260.0782460999908,262.57786359998863,262.57786359998863,262.5622092999984,None,1.0,,,,,,,,,,,,,,,,,,,,,,,,,,nback28,1.0,2023-12-14_17h46.02.251,untitled,2023.2.3,60.02339712716013,2023-12-14 18h29.07.666701 -0500,
1.0,"[-0.64, 0.4]",space,,,,,0.0,27.0,27.0,27.0,,,,,262.57786359998863,,,,,,,,,,,,,,,,,,,,,,,,,,,,,,,,,,,,,,,,,,,,,,,262.56292130000656,262.57786359998863,262.57786359998863,263.0777912999911,263.0777912999911,265.5777737000026,265.5777737000026,265.5622810999921,space,1.0,0.5178544000082184,None,,,,,,,,,,,,,,,,,,,,,,,,nback28,1.0,2023-12-14_17h46.02.251,untitled,2023.2.3,60.02339712716013,2023-12-14 18h29.07.666701 -0500,
1.0,"[-0.64, 0.4]",space,,,,,0.0,28.0,28.0,28.0,,,,,265.5777737000026,,,,,,,,,,,,,,,,,,,,,,,,,,,,,,,,,,,,,,,,,,,,,,,265.5632073000015,265.5777737000026,265.5777737000026,266.0776668000035,266.0776668000035,268.5779387000075,268.5779387000075,268.5619472999824,None,0.0,,,,,,,,,,,,,,,,,,,,,,,,,,nback28,1.0,2023-12-14_17h46.02.251,untitled,2023.2.3,60.02339712716013,2023-12-14 18h29.07.666701 -0500,
3.0,"[0, 0.2]",None,,,,,0.0,29.0,29.0,29.0,,,,,268.5779387000075,,,,,,,,,,,,,,,,,,,,,,,,,,,,,,,,,,,,,,,,,,,,,,,268.5626099999936,268.5779387000075,268.5779387000075,269.07784849999007,269.07784849999007,271.5777839999937,271.5777839999937,271.5621781999944,None,1.0,,,,,,,,,,,,,,,,,,,,,,,,,,nback28,1.0,2023-12-14_17h46.02.251,untitled,2023.2.3,60.02339712716013,2023-12-14 18h29.07.666701 -0500,
12.0,"[0.64, -0.4]",None,,,,,0.0,30.0,30.0,30.0,,,,,271.5777839999937,,,,,,,,,,,,,,,,,,,,,,,,,,,,,,,,,,,,,,,,,,,,,,,271.56296819998533,271.5777839999937,271.5777839999937,272.07763739998336,272.07763739998336,274.57774779998,274.57774779998,274.5620077000058,None,1.0,,,,,,,,,,,,,,,,,,,,,,,,,,nback28,1.0,2023-12-14_17h46.02.251,untitled,2023.2.3,60.02339712716013,2023-12-14 18h29.07.666701 -0500,
12.0,"[0.64, -0.4]",space,,,,,0.0,31.0,31.0,31.0,,,,,274.57774779998,,,,,,,,,,,,,,,,,,,,,,,,,,,,,,,,,,,,,,,,,,,,,,,274.56271949998336,274.57774779998,274.57774779998,275.0775702999963,275.0775702999963,277.57753369997954,277.57753369997954,277.56139899999835,space,1.0,0.5588519000157248,None,,,,,,,,,,,,,,,,,,,,,,,,nback28,1.0,2023-12-14_17h46.02.251,untitled,2023.2.3,60.02339712716013,2023-12-14 18h29.07.666701 -0500,
2.0,"[0.64, 0.4]",None,,,,,0.0,32.0,32.0,32.0,,,,,277.57753369997954,,,,,,,,,,,,,,,,,,,,,,,,,,,,,,,,,,,,,,,,,,,,,,,277.5618070999917,277.57753369997954,277.57753369997954,278.07764730000054,278.07764730000054,280.57757510000374,280.57757510000374,280.56139149999944,None,1.0,,,,,,,,,,,,,,,,,,,,,,,,,,nback28,1.0,2023-12-14_17h46.02.251,untitled,2023.2.3,60.02339712716013,2023-12-14 18h29.07.666701 -0500,
1.0,"[-0.64, 0.4]",None,,,,,0.0,33.0,33.0,33.0,,,,,280.57757510000374,,,,,,,,,,,,,,,,,,,,,,,,,,,,,,,,,,,,,,,,,,,,,,,280.5617618999968,280.57757510000374,280.57757510000374,281.07740509998985,281.07740509998985,283.5774332000001,283.5774332000001,283.56182149998494,None,1.0,,,,,,,,,,,,,,,,,,,,,,,,,,nback28,1.0,2023-12-14_17h46.02.251,untitled,2023.2.3,60.02339712716013,2023-12-14 18h29.07.666701 -0500,
7.0,"[0.3, 0]",None,,,,,0.0,34.0,34.0,34.0,,,,,283.5774332000001,,,,,,,,,,,,,,,,,,,,,,,,,,,,,,,,,,,,,,,,,,,,,,,283.5622890999948,283.5774332000001,283.5774332000001,284.07746460000635,284.07746460000635,286.5775567999808,286.5775567999808,286.5615198999876,None,1.0,,,,,,,,,,,,,,,,,,,,,,,,,,nback28,1.0,2023-12-14_17h46.02.251,untitled,2023.2.3,60.02339712716013,2023-12-14 18h29.07.666701 -0500,
7.0,"[0.3, 0]",space,,,,,0.0,35.0,35.0,35.0,,,,,286.5775567999808,,,,,,,,,,,,,,,,,,,,,,,,,,,,,,,,,,,,,,,,,,,,,,,286.56187429997954,286.5775567999808,286.5775567999808,287.0775775999937,287.0775775999937,289.5774620999873,289.5774620999873,289.5614679999999,space,1.0,0.6317681999935303,None,,,,,,,,,,,,,,,,,,,,,,,,nback28,1.0,2023-12-14_17h46.02.251,untitled,2023.2.3,60.02339712716013,2023-12-14 18h29.07.666701 -0500,
11.0,"[-0.64, -0.4]",None,,,,,0.0,36.0,36.0,36.0,,,,,289.5774620999873,,,,,,,,,,,,,,,,,,,,,,,,,,,,,,,,,,,,,,,,,,,,,,,289.5619752999919,289.5774620999873,289.5774620999873,290.07752200000687,290.07752200000687,292.5772927000071,292.5772927000071,292.5612309999997,None,1.0,,,,,,,,,,,,,,,,,,,,,,,,,,nback28,1.0,2023-12-14_17h46.02.251,untitled,2023.2.3,60.02339712716013,2023-12-14 18h29.07.666701 -0500,
2.0,"[0.64, 0.4]",None,,,,,0.0,37.0,37.0,37.0,,,,,292.5772927000071,,,,,,,,,,,,,,,,,,,,,,,,,,,,,,,,,,,,,,,,,,,,,,,292.5616288000019,292.5772927000071,292.5772927000071,293.0774198999861,293.0774198999861,295.5774960999843,295.5774960999843,295.56147970000166,None,1.0,,,,,,,,,,,,,,,,,,,,,,,,,,nback28,1.0,2023-12-14_17h46.02.251,untitled,2023.2.3,60.02339712716013,2023-12-14 18h29.07.666701 -0500,
6.0,"[-0.3, 0]",None,,,,,0.0,38.0,38.0,38.0,,,,,295.5774960999843,,,,,,,,,,,,,,,,,,,,,,,,,,,,,,,,,,,,,,,,,,,,,,,295.5620844999794,295.5774960999843,295.5774960999843,296.0772623999801,296.0772623999801,298.5773101999948,298.5773101999948,298.56166159998975,None,1.0,,,,,,,,,,,,,,,,,,,,,,,,,,nback28,1.0,2023-12-14_17h46.02.251,untitled,2023.2.3,60.02339712716013,2023-12-14 18h29.07.666701 -0500,
10.0,"[0, -0.2]",None,,,,,0.0,39.0,39.0,39.0,,,,,298.5773101999948,,,,,,,,,,,,,,,,,,,,,,,,,,,,,,,,,,,,,,,,,,,,,,,298.5620984999987,298.5773101999948,298.5773101999948,299.07734429999255,299.07734429999255,301.5774317999894,301.5774317999894,301.5616339999833,None,1.0,,,,,,,,,,,,,,,,,,,,,,,,,,nback28,1.0,2023-12-14_17h46.02.251,untitled,2023.2.3,60.02339712716013,2023-12-14 18h29.07.666701 -0500,
,,,,,,,,,,,,,,,,,,,,,,,,,,,,,,,,,,,,,,,,,,,,,,,,,,,,,,,,,,,,,,,,,,,,,,,,,,301.5621867000009,301.5774317999894,301.5774317999894,325.42876549999346,space,23.838916799984872,None,,,,,,,,,,,,,,,,,nback28,1.0,2023-12-14_17h46.02.251,untitled,2023.2.3,60.02339712716013,2023-12-14 18h29.07.666701 -0500,
,"[0.2, 0.1]",None,,,,,,,,,0.0,0.0,0.0,0.0,326.4435795999889,,,,,,,,,,,,,,,,,,,,,,,,325.42881359998137,325.4437345000042,326.4435795999889,326.4275606999872,,,,,,,,,,,,,,,,,,,,,,,,,,,,,,,,,,,,,,,326.4408246999956,326.4435795999889,326.4435795999889,326.9436575,326.9436575,329.4434485999809,329.4434485999809,329.42732469999464,None,1.0,,,,,,,nback28,1.0,2023-12-14_17h46.02.251,untitled,2023.2.3,60.02339712716013,2023-12-14 18h29.07.666701 -0500,
,"[0.64, 0.4]",None,,,,,,,,,0.0,1.0,1.0,1.0,329.4434485999809,,,,,,,,,,,,,,,,,,,,,,,,,,,,,,,,,,,,,,,,,,,,,,,,,,,,,,,,,,,,,,,,,,329.42794150000555,329.4434485999809,329.4434485999809,329.94359340000665,329.94359340000665,332.44348369998625,332.44348369998625,332.4275701000006,None,1.0,,,,,,,nback28,1.0,2023-12-14_17h46.02.251,untitled,2023.2.3,60.02339712716013,2023-12-14 18h29.07.666701 -0500,
,"[-0.3, 0]",None,,,,,,,,,0.0,2.0,2.0,2.0,332.44348369998625,,,,,,,,,,,,,,,,,,,,,,,,,,,,,,,,,,,,,,,,,,,,,,,,,,,,,,,,,,,,,,,,,,332.4282329999842,332.44348369998625,332.44348369998625,332.9435434000043,332.9435434000043,335.44350979998126,335.44350979998126,335.4276020999823,None,1.0,,,,,,,nback28,1.0,2023-12-14_17h46.02.251,untitled,2023.2.3,60.02339712716013,2023-12-14 18h29.07.666701 -0500,
,"[0.2, -0.1]",None,,,,,,,,,0.0,3.0,3.0,3.0,335.44350979998126,,,,,,,,,,,,,,,,,,,,,,,,,,,,,,,,,,,,,,,,,,,,,,,,,,,,,,,,,,,,,,,,,,335.4282408999861,335.44350979998126,335.44350979998126,335.9434565999836,335.9434565999836,338.4434501999931,338.4434501999931,338.4277110999974,None,1.0,,,,,,,nback28,1.0,2023-12-14_17h46.02.251,untitled,2023.2.3,60.02339712716013,2023-12-14 18h29.07.666701 -0500,
,"[0, 0.2]",None,,,,,,,,,0.0,4.0,4.0,4.0,338.4434501999931,,,,,,,,,,,,,,,,,,,,,,,,,,,,,,,,,,,,,,,,,,,,,,,,,,,,,,,,,,,,,,,,,,338.42845249999664,338.4434501999931,338.4434501999931,338.94340059999377,338.94340059999377,341.4433658999915,341.4433658999915,341.42751849998604,None,1.0,,,,,,,nback28,1.0,2023-12-14_17h46.02.251,untitled,2023.2.3,60.02339712716013,2023-12-14 18h29.07.666701 -0500,
,"[0.2, -0.1]",space,,,,,,,,,0.0,5.0,5.0,5.0,341.4433658999915,,,,,,,,,,,,,,,,,,,,,,,,,,,,,,,,,,,,,,,,,,,,,,,,,,,,,,,,,,,,,,,,,,341.42817559998366,341.4433658999915,341.4433658999915,341.94340240000747,341.94340240000747,344.44315069998265,344.44315069998265,344.4275733999966,space,1.0,0.7560532999923453,None,,,,,nback28,1.0,2023-12-14_17h46.02.251,untitled,2023.2.3,60.02339712716013,2023-12-14 18h29.07.666701 -0500,
,"[0, -0.2]",None,,,,,,,,,0.0,6.0,6.0,6.0,344.44315069998265,,,,,,,,,,,,,,,,,,,,,,,,,,,,,,,,,,,,,,,,,,,,,,,,,,,,,,,,,,,,,,,,,,344.42865659997915,344.44315069998265,344.44315069998265,344.943419999996,344.943419999996,347.4431726000039,347.4431726000039,347.4274487000075,None,1.0,,,,,,,nback28,1.0,2023-12-14_17h46.02.251,untitled,2023.2.3,60.02339712716013,2023-12-14 18h29.07.666701 -0500,
,"[0.64, -0.4]",None,,,,,,,,,0.0,7.0,7.0,7.0,347.4431726000039,,,,,,,,,,,,,,,,,,,,,,,,,,,,,,,,,,,,,,,,,,,,,,,,,,,,,,,,,,,,,,,,,,347.4281768999936,347.4431726000039,347.4431726000039,347.9433583999926,347.9433583999926,350.4431304000027,350.4431304000027,350.42701189999934,None,1.0,,,,,,,nback28,1.0,2023-12-14_17h46.02.251,untitled,2023.2.3,60.02339712716013,2023-12-14 18h29.07.666701 -0500,
,"[0.3, 0]",None,,,,,,,,,0.0,8.0,8.0,8.0,350.4431304000027,,,,,,,,,,,,,,,,,,,,,,,,,,,,,,,,,,,,,,,,,,,,,,,,,,,,,,,,,,,,,,,,,,350.4273867000011,350.4431304000027,350.4431304000027,350.94312529999297,350.94312529999297,353.4432378000056,353.4432378000056,353.42721389999497,None,1.0,,,,,,,nback28,1.0,2023-12-14_17h46.02.251,untitled,2023.2.3,60.02339712716013,2023-12-14 18h29.07.666701 -0500,
,"[0.64, -0.4]",space,,,,,,,,,0.0,9.0,9.0,9.0,353.4432378000056,,,,,,,,,,,,,,,,,,,,,,,,,,,,,,,,,,,,,,,,,,,,,,,,,,,,,,,,,,,,,,,,,,353.4278459000052,353.4432378000056,353.4432378000056,353.9432279999892,353.9432279999892,356.44304650000413,356.44304650000413,356.4271887000068,space,1.0,0.562681600014912,None,,,,,nback28,1.0,2023-12-14_17h46.02.251,untitled,2023.2.3,60.02339712716013,2023-12-14 18h29.07.666701 -0500,
,"[-0.64, 0.4]",None,,,,,,,,,0.0,10.0,10.0,10.0,356.44304650000413,,,,,,,,,,,,,,,,,,,,,,,,,,,,,,,,,,,,,,,,,,,,,,,,,,,,,,,,,,,,,,,,,,356.42790139999124,356.44304650000413,356.44304650000413,356.9433024000027,356.9433024000027,359.4431182999979,359.4431182999979,359.42738189999363,None,1.0,,,,,,,nback28,1.0,2023-12-14_17h46.02.251,untitled,2023.2.3,60.02339712716013,2023-12-14 18h29.07.666701 -0500,
,"[0.2, 0.1]",None,,,,,,,,,0.0,11.0,11.0,11.0,359.4431182999979,,,,,,,,,,,,,,,,,,,,,,,,,,,,,,,,,,,,,,,,,,,,,,,,,,,,,,,,,,,,,,,,,,359.4279222000041,359.4431182999979,359.4431182999979,359.94318609999027,359.94318609999027,362.44305989998975,362.44305989998975,362.4270530999929,None,1.0,,,,,,,nback28,1.0,2023-12-14_17h46.02.251,untitled,2023.2.3,60.02339712716013,2023-12-14 18h29.07.666701 -0500,
,"[0.3, 0]",None,,,,,,,,,0.0,12.0,12.0,12.0,362.44305989998975,,,,,,,,,,,,,,,,,,,,,,,,,,,,,,,,,,,,,,,,,,,,,,,,,,,,,,,,,,,,,,,,,,362.4276706999808,362.44305989998975,362.44305989998975,362.94288109999616,362.94288109999616,365.4429235999996,365.4429235999996,365.4271825999895,None,1.0,,,,,,,nback28,1.0,2023-12-14_17h46.02.251,untitled,2023.2.3,60.02339712716013,2023-12-14 18h29.07.666701 -0500,
,"[0.2, 0.1]",space,,,,,,,,,0.0,13.0,13.0,13.0,365.4429235999996,,,,,,,,,,,,,,,,,,,,,,,,,,,,,,,,,,,,,,,,,,,,,,,,,,,,,,,,,,,,,,,,,,365.4279775999894,365.4429235999996,365.4429235999996,365.9430892999808,365.9430892999808,368.442973600002,368.442973600002,368.4272923999815,None,0.0,,,,,,,nback28,1.0,2023-12-14_17h46.02.251,untitled,2023.2.3,60.02339712716013,2023-12-14 18h29.07.666701 -0500,
,"[-0.3, 0]",None,,,,,,,,,0.0,14.0,14.0,14.0,368.442973600002,,,,,,,,,,,,,,,,,,,,,,,,,,,,,,,,,,,,,,,,,,,,,,,,,,,,,,,,,,,,,,,,,,368.4280346999876,368.442973600002,368.442973600002,368.9430002000008,368.9430002000008,371.44291169999633,371.44291169999633,371.42728089998127,space,0.0,1.7239792000036689,None,,,,,nback28,1.0,2023-12-14_17h46.02.251,untitled,2023.2.3,60.02339712716013,2023-12-14 18h29.07.666701 -0500,
,"[0, 0.2]",None,,,,,,,,,0.0,15.0,15.0,15.0,371.44291169999633,,,,,,,,,,,,,,,,,,,,,,,,,,,,,,,,,,,,,,,,,,,,,,,,,,,,,,,,,,,,,,,,,,371.42831839999417,371.44291169999633,371.44291169999633,371.9429728999967,371.9429728999967,374.4429869999876,374.4429869999876,374.4272932999884,None,1.0,,,,,,,nback28,1.0,2023-12-14_17h46.02.251,untitled,2023.2.3,60.02339712716013,2023-12-14 18h29.07.666701 -0500,
,"[-0.3, 0]",space,,,,,,,,,0.0,16.0,16.0,16.0,374.4429869999876,,,,,,,,,,,,,,,,,,,,,,,,,,,,,,,,,,,,,,,,,,,,,,,,,,,,,,,,,,,,,,,,,,374.4280824000016,374.4429869999876,374.4429869999876,374.9429573999951,374.9429573999951,377.4429816000047,377.4429816000047,377.4270011000044,None,0.0,,,,,,,nback28,1.0,2023-12-14_17h46.02.251,untitled,2023.2.3,60.02339712716013,2023-12-14 18h29.07.666701 -0500,
,"[-0.64, -0.4]",None,,,,,,,,,0.0,17.0,17.0,17.0,377.4429816000047,,,,,,,,,,,,,,,,,,,,,,,,,,,,,,,,,,,,,,,,,,,,,,,,,,,,,,,,,,,,,,,,,,377.4277902999893,377.4429816000047,377.4429816000047,377.9427453999815,377.9427453999815,380.4427979000029,380.4427979000029,380.4268850999943,None,1.0,,,,,,,nback28,1.0,2023-12-14_17h46.02.251,untitled,2023.2.3,60.02339712716013,2023-12-14 18h29.07.666701 -0500,
,"[-0.2, -0.1]",None,,,,,,,,,0.0,18.0,18.0,18.0,380.4427979000029,,,,,,,,,,,,,,,,,,,,,,,,,,,,,,,,,,,,,,,,,,,,,,,,,,,,,,,,,,,,,,,,,,380.4275762999896,380.4427979000029,380.4427979000029,380.942985200003,380.942985200003,383.4425583999837,383.4425583999837,383.42644059998565,None,1.0,,,,,,,nback28,1.0,2023-12-14_17h46.02.251,untitled,2023.2.3,60.02339712716013,2023-12-14 18h29.07.666701 -0500,
,"[0.2, -0.1]",None,,,,,,,,,0.0,19.0,19.0,19.0,383.4425583999837,,,,,,,,,,,,,,,,,,,,,,,,,,,,,,,,,,,,,,,,,,,,,,,,,,,,,,,,,,,,,,,,,,383.42703669998446,383.4425583999837,383.4425583999837,383.9428723999881,383.9428723999881,386.4426608000067,386.4426608000067,386.4268293000059,None,1.0,,,,,,,nback28,1.0,2023-12-14_17h46.02.251,untitled,2023.2.3,60.02339712716013,2023-12-14 18h29.07.666701 -0500,
,"[0.2, -0.1]",None,,,,,,,,,0.0,20.0,20.0,20.0,386.4426608000067,,,,,,,,,,,,,,,,,,,,,,,,,,,,,,,,,,,,,,,,,,,,,,,,,,,,,,,,,,,,,,,,,,386.42761260000407,386.4426608000067,386.4426608000067,386.94263710000087,386.94263710000087,389.4425945999974,389.4425945999974,389.4269209000049,None,1.0,,,,,,,nback28,1.0,2023-12-14_17h46.02.251,untitled,2023.2.3,60.02339712716013,2023-12-14 18h29.07.666701 -0500,
,"[-0.64, 0.4]",None,,,,,,,,,0.0,21.0,21.0,21.0,389.4425945999974,,,,,,,,,,,,,,,,,,,,,,,,,,,,,,,,,,,,,,,,,,,,,,,,,,,,,,,,,,,,,,,,,,389.42769439998665,389.4425945999974,389.4425945999974,389.9425892999861,389.9425892999861,392.4424397999828,392.4424397999828,392.4264551999804,None,1.0,,,,,,,nback28,1.0,2023-12-14_17h46.02.251,untitled,2023.2.3,60.02339712716013,2023-12-14 18h29.07.666701 -0500,
,"[0, 0.2]",None,,,,,,,,,0.0,22.0,22.0,22.0,392.4424397999828,,,,,,,,,,,,,,,,,,,,,,,,,,,,,,,,,,,,,,,,,,,,,,,,,,,,,,,,,,,,,,,,,,392.4270266999956,392.4424397999828,392.4424397999828,392.9425592999905,392.9425592999905,395.4425318999856,395.4425318999856,395.42649489999167,None,1.0,,,,,,,nback28,1.0,2023-12-14_17h46.02.251,untitled,2023.2.3,60.02339712716013,2023-12-14 18h29.07.666701 -0500,
,"[0.64, -0.4]",None,,,,,,,,,0.0,23.0,23.0,23.0,395.4425318999856,,,,,,,,,,,,,,,,,,,,,,,,,,,,,,,,,,,,,,,,,,,,,,,,,,,,,,,,,,,,,,,,,,395.4271548999823,395.4425318999856,395.4425318999856,395.9425779999874,395.9425779999874,398.4423325999815,398.4423325999815,398.4264813000045,None,1.0,,,,,,,nback28,1.0,2023-12-14_17h46.02.251,untitled,2023.2.3,60.02339712716013,2023-12-14 18h29.07.666701 -0500,
,"[0, 0.2]",space,,,,,,,,,0.0,24.0,24.0,24.0,398.4423325999815,,,,,,,,,,,,,,,,,,,,,,,,,,,,,,,,,,,,,,,,,,,,,,,,,,,,,,,,,,,,,,,,,,398.4270595999842,398.4423325999815,398.4423325999815,398.9424518999877,398.9424518999877,401.442318699992,401.442318699992,401.4264861999836,space,1.0,0.6435644000011962,None,,,,,nback28,1.0,2023-12-14_17h46.02.251,untitled,2023.2.3,60.02339712716013,2023-12-14 18h29.07.666701 -0500,
,"[-0.2, 0.1]",None,,,,,,,,,0.0,25.0,25.0,25.0,401.442318699992,,,,,,,,,,,,,,,,,,,,,,,,,,,,,,,,,,,,,,,,,,,,,,,,,,,,,,,,,,,,,,,,,,401.4274605999817,401.442318699992,401.442318699992,401.942546300008,401.942546300008,404.44222520000767,404.44222520000767,404.4265580000065,None,1.0,,,,,,,nback28,1.0,2023-12-14_17h46.02.251,untitled,2023.2.3,60.02339712716013,2023-12-14 18h29.07.666701 -0500,
,"[0.3, 0]",None,,,,,,,,,0.0,26.0,26.0,26.0,404.44222520000767,,,,,,,,,,,,,,,,,,,,,,,,,,,,,,,,,,,,,,,,,,,,,,,,,,,,,,,,,,,,,,,,,,404.427271099994,404.44222520000767,404.44222520000767,404.9424093999842,404.9424093999842,407.44225500000175,407.44225500000175,407.42657209999743,None,1.0,,,,,,,nback28,1.0,2023-12-14_17h46.02.251,untitled,2023.2.3,60.02339712716013,2023-12-14 18h29.07.666701 -0500,
,"[-0.2, 0.1]",space,,,,,,,,,0.0,27.0,27.0,27.0,407.44225500000175,,,,,,,,,,,,,,,,,,,,,,,,,,,,,,,,,,,,,,,,,,,,,,,,,,,,,,,,,,,,,,,,,,407.42738760000793,407.44225500000175,407.44225500000175,407.94235379999736,407.94235379999736,410.44228160000057,410.44228160000057,410.4259710999904,space,1.0,0.6956270000082441,None,,,,,nback28,1.0,2023-12-14_17h46.02.251,untitled,2023.2.3,60.02339712716013,2023-12-14 18h29.07.666701 -0500,
,"[-0.2, 0.1]",None,,,,,,,,,0.0,28.0,28.0,28.0,410.44228160000057,,,,,,,,,,,,,,,,,,,,,,,,,,,,,,,,,,,,,,,,,,,,,,,,,,,,,,,,,,,,,,,,,,410.426618700003,410.44228160000057,410.44228160000057,410.9422814999998,410.9422814999998,413.4422058000055,413.4422058000055,413.42636399998446,None,1.0,,,,,,,nback28,1.0,2023-12-14_17h46.02.251,untitled,2023.2.3,60.02339712716013,2023-12-14 18h29.07.666701 -0500,
,"[0.2, 0.1]",None,,,,,,,,,0.0,29.0,29.0,29.0,413.4422058000055,,,,,,,,,,,,,,,,,,,,,,,,,,,,,,,,,,,,,,,,,,,,,,,,,,,,,,,,,,,,,,,,,,413.42702709999867,413.4422058000055,413.4422058000055,413.9423218999873,413.9423218999873,416.4421602999792,416.4421602999792,416.4264903999865,None,1.0,,,,,,,nback28,1.0,2023-12-14_17h46.02.251,untitled,2023.2.3,60.02339712716013,2023-12-14 18h29.07.666701 -0500,
,"[-0.64, -0.4]",None,,,,,,,,,0.0,30.0,30.0,30.0,416.4421602999792,,,,,,,,,,,,,,,,,,,,,,,,,,,,,,,,,,,,,,,,,,,,,,,,,,,,,,,,,,,,,,,,,,416.427337400004,416.4421602999792,416.4421602999792,416.9422773999977,416.9422773999977,419.4421398999984,419.4421398999984,419.4265284999856,None,1.0,,,,,,,nback28,1.0,2023-12-14_17h46.02.251,untitled,2023.2.3,60.02339712716013,2023-12-14 18h29.07.666701 -0500,
,"[0, -0.2]",None,,,,,,,,,0.0,31.0,31.0,31.0,419.4421398999984,,,,,,,,,,,,,,,,,,,,,,,,,,,,,,,,,,,,,,,,,,,,,,,,,,,,,,,,,,,,,,,,,,419.4273222000047,419.4421398999984,419.4421398999984,419.94219859997975,419.94219859997975,422.4419765000057,422.4419765000057,422.4263832999859,None,1.0,,,,,,,nback28,1.0,2023-12-14_17h46.02.251,untitled,2023.2.3,60.02339712716013,2023-12-14 18h29.07.666701 -0500,
,"[-0.64, -0.4]",space,,,,,,,,,0.0,32.0,32.0,32.0,422.4419765000057,,,,,,,,,,,,,,,,,,,,,,,,,,,,,,,,,,,,,,,,,,,,,,,,,,,,,,,,,,,,,,,,,,422.4272781999898,422.4419765000057,422.4419765000057,422.9420475999941,422.9420475999941,425.44200429998455,425.44200429998455,425.426106400002,space,1.0,0.564428699988639,None,,,,,nback28,1.0,2023-12-14_17h46.02.251,untitled,2023.2.3,60.02339712716013,2023-12-14 18h29.07.666701 -0500,
,"[0.64, 0.4]",None,,,,,,,,,0.0,33.0,33.0,33.0,425.44200429998455,,,,,,,,,,,,,,,,,,,,,,,,,,,,,,,,,,,,,,,,,,,,,,,,,,,,,,,,,,,,,,,,,,425.4269993999915,425.44200429998455,425.44200429998455,425.9420076999813,425.9420076999813,428.4420310999849,428.4420310999849,428.4256647999864,None,1.0,,,,,,,nback28,1.0,2023-12-14_17h46.02.251,untitled,2023.2.3,60.02339712716013,2023-12-14 18h29.07.666701 -0500,
,"[-0.3, 0]",None,,,,,,,,,0.0,34.0,34.0,34.0,428.4420310999849,,,,,,,,,,,,,,,,,,,,,,,,,,,,,,,,,,,,,,,,,,,,,,,,,,,,,,,,,,,,,,,,,,428.426231999998,428.4420310999849,428.4420310999849,428.9418869999936,428.9418869999936,431.44187749997946,431.44187749997946,431.4259416999994,None,1.0,,,,,,,nback28,1.0,2023-12-14_17h46.02.251,untitled,2023.2.3,60.02339712716013,2023-12-14 18h29.07.666701 -0500,
,"[0.3, 0]",None,,,,,,,,,0.0,35.0,35.0,35.0,431.44187749997946,,,,,,,,,,,,,,,,,,,,,,,,,,,,,,,,,,,,,,,,,,,,,,,,,,,,,,,,,,,,,,,,,,431.4266379000037,431.44187749997946,431.44187749997946,431.9419765000057,431.9419765000057,434.4417671999836,434.4417671999836,434.4260692999815,None,1.0,,,,,,,nback28,1.0,2023-12-14_17h46.02.251,untitled,2023.2.3,60.02339712716013,2023-12-14 18h29.07.666701 -0500,
,"[-0.3, 0]",space,,,,,,,,,0.0,36.0,36.0,36.0,434.4417671999836,,,,,,,,,,,,,,,,,,,,,,,,,,,,,,,,,,,,,,,,,,,,,,,,,,,,,,,,,,,,,,,,,,434.426781599992,434.4417671999836,434.4417671999836,434.9419912000012,434.9419912000012,437.4418551999843,437.4418551999843,437.42584189999616,space,1.0,0.6073569000000134,None,,,,,nback28,1.0,2023-12-14_17h46.02.251,untitled,2023.2.3,60.02339712716013,2023-12-14 18h29.07.666701 -0500,
,"[0, -0.2]",None,,,,,,,,,0.0,37.0,37.0,37.0,437.4418551999843,,,,,,,,,,,,,,,,,,,,,,,,,,,,,,,,,,,,,,,,,,,,,,,,,,,,,,,,,,,,,,,,,,437.4266746999929,437.4418551999843,437.4418551999843,437.9417937999824,437.9417937999824,440.4416100999806,440.4416100999806,440.42544759999146,None,1.0,,,,,,,nback28,1.0,2023-12-14_17h46.02.251,untitled,2023.2.3,60.02339712716013,2023-12-14 18h29.07.666701 -0500,
,"[0.3, 0]",None,,,,,,,,,0.0,38.0,38.0,38.0,440.4416100999806,,,,,,,,,,,,,,,,,,,,,,,,,,,,,,,,,,,,,,,,,,,,,,,,,,,,,,,,,,,,,,,,,,440.4259715999942,440.4416100999806,440.4416100999806,440.9417904999864,440.9417904999864,443.4417146999913,443.4417146999913,443.42597720000776,None,1.0,,,,,,,nback28,1.0,2023-12-14_17h46.02.251,untitled,2023.2.3,60.02339712716013,2023-12-14 18h29.07.666701 -0500,
,"[0.2, 0.1]",None,,,,,,,,,0.0,39.0,39.0,39.0,443.4417146999913,,,,,,,,,,,,,,,,,,,,,,,,,,,,,,,,,,,,,,,,,,,,,,,,,,,,,,,,,,,,,,,,,,443.4267099999997,443.4417146999913,443.4417146999913,443.9416438000044,443.9416438000044,446.44172899998375,446.44172899998375,446.4260140999977,None,1.0,,,,,,,nback28,1.0,2023-12-14_17h46.02.251,untitled,2023.2.3,60.02339712716013,2023-12-14 18h29.07.666701 -0500,
,,,,,,,,,,,,,,,,,,,,,,,,,,,,,,,,,,,,,,,,,,,,,,,,,,,,,,,,,,,,,,,,,,,,,,,,,,,,,,,,,,,,,,,,,,,,,446.4265193000029,446.44172899998375,449.4415192999877,449.42560749998665,,,,,,,,
