square,location,corrAns,trials_0.thisRepN,trials_0.thisTrialN,trials_0.thisN,trials_0.thisIndex,trials_1.thisRepN,trials_1.thisTrialN,trials_1.thisN,trials_1.thisIndex,trials_2.thisRepN,trials_2.thisTrialN,trials_2.thisN,trials_2.thisIndex,thisRow.t,notes,Instructions.started,instructions.started,key_resp.started,inst_sq11.started,Instructions.stopped,key_resp.keys,key_resp.rt,key_resp.duration,All.started,sq_1.started,sq_2.started,sq_3.started,sq_4.started,sq_5.started,sq_6.started,sq_7.started,sq_8.started,sq_9.started,sq_10.started,sq_11.started,sq_12.started,All.stopped,Fixation.started,fixation_3.started,fixation_3.stopped,Fixation.stopped,N_back_0_Trial.started,target_square_0.started,response_0.started,fixation_0.started,target_square_0.stopped,fixation_0.stopped,N_back_0_Trial.stopped,response_0.keys,response_0.corr,response_0.rt,response_0.duration,Instructions_1.started,instructions_1.started,key_resp_1.started,Instructions_1.stopped,key_resp_1.keys,key_resp_1.rt,key_resp_1.duration,N_back_1_Trial.started,target_square_1.started,response_1.started,fixation_1.started,target_square_1.stopped,fixation_1.stopped,N_back_1_Trial.stopped,response_1.keys,response_1.corr,response_1.rt,response_1.duration,Instructions_2.started,instructions_2.started,key_resp_2.started,Instructions_2.stopped,key_resp_2.keys,key_resp_2.rt,key_resp_2.duration,N_back_2_trials.started,target_square_2.started,response_2.started,fixation_2.started,target_square_2.stopped,fixation_2.stopped,N_back_2_trials.stopped,response_2.keys,response_2.corr,response_2.rt,response_2.duration,End.started,thank_you.started,End.stopped,participant,session,date,expName,psychopyVersion,frameRate,expStart,Unnamed: 100
,,,,,,,,,,,,,,,,,0.0015308000147342,0.0039779001381248,0.0039779001381248,0.0039779001381248,1926.302824800136,space,1926.296663200017,None,,,,,,,,,,,,,,,,,,,,,,,,,,,,,,,,,,,,,,,,,,,,,,,,,,,,,,,,,,,,,,,,,,,,,nback73,1.0,2024-01-29_10h20.45.012,untitled,2023.2.3,60.05212525012914,2024-01-29 10h47.54.299697 -0500,
6.0,"[-0.3, 0]",None,0.0,0.0,0.0,0.0,,,,,,,,,1928.3220440000296,,,,,,,,,,1926.3028613999488,1926.3182741000785,1926.3182741000785,1926.3182741000785,1926.3182741000785,1926.3182741000785,1926.3182741000785,1926.3182741000785,1926.3182741000785,1926.3182741000785,1926.3182741000785,1926.3182741000785,1926.3182741000785,1927.3026386001147,1927.302667499985,1927.3181994000915,1928.3220440000296,1928.3023354001343,1928.3200580000407,1928.3220440000296,1928.3220440000296,1928.8181094001047,1928.8349127999973,1931.318523500115,1931.3187383001205,space,0.0,2.6910403000656515,None,,,,,,,,,,,,,,,,,,,,,,,,,,,,,,,,,,,,,,,,nback73,1.0,2024-01-29_10h20.45.012,untitled,2023.2.3,60.05212525012914,2024-01-29 10h47.54.299697 -0500,
10.0,"[0, -0.2]",None,0.0,1.0,1.0,1.0,,,,,,,,,1931.3351263001096,,,,,,,,,,,,,,,,,,,,,,,,,,,,1931.320110199973,1931.3351263001096,1931.3351263001096,1931.801445200108,1931.8347537999507,1934.3016642001455,1934.3186027000197,space,0.0,1.9765313998796048,None,,,,,,,,,,,,,,,,,,,,,,,,,,,,,,,,,,,,,,,,nback73,1.0,2024-01-29_10h20.45.012,untitled,2023.2.3,60.05212525012914,2024-01-29 10h47.54.299697 -0500,
11.0,"[-0.64, -0.4]",space,0.0,2.0,2.0,2.0,,,,,,,,,1934.335112000117,,,,,,,,,,,,,,,,,,,,,,,,,,,,1934.3195361001417,1934.335112000117,1934.335112000117,1934.818439600058,1934.835123999976,1937.3184299999848,1937.3186350001488,space,1.0,1.1475251999218017,None,,,,,,,,,,,,,,,,,,,,,,,,,,,,,,,,,,,,,,,,nback73,1.0,2024-01-29_10h20.45.012,untitled,2023.2.3,60.05212525012914,2024-01-29 10h47.54.299697 -0500,
12.0,"[0.64, -0.4]",None,0.0,3.0,3.0,3.0,,,,,,,,,1937.3351058000696,,,,,,,,,,,,,,,,,,,,,,,,,,,,1937.3195875000677,1937.3351058000696,1937.3351058000696,1937.801493200008,1937.8349961999336,1940.301618500147,1940.3184458999892,space,0.0,0.8268510999623686,None,,,,,,,,,,,,,,,,,,,,,,,,,,,,,,,,,,,,,,,,nback73,1.0,2024-01-29_10h20.45.012,untitled,2023.2.3,60.05212525012914,2024-01-29 10h47.54.299697 -0500,
1.0,"[-0.64, 0.4]",None,0.0,4.0,4.0,4.0,,,,,,,,,1940.3350289000664,,,,,,,,,,,,,,,,,,,,,,,,,,,,1940.3194206999613,1940.3350289000664,1940.3350289000664,1940.8015400001316,1940.8348157000728,1943.301383299986,1943.3182340001224,space,0.0,0.6407480000052601,None,,,,,,,,,,,,,,,,,,,,,,,,,,,,,,,,,,,,,,,,nback73,1.0,2024-01-29_10h20.45.012,untitled,2023.2.3,60.05212525012914,2024-01-29 10h47.54.299697 -0500,
1.0,"[-0.64, 0.4]",None,0.0,5.0,5.0,5.0,,,,,,,,,1943.334787900094,,,,,,,,,,,,,,,,,,,,,,,,,,,,1943.3188855999613,1943.334787900094,1943.334787900094,1943.8181315001568,1943.8349274999928,1946.318089999957,1946.3182665000204,space,0.0,0.7507370999082923,None,,,,,,,,,,,,,,,,,,,,,,,,,,,,,,,,,,,,,,,,nback73,1.0,2024-01-29_10h20.45.012,untitled,2023.2.3,60.05212525012914,2024-01-29 10h47.54.299697 -0500,
4.0,"[-0.2, 0.1]",None,0.0,6.0,6.0,6.0,,,,,,,,,1946.33500620001,,,,,,,,,,,,,,,,,,,,,,,,,,,,1946.319119000109,1946.33500620001,1946.33500620001,1946.8180911000816,1946.8348886000456,1949.3181998000944,1949.31841409998,space,0.0,0.8935467998962849,None,,,,,,,,,,,,,,,,,,,,,,,,,,,,,,,,,,,,,,,,nback73,1.0,2024-01-29_10h20.45.012,untitled,2023.2.3,60.05212525012914,2024-01-29 10h47.54.299697 -0500,
5.0,"[0.2, 0.1]",None,0.0,7.0,7.0,7.0,,,,,,,,,1949.3348241001368,,,,,,,,,,,,,,,,,,,,,,,,,,,,1949.3194429001303,1949.3348241001368,1949.3348241001368,1949.818228499964,1949.8348095000256,1952.3181262,1952.318318099948,space,0.0,0.8276234001386911,None,,,,,,,,,,,,,,,,,,,,,,,,,,,,,,,,,,,,,,,,nback73,1.0,2024-01-29_10h20.45.012,untitled,2023.2.3,60.05212525012914,2024-01-29 10h47.54.299697 -0500,
11.0,"[-0.64, -0.4]",space,0.0,8.0,8.0,8.0,,,,,,,,,1952.3348735000477,,,,,,,,,,,,,,,,,,,,,,,,,,,,1952.3192402001005,1952.3348735000477,1952.3348735000477,1952.8181962000672,1952.8346941000784,1955.318092300091,1955.318305999972,space,1.0,0.7967467000707984,None,,,,,,,,,,,,,,,,,,,,,,,,,,,,,,,,,,,,,,,,nback73,1.0,2024-01-29_10h20.45.012,untitled,2023.2.3,60.05212525012914,2024-01-29 10h47.54.299697 -0500,
9.0,"[0.2, -0.1]",None,0.0,9.0,9.0,9.0,,,,,,,,,1955.3347577999807,,,,,,,,,,,,,,,,,,,,,,,,,,,,1955.319294499932,1955.3347577999807,1955.3347577999807,1955.818016800098,1955.8348787000868,1958.3179959000556,1958.3182111999488,space,0.0,0.5801882999949157,None,,,,,,,,,,,,,,,,,,,,,,,,,,,,,,,,,,,,,,,,nback73,1.0,2024-01-29_10h20.45.012,untitled,2023.2.3,60.05212525012914,2024-01-29 10h47.54.299697 -0500,
8.0,"[-0.2, -0.1]",None,0.0,10.0,10.0,10.0,,,,,,,,,1958.334593700012,,,,,,,,,,,,,,,,,,,,,,,,,,,,1958.319196100114,1958.334593700012,1958.334593700012,1958.8179170000367,1958.834639800014,1961.317803800106,1961.3179963000584,space,0.0,0.7802453001495451,None,,,,,,,,,,,,,,,,,,,,,,,,,,,,,,,,,,,,,,,,nback73,1.0,2024-01-29_10h20.45.012,untitled,2023.2.3,60.05212525012914,2024-01-29 10h47.54.299697 -0500,
9.0,"[0.2, -0.1]",None,0.0,11.0,11.0,11.0,,,,,,,,,1961.3343957001343,,,,,,,,,,,,,,,,,,,,,,,,,,,,1961.318924400024,1961.3343957001343,1961.3343957001343,1961.818101400044,1961.834573599976,1964.317866400117,1964.3180563000496,space,0.0,0.5419117999263108,None,,,,,,,,,,,,,,,,,,,,,,,,,,,,,,,,,,,,,,,,nback73,1.0,2024-01-29_10h20.45.012,untitled,2023.2.3,60.05212525012914,2024-01-29 10h47.54.299697 -0500,
6.0,"[-0.3, 0]",None,0.0,12.0,12.0,12.0,,,,,,,,,1964.3347039001528,,,,,,,,,,,,,,,,,,,,,,,,,,,,1964.3189203001093,1964.3347039001528,1964.3347039001528,1964.8178600000683,1964.8346317000687,1967.317756399978,1967.3179387999696,space,0.0,0.7146657998673618,None,,,,,,,,,,,,,,,,,,,,,,,,,,,,,,,,,,,,,,,,nback73,1.0,2024-01-29_10h20.45.012,untitled,2023.2.3,60.05212525012914,2024-01-29 10h47.54.299697 -0500,
9.0,"[0.2, -0.1]",None,0.0,13.0,13.0,13.0,,,,,,,,,1967.334289500024,,,,,,,,,,,,,,,,,,,,,,,,,,,,1967.318908700021,1967.334289500024,1967.334289500024,1967.8177620000208,1967.8344817000907,1970.3177768001333,1970.3179783001544,space,0.0,0.6162592000328004,None,,,,,,,,,,,,,,,,,,,,,,,,,,,,,,,,,,,,,,,,nback73,1.0,2024-01-29_10h20.45.012,untitled,2023.2.3,60.05212525012914,2024-01-29 10h47.54.299697 -0500,
7.0,"[0.3, 0]",None,0.0,14.0,14.0,14.0,,,,,,,,,1970.3344546000008,,,,,,,,,,,,,,,,,,,,,,,,,,,,1970.318933499977,1970.3344546000008,1970.3344546000008,1970.817539599957,1970.8341763000933,1973.317700700136,1973.3179252999837,space,0.0,0.7285288998391479,None,,,,,,,,,,,,,,,,,,,,,,,,,,,,,,,,,,,,,,,,nback73,1.0,2024-01-29_10h20.45.012,untitled,2023.2.3,60.05212525012914,2024-01-29 10h47.54.299697 -0500,
2.0,"[0.64, 0.4]",None,0.0,15.0,15.0,15.0,,,,,,,,,1973.3342329000589,,,,,,,,,,,,,,,,,,,,,,,,,,,,1973.3189983000048,1973.3342329000589,1973.3342329000589,1973.817685400136,1973.8343311999924,1976.3176442999395,1976.3178449000695,space,0.0,0.7658061000984162,None,,,,,,,,,,,,,,,,,,,,,,,,,,,,,,,,,,,,,,,,nback73,1.0,2024-01-29_10h20.45.012,untitled,2023.2.3,60.05212525012914,2024-01-29 10h47.54.299697 -0500,
2.0,"[0.64, 0.4]",None,0.0,16.0,16.0,16.0,,,,,,,,,1976.334289100021,,,,,,,,,,,,,,,,,,,,,,,,,,,,1976.3187673999928,1976.334289100021,1976.334289100021,1976.8176486999728,1976.8343277000824,1979.317516400013,1979.317693900084,space,0.0,0.8940252000465989,None,,,,,,,,,,,,,,,,,,,,,,,,,,,,,,,,,,,,,,,,nback73,1.0,2024-01-29_10h20.45.012,untitled,2023.2.3,60.05212525012914,2024-01-29 10h47.54.299697 -0500,
11.0,"[-0.64, -0.4]",space,0.0,17.0,17.0,17.0,,,,,,,,,1979.334217200056,,,,,,,,,,,,,,,,,,,,,,,,,,,,1979.3186608001124,1979.334217200056,1979.334217200056,1979.817414399935,1979.834096499952,1982.3174356999807,1982.3175892001016,space,1.0,0.7836466000881046,None,,,,,,,,,,,,,,,,,,,,,,,,,,,,,,,,,,,,,,,,nback73,1.0,2024-01-29_10h20.45.012,untitled,2023.2.3,60.05212525012914,2024-01-29 10h47.54.299697 -0500,
11.0,"[-0.64, -0.4]",space,0.0,18.0,18.0,18.0,,,,,,,,,1982.3342426000163,,,,,,,,,,,,,,,,,,,,,,,,,,,,1982.318281100132,1982.3342426000163,1982.3342426000163,1982.8173891000915,1982.8339881999416,1985.3177074999548,1985.3179202999452,space,1.0,0.7459112999495119,None,,,,,,,,,,,,,,,,,,,,,,,,,,,,,,,,,,,,,,,,nback73,1.0,2024-01-29_10h20.45.012,untitled,2023.2.3,60.05212525012914,2024-01-29 10h47.54.299697 -0500,
7.0,"[0.3, 0]",None,0.0,19.0,19.0,19.0,,,,,,,,,1985.334169600159,,,,,,,,,,,,,,,,,,,,,,,,,,,,1985.318900200073,1985.334169600159,1985.334169600159,1985.817203100072,1985.8339792999905,1988.317325900076,1988.317508300068,space,0.0,0.8530401999596506,None,,,,,,,,,,,,,,,,,,,,,,,,,,,,,,,,,,,,,,,,nback73,1.0,2024-01-29_10h20.45.012,untitled,2023.2.3,60.05212525012914,2024-01-29 10h47.54.299697 -0500,
3.0,"[0, 0.2]",None,0.0,20.0,20.0,20.0,,,,,,,,,1988.33425880014,,,,,,,,,,,,,,,,,,,,,,,,,,,,1988.3183369000908,1988.33425880014,1988.33425880014,1988.8173144001048,1988.834006600082,1991.3173775000032,1991.317590400111,space,0.0,0.9173059999011456,None,,,,,,,,,,,,,,,,,,,,,,,,,,,,,,,,,,,,,,,,nback73,1.0,2024-01-29_10h20.45.012,untitled,2023.2.3,60.05212525012914,2024-01-29 10h47.54.299697 -0500,
10.0,"[0, -0.2]",None,0.0,21.0,21.0,21.0,,,,,,,,,1991.333949699998,,,,,,,,,,,,,,,,,,,,,,,,,,,,1991.318633600138,1991.333949699998,1991.333949699998,1991.8172772999387,1991.8338685999624,1994.317341499962,1994.3175619000103,space,0.0,0.7470978000201285,None,,,,,,,,,,,,,,,,,,,,,,,,,,,,,,,,,,,,,,,,nback73,1.0,2024-01-29_10h20.45.012,untitled,2023.2.3,60.05212525012914,2024-01-29 10h47.54.299697 -0500,
1.0,"[-0.64, 0.4]",None,0.0,22.0,22.0,22.0,,,,,,,,,1994.3339213000145,,,,,,,,,,,,,,,,,,,,,,,,,,,,1994.3185682001056,1994.3339213000145,1994.3339213000145,1994.817281099968,1994.8338180999272,1997.3173714000727,1997.3175886999816,space,0.0,0.9198642000555992,None,,,,,,,,,,,,,,,,,,,,,,,,,,,,,,,,,,,,,,,,nback73,1.0,2024-01-29_10h20.45.012,untitled,2023.2.3,60.05212525012914,2024-01-29 10h47.54.299697 -0500,
2.0,"[0.64, 0.4]",None,0.0,23.0,23.0,23.0,,,,,,,,,1997.3338991000785,,,,,,,,,,,,,,,,,,,,,,,,,,,,1997.3185877001376,1997.3338991000785,1997.3338991000785,1997.8171459001023,1997.833831300028,2000.3171755999792,2000.317365900148,space,0.0,0.7838868999388069,None,,,,,,,,,,,,,,,,,,,,,,,,,,,,,,,,,,,,,,,,nback73,1.0,2024-01-29_10h20.45.012,untitled,2023.2.3,60.05212525012914,2024-01-29 10h47.54.299697 -0500,
6.0,"[-0.3, 0]",None,0.0,24.0,24.0,24.0,,,,,,,,,2000.333838399965,,,,,,,,,,,,,,,,,,,,,,,,,,,,2000.3182081000411,2000.333838399965,2000.333838399965,2000.8174428001512,2000.834037499968,2003.317203799961,2003.31741899997,space,0.0,0.4078030998352915,None,,,,,,,,,,,,,,,,,,,,,,,,,,,,,,,,,,,,,,,,nback73,1.0,2024-01-29_10h20.45.012,untitled,2023.2.3,60.05212525012914,2024-01-29 10h47.54.299697 -0500,
3.0,"[0, 0.2]",None,0.0,25.0,25.0,25.0,,,,,,,,,2003.3339472000955,,,,,,,,,,,,,,,,,,,,,,,,,,,,2003.318402600009,2003.3339472000955,2003.3339472000955,2003.8171644001268,2003.833852800075,2006.317147399997,2006.3173706999517,space,0.0,0.4374193998519331,None,,,,,,,,,,,,,,,,,,,,,,,,,,,,,,,,,,,,,,,,nback73,1.0,2024-01-29_10h20.45.012,untitled,2023.2.3,60.05212525012914,2024-01-29 10h47.54.299697 -0500,
11.0,"[-0.64, -0.4]",space,0.0,26.0,26.0,26.0,,,,,,,,,2006.3338874001056,,,,,,,,,,,,,,,,,,,,,,,,,,,,2006.3183540001048,2006.3338874001056,2006.3338874001056,2006.8171310001053,2006.833812300116,2009.317122600041,2009.3173257999588,space,1.0,0.3110104999504983,None,,,,,,,,,,,,,,,,,,,,,,,,,,,,,,,,,,,,,,,,nback73,1.0,2024-01-29_10h20.45.012,untitled,2023.2.3,60.05212525012914,2024-01-29 10h47.54.299697 -0500,
1.0,"[-0.64, 0.4]",None,0.0,27.0,27.0,27.0,,,,,,,,,2009.3338820000645,,,,,,,,,,,,,,,,,,,,,,,,,,,,2009.3182552000508,2009.3338820000645,2009.3338820000645,2009.8170863001144,2009.833671899978,2012.3170086001048,2012.317215200048,space,0.0,0.3281755000352859,None,,,,,,,,,,,,,,,,,,,,,,,,,,,,,,,,,,,,,,,,nback73,1.0,2024-01-29_10h20.45.012,untitled,2023.2.3,60.05212525012914,2024-01-29 10h47.54.299697 -0500,
3.0,"[0, 0.2]",None,0.0,28.0,28.0,28.0,,,,,,,,,2012.333734499989,,,,,,,,,,,,,,,,,,,,,,,,,,,,2012.318077800097,2012.333734499989,2012.333734499989,2012.8169160999823,2012.833510400029,2015.31699530012,2015.317199399928,space,0.0,0.3506380000617355,None,,,,,,,,,,,,,,,,,,,,,,,,,,,,,,,,,,,,,,,,nback73,1.0,2024-01-29_10h20.45.012,untitled,2023.2.3,60.05212525012914,2024-01-29 10h47.54.299697 -0500,
9.0,"[0.2, -0.1]",None,0.0,29.0,29.0,29.0,,,,,,,,,2015.3337244000288,,,,,,,,,,,,,,,,,,,,,,,,,,,,2015.318184300093,2015.3337244000288,2015.3337244000288,2015.817004600074,2015.8336591999976,2018.3169309999796,2018.3171437000856,space,0.0,0.3656295000109821,None,,,,,,,,,,,,,,,,,,,,,,,,,,,,,,,,,,,,,,,,nback73,1.0,2024-01-29_10h20.45.012,untitled,2023.2.3,60.05212525012914,2024-01-29 10h47.54.299697 -0500,
8.0,"[-0.2, -0.1]",None,0.0,30.0,30.0,30.0,,,,,,,,,2018.333495500032,,,,,,,,,,,,,,,,,,,,,,,,,,,,2018.318113300018,2018.333495500032,2018.333495500032,2018.816855699988,2018.8334008001257,2021.316976099973,2021.317163300002,space,0.0,0.3505373001098633,None,,,,,,,,,,,,,,,,,,,,,,,,,,,,,,,,,,,,,,,,nback73,1.0,2024-01-29_10h20.45.012,untitled,2023.2.3,60.05212525012914,2024-01-29 10h47.54.299697 -0500,
12.0,"[0.64, -0.4]",None,0.0,31.0,31.0,31.0,,,,,,,,,2021.3337499001063,,,,,,,,,,,,,,,,,,,,,,,,,,,,2021.3181545999832,2021.3337499001063,2021.3337499001063,2021.8169599999676,2021.833474599989,2024.3168079000895,2024.3170247999951,space,0.0,0.3403666000813246,None,,,,,,,,,,,,,,,,,,,,,,,,,,,,,,,,,,,,,,,,nback73,1.0,2024-01-29_10h20.45.012,untitled,2023.2.3,60.05212525012914,2024-01-29 10h47.54.299697 -0500,
9.0,"[0.2, -0.1]",None,0.0,32.0,32.0,32.0,,,,,,,,,2024.333374200156,,,,,,,,,,,,,,,,,,,,,,,,,,,,2024.317965999944,2024.333374200156,2024.333374200156,2024.8168891000096,2024.8333579001485,2027.3167584999464,2027.316941899946,space,0.0,0.3335022998508066,None,,,,,,,,,,,,,,,,,,,,,,,,,,,,,,,,,,,,,,,,nback73,1.0,2024-01-29_10h20.45.012,untitled,2023.2.3,60.05212525012914,2024-01-29 10h47.54.299697 -0500,
11.0,"[-0.64, -0.4]",space,0.0,33.0,33.0,33.0,,,,,,,,,2027.333584000124,,,,,,,,,,,,,,,,,,,,,,,,,,,,2027.3179190999365,2027.333584000124,2027.333584000124,2027.8166138001247,2027.8335152999496,2030.3166575001087,2030.31684980006,space,1.0,0.5067159000318497,None,,,,,,,,,,,,,,,,,,,,,,,,,,,,,,,,,,,,,,,,nback73,1.0,2024-01-29_10h20.45.012,untitled,2023.2.3,60.05212525012914,2024-01-29 10h47.54.299697 -0500,
7.0,"[0.3, 0]",None,0.0,34.0,34.0,34.0,,,,,,,,,2030.33320340002,,,,,,,,,,,,,,,,,,,,,,,,,,,,2030.3178644999864,2030.33320340002,2030.33320340002,2030.8166825000665,2030.833247100003,2033.3166335001588,2033.3167995000256,space,0.0,0.7021445999853313,None,,,,,,,,,,,,,,,,,,,,,,,,,,,,,,,,,,,,,,,,nback73,1.0,2024-01-29_10h20.45.012,untitled,2023.2.3,60.05212525012914,2024-01-29 10h47.54.299697 -0500,
11.0,"[-0.64, -0.4]",space,0.0,35.0,35.0,35.0,,,,,,,,,2033.3333368999884,,,,,,,,,,,,,,,,,,,,,,,,,,,,2033.3175820999315,2033.3333368999884,2033.3333368999884,2033.8166871001013,2033.8334067999383,2036.3165106000376,2036.3166932000315,space,1.0,0.3794654998928308,None,,,,,,,,,,,,,,,,,,,,,,,,,,,,,,,,,,,,,,,,nback73,1.0,2024-01-29_10h20.45.012,untitled,2023.2.3,60.05212525012914,2024-01-29 10h47.54.299697 -0500,
4.0,"[-0.2, 0.1]",None,0.0,36.0,36.0,36.0,,,,,,,,,2036.3332640000156,,,,,,,,,,,,,,,,,,,,,,,,,,,,2036.3176242001357,2036.3332640000156,2036.3332640000156,2036.816814900143,2036.833228700096,2039.316492300015,2039.3166630000344,space,0.0,0.3886194000951946,None,,,,,,,,,,,,,,,,,,,,,,,,,,,,,,,,,,,,,,,,nback73,1.0,2024-01-29_10h20.45.012,untitled,2023.2.3,60.05212525012914,2024-01-29 10h47.54.299697 -0500,
5.0,"[0.2, 0.1]",None,0.0,37.0,37.0,37.0,,,,,,,,,2039.3332076000515,,,,,,,,,,,,,,,,,,,,,,,,,,,,2039.3174789999607,2039.3332076000515,2039.3332076000515,2039.816504199989,2039.833059499972,2042.3164677000605,2042.3166847999676,space,0.0,0.3733133999630809,None,,,,,,,,,,,,,,,,,,,,,,,,,,,,,,,,,,,,,,,,nback73,1.0,2024-01-29_10h20.45.012,untitled,2023.2.3,60.05212525012914,2024-01-29 10h47.54.299697 -0500,
6.0,"[-0.3, 0]",None,0.0,38.0,38.0,38.0,,,,,,,,,2042.333123400109,,,,,,,,,,,,,,,,,,,,,,,,,,,,2042.3177459000144,2042.333123400109,2042.333123400109,2042.816457200097,2042.832965000067,2045.3164516999384,2045.316617100034,space,0.0,0.4724200000055134,None,,,,,,,,,,,,,,,,,,,,,,,,,,,,,,,,,,,,,,,,nback73,1.0,2024-01-29_10h20.45.012,untitled,2023.2.3,60.05212525012914,2024-01-29 10h47.54.299697 -0500,
11.0,"[-0.64, -0.4]",space,0.0,39.0,39.0,39.0,,,,,,,,,2045.3331377001011,,,,,,,,,,,,,,,,,,,,,,,,,,,,2045.3174690001176,2045.3331377001011,2045.3331377001011,2045.816165999975,2045.8328724000603,2048.316342800157,2048.3165398000274,space,1.0,0.5698630998376757,None,,,,,,,,,,,,,,,,,,,,,,,,,,,,,,,,,,,,,,,,nback73,1.0,2024-01-29_10h20.45.012,untitled,2023.2.3,60.05212525012914,2024-01-29 10h47.54.299697 -0500,
,,,,,,,,,,,,,,,,,,,,,,,,,,,,,,,,,,,,,,,,,,,,,,,,,,,,,,2048.317242300138,2048.333091800101,2048.333091800101,2071.134739500005,space,22.79859729995951,None,,,,,,,,,,,,,,,,,,,,,,,,,,,,,,,,,nback73,1.0,2024-01-29_10h20.45.012,untitled,2023.2.3,60.05212525012914,2024-01-29 10h47.54.299697 -0500,
10.0,"[0, -0.2]",None,,,,,0.0,0.0,0.0,0.0,,,,,2072.154648600146,,,,,,,,,,,,,,,,,,,,,,,,2071.1347916000523,2071.149315000046,2072.154648600146,2072.1335470001213,,,,,,,,,,,,,,,,,,,2072.152815799928,2072.154648600146,2072.154648600146,2072.64930810011,2072.666037500137,2075.1491725000087,2075.1493915000465,None,1.0,,,,,,,,,,,,,,,,,,,,,,,,nback73,1.0,2024-01-29_10h20.45.012,untitled,2023.2.3,60.05212525012914,2024-01-29 10h47.54.299697 -0500,
5.0,"[0.2, 0.1]",None,,,,,0.0,1.0,1.0,1.0,,,,,2075.165871200152,,,,,,,,,,,,,,,,,,,,,,,,,,,,,,,,,,,,,,,,,,,,,,2075.1502712001093,2075.165871200152,2075.165871200152,2075.648998199962,2075.665852900129,2078.1491857999936,2078.1493832001,space,0.0,0.8510326000396162,None,,,,,,,,,,,,,,,,,,,,,,nback73,1.0,2024-01-29_10h20.45.012,untitled,2023.2.3,60.05212525012914,2024-01-29 10h47.54.299697 -0500,
6.0,"[-0.3, 0]",None,,,,,0.0,2.0,2.0,2.0,,,,,2078.1658302000724,,,,,,,,,,,,,,,,,,,,,,,,,,,,,,,,,,,,,,,,,,,,,,2078.150510699954,2078.1658302000724,2078.1658302000724,2078.6493125001434,2078.66584339994,2081.1491827999707,2081.1493957000785,space,0.0,0.6524954999331385,None,,,,,,,,,,,,,,,,,,,,,,nback73,1.0,2024-01-29_10h20.45.012,untitled,2023.2.3,60.05212525012914,2024-01-29 10h47.54.299697 -0500,
6.0,"[-0.3, 0]",space,,,,,0.0,3.0,3.0,3.0,,,,,2081.1656989001203,,,,,,,,,,,,,,,,,,,,,,,,,,,,,,,,,,,,,,,,,,,,,,2081.150407399982,2081.1656989001203,2081.1656989001203,2081.6492230999283,2081.665894099977,2084.149182599969,2084.1493740000296,space,1.0,0.6932238000445068,None,,,,,,,,,,,,,,,,,,,,,,nback73,1.0,2024-01-29_10h20.45.012,untitled,2023.2.3,60.05212525012914,2024-01-29 10h47.54.299697 -0500,
12.0,"[0.64, -0.4]",None,,,,,0.0,4.0,4.0,4.0,,,,,2084.165803699987,,,,,,,,,,,,,,,,,,,,,,,,,,,,,,,,,,,,,,,,,,,,,,2084.15039970004,2084.165803699987,2084.165803699987,2084.6489808999468,2084.665787700098,2087.148925299989,2087.149104400072,space,0.0,0.6623443001881242,None,,,,,,,,,,,,,,,,,,,,,,nback73,1.0,2024-01-29_10h20.45.012,untitled,2023.2.3,60.05212525012914,2024-01-29 10h47.54.299697 -0500,
10.0,"[0, -0.2]",None,,,,,0.0,5.0,5.0,5.0,,,,,2087.165724300081,,,,,,,,,,,,,,,,,,,,,,,,,,,,,,,,,,,,,,,,,,,,,,2087.14989989996,2087.165724300081,2087.165724300081,2087.6490491000004,2087.665696700104,2090.1489681999665,2090.149155500112,space,0.0,0.9688225998543204,None,,,,,,,,,,,,,,,,,,,,,,nback73,1.0,2024-01-29_10h20.45.012,untitled,2023.2.3,60.05212525012914,2024-01-29 10h47.54.299697 -0500,
2.0,"[0.64, 0.4]",None,,,,,0.0,6.0,6.0,6.0,,,,,2090.165721999947,,,,,,,,,,,,,,,,,,,,,,,,,,,,,,,,,,,,,,,,,,,,,,2090.150124600157,2090.165721999947,2090.165721999947,2090.6489777001552,2090.66580720013,2093.148766600061,2093.148973800009,None,1.0,,,,,,,,,,,,,,,,,,,,,,,,nback73,1.0,2024-01-29_10h20.45.012,untitled,2023.2.3,60.05212525012914,2024-01-29 10h47.54.299697 -0500,
9.0,"[0.2, -0.1]",None,,,,,0.0,7.0,7.0,7.0,,,,,2093.16547170002,,,,,,,,,,,,,,,,,,,,,,,,,,,,,,,,,,,,,,,,,,,,,,2093.1497273000423,2093.16547170002,2093.16547170002,2093.649008200038,2093.665526200086,2096.148804299999,2096.14901449997,space,0.0,0.6914769001305103,None,,,,,,,,,,,,,,,,,,,,,,nback73,1.0,2024-01-29_10h20.45.012,untitled,2023.2.3,60.05212525012914,2024-01-29 10h47.54.299697 -0500,
9.0,"[0.2, -0.1]",space,,,,,0.0,8.0,8.0,8.0,,,,,2096.1654644999653,,,,,,,,,,,,,,,,,,,,,,,,,,,,,,,,,,,,,,,,,,,,,,2096.1500170000363,2096.1654644999653,2096.1654644999653,2096.648688599933,2096.6655228999443,2099.148836600129,2099.1490380000323,space,1.0,0.7511064000427723,None,,,,,,,,,,,,,,,,,,,,,,nback73,1.0,2024-01-29_10h20.45.012,untitled,2023.2.3,60.05212525012914,2024-01-29 10h47.54.299697 -0500,
6.0,"[-0.3, 0]",None,,,,,0.0,9.0,9.0,9.0,,,,,2099.165437099989,,,,,,,,,,,,,,,,,,,,,,,,,,,,,,,,,,,,,,,,,,,,,,2099.149987400044,2099.165437099989,2099.165437099989,2099.6488483999856,2099.6656200001016,2102.1486315999646,2102.148818100104,space,0.0,0.7744515999220312,None,,,,,,,,,,,,,,,,,,,,,,nback73,1.0,2024-01-29_10h20.45.012,untitled,2023.2.3,60.05212525012914,2024-01-29 10h47.54.299697 -0500,
11.0,"[-0.64, -0.4]",None,,,,,0.0,10.0,10.0,10.0,,,,,2102.165342299966,,,,,,,,,,,,,,,,,,,,,,,,,,,,,,,,,,,,,,,,,,,,,,2102.149704999989,2102.165342299966,2102.165342299966,2102.648667600006,2102.665380800143,2105.148492299952,2105.148686300032,space,0.0,0.5342071999330074,None,,,,,,,,,,,,,,,,,,,,,,nback73,1.0,2024-01-29_10h20.45.012,untitled,2023.2.3,60.05212525012914,2024-01-29 10h47.54.299697 -0500,
11.0,"[-0.64, -0.4]",space,,,,,0.0,11.0,11.0,11.0,,,,,2105.1652961999644,,,,,,,,,,,,,,,,,,,,,,,,,,,,,,,,,,,,,,,,,,,,,,2105.149738500128,2105.1652961999644,2105.1652961999644,2105.6486518001184,2105.665335500147,2108.1486293000635,2108.1488314999733,space,1.0,0.4463404999114573,None,,,,,,,,,,,,,,,,,,,,,,nback73,1.0,2024-01-29_10h20.45.012,untitled,2023.2.3,60.05212525012914,2024-01-29 10h47.54.299697 -0500,
4.0,"[-0.2, 0.1]",None,,,,,0.0,12.0,12.0,12.0,,,,,2108.165134200128,,,,,,,,,,,,,,,,,,,,,,,,,,,,,,,,,,,,,,,,,,,,,,2108.149814900011,2108.165134200128,2108.165134200128,2108.6485224000644,2108.6654783999547,2111.1487714000978,2111.148984800093,None,1.0,,,,,,,,,,,,,,,,,,,,,,,,nback73,1.0,2024-01-29_10h20.45.012,untitled,2023.2.3,60.05212525012914,2024-01-29 10h47.54.299697 -0500,
3.0,"[0, 0.2]",None,,,,,0.0,13.0,13.0,13.0,,,,,2111.1652303000446,,,,,,,,,,,,,,,,,,,,,,,,,,,,,,,,,,,,,,,,,,,,,,2111.149893800029,2111.1652303000446,2111.1652303000446,2111.6485679000616,2111.66532619996,2114.1484165999573,2114.1486057001166,space,0.0,0.4954029000364244,None,,,,,,,,,,,,,,,,,,,,,,nback73,1.0,2024-01-29_10h20.45.012,untitled,2023.2.3,60.05212525012914,2024-01-29 10h47.54.299697 -0500,
3.0,"[0, 0.2]",space,,,,,0.0,14.0,14.0,14.0,,,,,2114.165154899936,,,,,,,,,,,,,,,,,,,,,,,,,,,,,,,,,,,,,,,,,,,,,,2114.1496331000235,2114.165154899936,2114.165154899936,2114.64855500008,2114.6652355999686,2117.148507599952,2117.148726599989,space,1.0,0.5022247999440879,None,,,,,,,,,,,,,,,,,,,,,,nback73,1.0,2024-01-29_10h20.45.012,untitled,2023.2.3,60.05212525012914,2024-01-29 10h47.54.299697 -0500,
8.0,"[-0.2, -0.1]",None,,,,,0.0,15.0,15.0,15.0,,,,,2117.1651622999925,,,,,,,,,,,,,,,,,,,,,,,,,,,,,,,,,,,,,,,,,,,,,,2117.149754000129,2117.1651622999925,2117.1651622999925,2117.6484805000946,2117.6651741999667,2120.148559600115,2120.148768699961,space,0.0,0.944237699965015,None,,,,,,,,,,,,,,,,,,,,,,nback73,1.0,2024-01-29_10h20.45.012,untitled,2023.2.3,60.05212525012914,2024-01-29 10h47.54.299697 -0500,
1.0,"[-0.64, 0.4]",None,,,,,0.0,16.0,16.0,16.0,,,,,2120.165146500105,,,,,,,,,,,,,,,,,,,,,,,,,,,,,,,,,,,,,,,,,,,,,,2120.149777200073,2120.165146500105,2120.165146500105,2120.648269600002,2120.6649607000872,2123.148337200051,2123.1485167001374,space,0.0,0.655627700034529,None,,,,,,,,,,,,,,,,,,,,,,nback73,1.0,2024-01-29_10h20.45.012,untitled,2023.2.3,60.05212525012914,2024-01-29 10h47.54.299697 -0500,
2.0,"[0.64, 0.4]",None,,,,,0.0,17.0,17.0,17.0,,,,,2123.164955700049,,,,,,,,,,,,,,,,,,,,,,,,,,,,,,,,,,,,,,,,,,,,,,2123.149378299946,2123.164955700049,2123.164955700049,2123.648426900152,2123.665108300047,2126.1483495000284,2126.1485747001134,None,1.0,,,,,,,,,,,,,,,,,,,,,,,,nback73,1.0,2024-01-29_10h20.45.012,untitled,2023.2.3,60.05212525012914,2024-01-29 10h47.54.299697 -0500,
4.0,"[-0.2, 0.1]",None,,,,,0.0,18.0,18.0,18.0,,,,,2126.16496980004,,,,,,,,,,,,,,,,,,,,,,,,,,,,,,,,,,,,,,,,,,,,,,2126.149345800048,2126.16496980004,2126.16496980004,2126.6483877000865,2126.6648089000955,2129.1481723999605,2129.148364600027,space,0.0,0.4985424999613315,None,,,,,,,,,,,,,,,,,,,,,,nback73,1.0,2024-01-29_10h20.45.012,untitled,2023.2.3,60.05212525012914,2024-01-29 10h47.54.299697 -0500,
4.0,"[-0.2, 0.1]",space,,,,,0.0,19.0,19.0,19.0,,,,,2129.165094200056,,,,,,,,,,,,,,,,,,,,,,,,,,,,,,,,,,,,,,,,,,,,,,2129.149288899964,2129.165094200056,2129.165094200056,2129.648361600004,2129.664910400053,2132.148297999985,2132.148543900112,None,0.0,,,,,,,,,,,,,,,,,,,,,,,,nback73,1.0,2024-01-29_10h20.45.012,untitled,2023.2.3,60.05212525012914,2024-01-29 10h47.54.299697 -0500,
8.0,"[-0.2, -0.1]",None,,,,,0.0,20.0,20.0,20.0,,,,,2132.16493050009,,,,,,,,,,,,,,,,,,,,,,,,,,,,,,,,,,,,,,,,,,,,,,2132.149375800044,2132.16493050009,2132.16493050009,2132.648110100068,2132.6649551000446,2135.148296700092,2135.1485079999547,space,0.0,0.6181660001166165,None,,,,,,,,,,,,,,,,,,,,,,nback73,1.0,2024-01-29_10h20.45.012,untitled,2023.2.3,60.05212525012914,2024-01-29 10h47.54.299697 -0500,
5.0,"[0.2, 0.1]",None,,,,,0.0,21.0,21.0,21.0,,,,,2135.1649573999457,,,,,,,,,,,,,,,,,,,,,,,,,,,,,,,,,,,,,,,,,,,,,,2135.1494986999314,2135.1649573999457,2135.1649573999457,2135.647965800017,2135.6647431999445,2138.1480575001333,2138.1482210000977,None,1.0,,,,,,,,,,,,,,,,,,,,,,,,nback73,1.0,2024-01-29_10h20.45.012,untitled,2023.2.3,60.05212525012914,2024-01-29 10h47.54.299697 -0500,
5.0,"[0.2, 0.1]",space,,,,,0.0,22.0,22.0,22.0,,,,,2138.164763299981,,,,,,,,,,,,,,,,,,,,,,,,,,,,,,,,,,,,,,,,,,,,,,2138.1489945999347,2138.164763299981,2138.164763299981,2138.648128400091,2138.664839500096,2141.1480239001103,2141.1481856999453,None,0.0,,,,,,,,,,,,,,,,,,,,,,,,nback73,1.0,2024-01-29_10h20.45.012,untitled,2023.2.3,60.05212525012914,2024-01-29 10h47.54.299697 -0500,
1.0,"[-0.64, 0.4]",None,,,,,0.0,23.0,23.0,23.0,,,,,2141.164617500035,,,,,,,,,,,,,,,,,,,,,,,,,,,,,,,,,,,,,,,,,,,,,,2141.1487946000416,2141.164617500035,2141.164617500035,2141.6479373001494,2141.6646058999468,2144.14798410004,2144.148197400151,space,0.0,0.4673009000252932,None,,,,,,,,,,,,,,,,,,,,,,nback73,1.0,2024-01-29_10h20.45.012,untitled,2023.2.3,60.05212525012914,2024-01-29 10h47.54.299697 -0500,
3.0,"[0, 0.2]",None,,,,,0.0,24.0,24.0,24.0,,,,,2144.1645364,,,,,,,,,,,,,,,,,,,,,,,,,,,,,,,,,,,,,,,,,,,,,,2144.1492067000363,2144.1645364,2144.1645364,2144.6480392001104,2144.664669400081,2147.14793610014,2147.1481868999545,space,0.0,0.6296262999530882,None,,,,,,,,,,,,,,,,,,,,,,nback73,1.0,2024-01-29_10h20.45.012,untitled,2023.2.3,60.05212525012914,2024-01-29 10h47.54.299697 -0500,
6.0,"[-0.3, 0]",None,,,,,0.0,25.0,25.0,25.0,,,,,2147.1647105000447,,,,,,,,,,,,,,,,,,,,,,,,,,,,,,,,,,,,,,,,,,,,,,2147.1493162999395,2147.1647105000447,2147.1647105000447,2147.6478705999907,2147.664611699991,2150.147921200143,2150.1481282000896,space,0.0,0.4388653000351041,None,,,,,,,,,,,,,,,,,,,,,,nback73,1.0,2024-01-29_10h20.45.012,untitled,2023.2.3,60.05212525012914,2024-01-29 10h47.54.299697 -0500,
1.0,"[-0.64, 0.4]",None,,,,,0.0,26.0,26.0,26.0,,,,,2150.164572699927,,,,,,,,,,,,,,,,,,,,,,,,,,,,,,,,,,,,,,,,,,,,,,2150.1490515000187,2150.164572699927,2150.164572699927,2150.6478774000425,2150.6644830000587,2153.147972499952,2153.148186200065,space,0.0,0.5390137999784201,None,,,,,,,,,,,,,,,,,,,,,,nback73,1.0,2024-01-29_10h20.45.012,untitled,2023.2.3,60.05212525012914,2024-01-29 10h47.54.299697 -0500,
1.0,"[-0.64, 0.4]",space,,,,,0.0,27.0,27.0,27.0,,,,,2153.16468850011,,,,,,,,,,,,,,,,,,,,,,,,,,,,,,,,,,,,,,,,,,,,,,2153.1492175001185,2153.16468850011,2153.16468850011,2153.647775999969,2153.664402200142,2156.147948400117,2156.148146100109,space,1.0,0.5281203999184072,None,,,,,,,,,,,,,,,,,,,,,,nback73,1.0,2024-01-29_10h20.45.012,untitled,2023.2.3,60.05212525012914,2024-01-29 10h47.54.299697 -0500,
1.0,"[-0.64, 0.4]",space,,,,,0.0,28.0,28.0,28.0,,,,,2156.164370800136,,,,,,,,,,,,,,,,,,,,,,,,,,,,,,,,,,,,,,,,,,,,,,2156.149115999928,2156.164370800136,2156.164370800136,2156.647687199991,2156.664439300075,2159.147762000095,2159.147980000125,space,1.0,0.6231325999833643,None,,,,,,,,,,,,,,,,,,,,,,nback73,1.0,2024-01-29_10h20.45.012,untitled,2023.2.3,60.05212525012914,2024-01-29 10h47.54.299697 -0500,
3.0,"[0, 0.2]",None,,,,,0.0,29.0,29.0,29.0,,,,,2159.164363200078,,,,,,,,,,,,,,,,,,,,,,,,,,,,,,,,,,,,,,,,,,,,,,2159.1490009999834,2159.164363200078,2159.164363200078,2159.647598300129,2159.664495300036,2162.147756200051,2162.1479460999835,space,0.0,0.6756659999955446,None,,,,,,,,,,,,,,,,,,,,,,nback73,1.0,2024-01-29_10h20.45.012,untitled,2023.2.3,60.05212525012914,2024-01-29 10h47.54.299697 -0500,
12.0,"[0.64, -0.4]",None,,,,,0.0,30.0,30.0,30.0,,,,,2162.164373600157,,,,,,,,,,,,,,,,,,,,,,,,,,,,,,,,,,,,,,,,,,,,,,2162.148845700081,2162.164373600157,2162.164373600157,2162.6477499001194,2162.664491600124,2165.147628700128,2165.147834300064,space,0.0,0.6425723000429571,None,,,,,,,,,,,,,,,,,,,,,,nback73,1.0,2024-01-29_10h20.45.012,untitled,2023.2.3,60.05212525012914,2024-01-29 10h47.54.299697 -0500,
12.0,"[0.64, -0.4]",space,,,,,0.0,31.0,31.0,31.0,,,,,2165.1644218000583,,,,,,,,,,,,,,,,,,,,,,,,,,,,,,,,,,,,,,,,,,,,,,2165.1487853999715,2165.1644218000583,2165.1644218000583,2165.647595900111,2165.664270099951,2168.147598300129,2168.1477977000177,space,1.0,0.5625179000198841,None,,,,,,,,,,,,,,,,,,,,,,nback73,1.0,2024-01-29_10h20.45.012,untitled,2023.2.3,60.05212525012914,2024-01-29 10h47.54.299697 -0500,
2.0,"[0.64, 0.4]",None,,,,,0.0,32.0,32.0,32.0,,,,,2168.1643569001462,,,,,,,,,,,,,,,,,,,,,,,,,,,,,,,,,,,,,,,,,,,,,,2168.148726900108,2168.1643569001462,2168.1643569001462,2168.6473984001204,2168.664339600131,2171.147477900144,2171.1476664000656,None,1.0,,,,,,,,,,,,,,,,,,,,,,,,nback73,1.0,2024-01-29_10h20.45.012,untitled,2023.2.3,60.05212525012914,2024-01-29 10h47.54.299697 -0500,
1.0,"[-0.64, 0.4]",None,,,,,0.0,33.0,33.0,33.0,,,,,2171.164421000052,,,,,,,,,,,,,,,,,,,,,,,,,,,,,,,,,,,,,,,,,,,,,,2171.148354700068,2171.164421000052,2171.164421000052,2171.6474156000186,2171.664094900014,2174.1474272999917,2174.147641699994,space,0.0,0.5702585999388248,None,,,,,,,,,,,,,,,,,,,,,,nback73,1.0,2024-01-29_10h20.45.012,untitled,2023.2.3,60.05212525012914,2024-01-29 10h47.54.299697 -0500,
7.0,"[0.3, 0]",None,,,,,0.0,34.0,34.0,34.0,,,,,2174.164305299986,,,,,,,,,,,,,,,,,,,,,,,,,,,,,,,,,,,,,,,,,,,,,,2174.1485999000724,2174.164305299986,2174.164305299986,2174.647356700152,2174.664145499933,2177.147415000014,2177.1476024999283,space,0.0,0.6505653997883201,None,,,,,,,,,,,,,,,,,,,,,,nback73,1.0,2024-01-29_10h20.45.012,untitled,2023.2.3,60.05212525012914,2024-01-29 10h47.54.299697 -0500,
7.0,"[0.3, 0]",space,,,,,0.0,35.0,35.0,35.0,,,,,2177.163965200074,,,,,,,,,,,,,,,,,,,,,,,,,,,,,,,,,,,,,,,,,,,,,,2177.1485200999305,2177.163965200074,2177.163965200074,2177.647390899947,2177.664020900149,2180.1475511000026,2180.147762800101,None,0.0,,,,,,,,,,,,,,,,,,,,,,,,nback73,1.0,2024-01-29_10h20.45.012,untitled,2023.2.3,60.05212525012914,2024-01-29 10h47.54.299697 -0500,
11.0,"[-0.64, -0.4]",None,,,,,0.0,36.0,36.0,36.0,,,,,2180.164366299985,,,,,,,,,,,,,,,,,,,,,,,,,,,,,,,,,,,,,,,,,,,,,,2180.148585800081,2180.164366299985,2180.164366299985,2180.6472786001395,2180.66417569993,2183.147103500087,2183.147298400057,space,0.0,0.5251714000478387,None,,,,,,,,,,,,,,,,,,,,,,nback73,1.0,2024-01-29_10h20.45.012,untitled,2023.2.3,60.05212525012914,2024-01-29 10h47.54.299697 -0500,
2.0,"[0.64, 0.4]",None,,,,,0.0,37.0,37.0,37.0,,,,,2183.1640168000013,,,,,,,,,,,,,,,,,,,,,,,,,,,,,,,,,,,,,,,,,,,,,,2183.148252299987,2183.1640168000013,2183.1640168000013,2183.647295500152,2183.664033400128,2186.1472078999504,2186.147419600049,None,1.0,,,,,,,,,,,,,,,,,,,,,,,,nback73,1.0,2024-01-29_10h20.45.012,untitled,2023.2.3,60.05212525012914,2024-01-29 10h47.54.299697 -0500,
6.0,"[-0.3, 0]",None,,,,,0.0,38.0,38.0,38.0,,,,,2186.1639336999506,,,,,,,,,,,,,,,,,,,,,,,,,,,,,,,,,,,,,,,,,,,,,,2186.148268999997,2186.1639336999506,2186.1639336999506,2186.647258500103,2186.663962600054,2189.147273099981,2189.1474858000875,space,0.0,0.5365552001167089,None,,,,,,,,,,,,,,,,,,,,,,nback73,1.0,2024-01-29_10h20.45.012,untitled,2023.2.3,60.05212525012914,2024-01-29 10h47.54.299697 -0500,
10.0,"[0, -0.2]",None,,,,,0.0,39.0,39.0,39.0,,,,,2189.164054800058,,,,,,,,,,,,,,,,,,,,,,,,,,,,,,,,,,,,,,,,,,,,,,2189.1484880000357,2189.164054800058,2189.164054800058,2189.6472163000144,2189.6639409000054,2192.1471396000125,2192.147318700096,space,0.0,0.4475717002060264,None,,,,,,,,,,,,,,,,,,,,,,nback73,1.0,2024-01-29_10h20.45.012,untitled,2023.2.3,60.05212525012914,2024-01-29 10h47.54.299697 -0500,
,,,,,,,,,,,,,,,,,,,,,,,,,,,,,,,,,,,,,,,,,,,,,,,,,,,,,,,,,,,,,,,,,,,,,,,,2192.1480225001,2192.163766300073,2192.163766300073,2263.5139767001383,space,71.3337554000318,None,,,,,,,,,,,,,,,nback73,1.0,2024-01-29_10h20.45.012,untitled,2023.2.3,60.05212525012914,2024-01-29 10h47.54.299697 -0500,
,"[0.2, 0.1]",None,,,,,,,,,0.0,0.0,0.0,0.0,2264.533144999994,,,,,,,,,,,,,,,,,,,,,,,,2263.5140222001355,2263.5292491000146,2264.533144999994,2264.5138534000143,,,,,,,,,,,,,,,,,,,,,,,,,,,,,,,,,,,,,2264.5312689000275,2264.533144999994,2264.533144999994,2265.029171700124,2265.045941800112,2267.5291452000383,2267.529546899954,None,1.0,,,,,,nback73,1.0,2024-01-29_10h20.45.012,untitled,2023.2.3,60.05212525012914,2024-01-29 10h47.54.299697 -0500,
,"[0.64, 0.4]",None,,,,,,,,,0.0,1.0,1.0,1.0,2267.5457337000407,,,,,,,,,,,,,,,,,,,,,,,,,,,,,,,,,,,,,,,,,,,,,,,,,,,,,,,,,,,,,,,,2267.5305278000887,2267.5457337000407,2267.5457337000407,2268.029050400015,2268.045876899967,2270.5291433001403,2270.5293485999573,None,1.0,,,,,,nback73,1.0,2024-01-29_10h20.45.012,untitled,2023.2.3,60.05212525012914,2024-01-29 10h47.54.299697 -0500,
,"[-0.3, 0]",None,,,,,,,,,0.0,2.0,2.0,2.0,2270.545611400157,,,,,,,,,,,,,,,,,,,,,,,,,,,,,,,,,,,,,,,,,,,,,,,,,,,,,,,,,,,,,,,,2270.530174500076,2270.545611400157,2270.545611400157,2271.0290811001323,2271.0458679001317,2273.5292013001163,2273.5294041000307,None,1.0,,,,,,nback73,1.0,2024-01-29_10h20.45.012,untitled,2023.2.3,60.05212525012914,2024-01-29 10h47.54.299697 -0500,
,"[0.2, -0.1]",None,,,,,,,,,0.0,3.0,3.0,3.0,2273.545698700007,,,,,,,,,,,,,,,,,,,,,,,,,,,,,,,,,,,,,,,,,,,,,,,,,,,,,,,,,,,,,,,,2273.530174500076,2273.545698700007,2273.545698700007,2274.029159600148,2274.0457087999675,2276.5291132000275,2276.5292979001533,None,1.0,,,,,,nback73,1.0,2024-01-29_10h20.45.012,untitled,2023.2.3,60.05212525012914,2024-01-29 10h47.54.299697 -0500,
,"[0, 0.2]",None,,,,,,,,,0.0,4.0,4.0,4.0,2276.5455485000275,,,,,,,,,,,,,,,,,,,,,,,,,,,,,,,,,,,,,,,,,,,,,,,,,,,,,,,,,,,,,,,,2276.530035099946,2276.5455485000275,2276.5455485000275,2277.028989000013,2277.045672800159,2279.529061299981,2279.5292655001394,None,1.0,,,,,,nback73,1.0,2024-01-29_10h20.45.012,untitled,2023.2.3,60.05212525012914,2024-01-29 10h47.54.299697 -0500,
,"[0.2, -0.1]",space,,,,,,,,,0.0,5.0,5.0,5.0,2279.545762100024,,,,,,,,,,,,,,,,,,,,,,,,,,,,,,,,,,,,,,,,,,,,,,,,,,,,,,,,,,,,,,,,2279.5300330999307,2279.545762100024,2279.545762100024,2280.028832900105,2280.0454154000618,2282.528937800089,2282.5291270001326,None,0.0,,,,,,nback73,1.0,2024-01-29_10h20.45.012,untitled,2023.2.3,60.05212525012914,2024-01-29 10h47.54.299697 -0500,
,"[0, -0.2]",None,,,,,,,,,0.0,6.0,6.0,6.0,2282.545528799994,,,,,,,,,,,,,,,,,,,,,,,,,,,,,,,,,,,,,,,,,,,,,,,,,,,,,,,,,,,,,,,,2282.530002699932,2282.545528799994,2282.545528799994,2283.028770199977,2283.045558999991,2285.5290487001184,2285.52927249996,None,1.0,,,,,,nback73,1.0,2024-01-29_10h20.45.012,untitled,2023.2.3,60.05212525012914,2024-01-29 10h47.54.299697 -0500,
,"[0.64, -0.4]",None,,,,,,,,,0.0,7.0,7.0,7.0,2285.545514000114,,,,,,,,,,,,,,,,,,,,,,,,,,,,,,,,,,,,,,,,,,,,,,,,,,,,,,,,,,,,,,,,2285.5301008999813,2285.545514000114,2285.545514000114,2286.0288040000014,2286.0453668001574,2288.528794500045,2288.5289762001485,None,1.0,,,,,,nback73,1.0,2024-01-29_10h20.45.012,untitled,2023.2.3,60.05212525012914,2024-01-29 10h47.54.299697 -0500,
,"[0.3, 0]",None,,,,,,,,,0.0,8.0,8.0,8.0,2288.545468199998,,,,,,,,,,,,,,,,,,,,,,,,,,,,,,,,,,,,,,,,,,,,,,,,,,,,,,,,,,,,,,,,2288.5296624000184,2288.545468199998,2288.545468199998,2289.0287391999736,2289.045521199936,2291.5287880001124,2291.528980199946,None,1.0,,,,,,nback73,1.0,2024-01-29_10h20.45.012,untitled,2023.2.3,60.05212525012914,2024-01-29 10h47.54.299697 -0500,
,"[0.64, -0.4]",space,,,,,,,,,0.0,9.0,9.0,9.0,2291.5454659999814,,,,,,,,,,,,,,,,,,,,,,,,,,,,,,,,,,,,,,,,,,,,,,,,,,,,,,,,,,,,,,,,2291.5297185999807,2291.5454659999814,2291.5454659999814,2292.02869149996,2292.045386200072,2294.528852500021,2294.5290717000607,None,0.0,,,,,,nback73,1.0,2024-01-29_10h20.45.012,untitled,2023.2.3,60.05212525012914,2024-01-29 10h47.54.299697 -0500,
,"[-0.64, 0.4]",None,,,,,,,,,0.0,10.0,10.0,10.0,2294.545323499944,,,,,,,,,,,,,,,,,,,,,,,,,,,,,,,,,,,,,,,,,,,,,,,,,,,,,,,,,,,,,,,,2294.5298614001367,2294.545323499944,2294.545323499944,2295.028657299932,2295.045257700141,2297.528809600044,2297.5290272999555,None,1.0,,,,,,nback73,1.0,2024-01-29_10h20.45.012,untitled,2023.2.3,60.05212525012914,2024-01-29 10h47.54.299697 -0500,
,"[0.2, 0.1]",None,,,,,,,,,0.0,11.0,11.0,11.0,2297.5452193999663,,,,,,,,,,,,,,,,,,,,,,,,,,,,,,,,,,,,,,,,,,,,,,,,,,,,,,,,,,,,,,,,2297.5298878999893,2297.5452193999663,2297.5452193999663,2298.0288035999984,2298.045318900142,2300.528667900013,2300.528889799956,None,1.0,,,,,,nback73,1.0,2024-01-29_10h20.45.012,untitled,2023.2.3,60.05212525012914,2024-01-29 10h47.54.299697 -0500,
,"[0.3, 0]",None,,,,,,,,,0.0,12.0,12.0,12.0,2300.545307799941,,,,,,,,,,,,,,,,,,,,,,,,,,,,,,,,,,,,,,,,,,,,,,,,,,,,,,,,,,,,,,,,2300.529740100028,2300.545307799941,2300.545307799941,2301.028692699969,2301.045385899953,2303.528647700092,2303.528884700034,None,1.0,,,,,,nback73,1.0,2024-01-29_10h20.45.012,untitled,2023.2.3,60.05212525012914,2024-01-29 10h47.54.299697 -0500,
,"[0.2, 0.1]",space,,,,,,,,,0.0,13.0,13.0,13.0,2303.5450804999564,,,,,,,,,,,,,,,,,,,,,,,,,,,,,,,,,,,,,,,,,,,,,,,,,,,,,,,,,,,,,,,,2303.52973249997,2303.5450804999564,2303.5450804999564,2304.028539699968,2304.045152500039,2306.5284522001166,2306.5286459999625,None,0.0,,,,,,nback73,1.0,2024-01-29_10h20.45.012,untitled,2023.2.3,60.05212525012914,2024-01-29 10h47.54.299697 -0500,
,"[-0.3, 0]",None,,,,,,,,,0.0,14.0,14.0,14.0,2306.545267000096,,,,,,,,,,,,,,,,,,,,,,,,,,,,,,,,,,,,,,,,,,,,,,,,,,,,,,,,,,,,,,,,2306.529455800075,2306.545267000096,2306.545267000096,2307.0284880001564,2307.0453067999333,2309.5284460000694,2309.5286381000187,None,1.0,,,,,,nback73,1.0,2024-01-29_10h20.45.012,untitled,2023.2.3,60.05212525012914,2024-01-29 10h47.54.299697 -0500,
,"[0, 0.2]",None,,,,,,,,,0.0,15.0,15.0,15.0,2309.545168499928,,,,,,,,,,,,,,,,,,,,,,,,,,,,,,,,,,,,,,,,,,,,,,,,,,,,,,,,,,,,,,,,2309.52936689998,2309.545168499928,2309.545168499928,2310.028415200068,2310.045203699963,2312.528605300002,2312.528802300105,None,1.0,,,,,,nback73,1.0,2024-01-29_10h20.45.012,untitled,2023.2.3,60.05212525012914,2024-01-29 10h47.54.299697 -0500,
,"[-0.3, 0]",space,,,,,,,,,0.0,16.0,16.0,16.0,2312.5450019999407,,,,,,,,,,,,,,,,,,,,,,,,,,,,,,,,,,,,,,,,,,,,,,,,,,,,,,,,,,,,,,,,2312.5297105000354,2312.5450019999407,2312.5450019999407,2313.028438900132,2313.044905200135,2315.528328200104,2315.528514000121,space,1.0,1.1517674000933766,None,,,,nback73,1.0,2024-01-29_10h20.45.012,untitled,2023.2.3,60.05212525012914,2024-01-29 10h47.54.299697 -0500,
,"[-0.64, -0.4]",None,,,,,,,,,0.0,17.0,17.0,17.0,2315.545042200014,,,,,,,,,,,,,,,,,,,,,,,,,,,,,,,,,,,,,,,,,,,,,,,,,,,,,,,,,,,,,,,,2315.5297054999974,2315.545042200014,2315.545042200014,2316.028353800066,2316.0449845001567,2318.5282769999467,2318.528494700091,None,1.0,,,,,,nback73,1.0,2024-01-29_10h20.45.012,untitled,2023.2.3,60.05212525012914,2024-01-29 10h47.54.299697 -0500,
,"[-0.2, -0.1]",None,,,,,,,,,0.0,18.0,18.0,18.0,2318.545007599984,,,,,,,,,,,,,,,,,,,,,,,,,,,,,,,,,,,,,,,,,,,,,,,,,,,,,,,,,,,,,,,,2318.529324800009,2318.545007599984,2318.545007599984,2319.0283083000686,2319.044994900003,2321.5282946000807,2321.5284975999966,None,1.0,,,,,,nback73,1.0,2024-01-29_10h20.45.012,untitled,2023.2.3,60.05212525012914,2024-01-29 10h47.54.299697 -0500,
,"[0.2, -0.1]",None,,,,,,,,,0.0,19.0,19.0,19.0,2321.544963499997,,,,,,,,,,,,,,,,,,,,,,,,,,,,,,,,,,,,,,,,,,,,,,,,,,,,,,,,,,,,,,,,2321.5292605999857,2321.544963499997,2321.544963499997,2322.02802060009,2322.0445053000003,2324.528301500017,2324.528459999943,None,1.0,,,,,,nback73,1.0,2024-01-29_10h20.45.012,untitled,2023.2.3,60.05212525012914,2024-01-29 10h47.54.299697 -0500,
,"[0.2, -0.1]",None,,,,,,,,,0.0,20.0,20.0,20.0,2324.5447931000963,,,,,,,,,,,,,,,,,,,,,,,,,,,,,,,,,,,,,,,,,,,,,,,,,,,,,,,,,,,,,,,,2324.5290447999723,2324.5447931000963,2324.5447931000963,2325.028230400057,2325.0449584999587,2327.5282044000924,2327.528388600098,space,0.0,0.3949685001280159,None,,,,nback73,1.0,2024-01-29_10h20.45.012,untitled,2023.2.3,60.05212525012914,2024-01-29 10h47.54.299697 -0500,
,"[-0.64, 0.4]",None,,,,,,,,,0.0,21.0,21.0,21.0,2327.5447295000777,,,,,,,,,,,,,,,,,,,,,,,,,,,,,,,,,,,,,,,,,,,,,,,,,,,,,,,,,,,,,,,,2327.5291872001253,2327.5447295000777,2327.5447295000777,2328.02811449999,2328.0447921000887,2330.5279862000607,2330.5281640000176,None,1.0,,,,,,nback73,1.0,2024-01-29_10h20.45.012,untitled,2023.2.3,60.05212525012914,2024-01-29 10h47.54.299697 -0500,
,"[0, 0.2]",None,,,,,,,,,0.0,22.0,22.0,22.0,2330.54458610015,,,,,,,,,,,,,,,,,,,,,,,,,,,,,,,,,,,,,,,,,,,,,,,,,,,,,,,,,,,,,,,,2330.528929700144,2330.54458610015,2330.54458610015,2331.028257000027,2331.044763599988,2333.5282008999493,2333.528415699955,None,1.0,,,,,,nback73,1.0,2024-01-29_10h20.45.012,untitled,2023.2.3,60.05212525012914,2024-01-29 10h47.54.299697 -0500,
,"[0.64, -0.4]",None,,,,,,,,,0.0,23.0,23.0,23.0,2333.544592499966,,,,,,,,,,,,,,,,,,,,,,,,,,,,,,,,,,,,,,,,,,,,,,,,,,,,,,,,,,,,,,,,2333.529237300157,2333.544592499966,2333.544592499966,2334.028057200136,2334.044858300127,2336.5279395999387,2336.5281102000736,None,1.0,,,,,,nback73,1.0,2024-01-29_10h20.45.012,untitled,2023.2.3,60.05212525012914,2024-01-29 10h47.54.299697 -0500,
,"[0, 0.2]",space,,,,,,,,,0.0,24.0,24.0,24.0,2336.544795599999,,,,,,,,,,,,,,,,,,,,,,,,,,,,,,,,,,,,,,,,,,,,,,,,,,,,,,,,,,,,,,,,2336.528874800075,2336.544795599999,2336.544795599999,2337.028245399939,2337.044522100128,2339.52793890005,2339.5281390999444,None,0.0,,,,,,nback73,1.0,2024-01-29_10h20.45.012,untitled,2023.2.3,60.05212525012914,2024-01-29 10h47.54.299697 -0500,
,"[-0.2, 0.1]",None,,,,,,,,,0.0,25.0,25.0,25.0,2339.544575100066,,,,,,,,,,,,,,,,,,,,,,,,,,,,,,,,,,,,,,,,,,,,,,,,,,,,,,,,,,,,,,,,2339.5288947999943,2339.544575100066,2339.544575100066,2340.027751200134,2340.044525000034,2342.527793599991,2342.528105500154,None,1.0,,,,,,nback73,1.0,2024-01-29_10h20.45.012,untitled,2023.2.3,60.05212525012914,2024-01-29 10h47.54.299697 -0500,
,"[0.3, 0]",None,,,,,,,,,0.0,26.0,26.0,26.0,2342.544394999976,,,,,,,,,,,,,,,,,,,,,,,,,,,,,,,,,,,,,,,,,,,,,,,,,,,,,,,,,,,,,,,,2342.528839300154,2342.544394999976,2342.544394999976,2343.027729100082,2343.044572399929,2345.52792150015,2345.528119600145,None,1.0,,,,,,nback73,1.0,2024-01-29_10h20.45.012,untitled,2023.2.3,60.05212525012914,2024-01-29 10h47.54.299697 -0500,
,"[-0.2, 0.1]",space,,,,,,,,,0.0,27.0,27.0,27.0,2345.544611199992,,,,,,,,,,,,,,,,,,,,,,,,,,,,,,,,,,,,,,,,,,,,,,,,,,,,,,,,,,,,,,,,2345.528880500002,2345.544611199992,2345.544611199992,2346.027634399943,2346.044269599952,2348.5279242999386,2348.528115499997,space,1.0,0.7914619999937713,None,,,,nback73,1.0,2024-01-29_10h20.45.012,untitled,2023.2.3,60.05212525012914,2024-01-29 10h47.54.299697 -0500,
,"[-0.2, 0.1]",None,,,,,,,,,0.0,28.0,28.0,28.0,2348.5444672000594,,,,,,,,,,,,,,,,,,,,,,,,,,,,,,,,,,,,,,,,,,,,,,,,,,,,,,,,,,,,,,,,2348.529013599968,2348.5444672000594,2348.5444672000594,2349.027936700033,2349.0442935000174,2351.527758900076,2351.527952000033,None,1.0,,,,,,nback73,1.0,2024-01-29_10h20.45.012,untitled,2023.2.3,60.05212525012914,2024-01-29 10h47.54.299697 -0500,
,"[0.2, 0.1]",None,,,,,,,,,0.0,29.0,29.0,29.0,2351.544361500069,,,,,,,,,,,,,,,,,,,,,,,,,,,,,,,,,,,,,,,,,,,,,,,,,,,,,,,,,,,,,,,,2351.5287624001503,2351.544361500069,2351.544361500069,2352.027616000036,2352.044161000056,2354.52760650008,2354.5277869000565,None,1.0,,,,,,nback73,1.0,2024-01-29_10h20.45.012,untitled,2023.2.3,60.05212525012914,2024-01-29 10h47.54.299697 -0500,
,"[-0.64, -0.4]",None,,,,,,,,,0.0,30.0,30.0,30.0,2354.5444310000166,,,,,,,,,,,,,,,,,,,,,,,,,,,,,,,,,,,,,,,,,,,,,,,,,,,,,,,,,,,,,,,,2354.5284736000467,2354.5444310000166,2354.5444310000166,2355.0275942001026,2355.044210900087,2357.527773299953,2357.527968000155,None,1.0,,,,,,nback73,1.0,2024-01-29_10h20.45.012,untitled,2023.2.3,60.05212525012914,2024-01-29 10h47.54.299697 -0500,
,"[0, -0.2]",None,,,,,,,,,0.0,31.0,31.0,31.0,2357.5442803001497,,,,,,,,,,,,,,,,,,,,,,,,,,,,,,,,,,,,,,,,,,,,,,,,,,,,,,,,,,,,,,,,2357.5288124999497,2357.5442803001497,2357.5442803001497,2358.0276212000754,2358.0441167999525,2360.5276250001043,2360.5278177999426,None,1.0,,,,,,nback73,1.0,2024-01-29_10h20.45.012,untitled,2023.2.3,60.05212525012914,2024-01-29 10h47.54.299697 -0500,
,"[-0.64, -0.4]",space,,,,,,,,,0.0,32.0,32.0,32.0,2360.5441406001337,,,,,,,,,,,,,,,,,,,,,,,,,,,,,,,,,,,,,,,,,,,,,,,,,,,,,,,,,,,,,,,,2360.528555100085,2360.5441406001337,2360.5441406001337,2361.027568700025,2361.044170500012,2363.5275169999804,2363.5277100999374,space,1.0,0.4179855000693351,None,,,,nback73,1.0,2024-01-29_10h20.45.012,untitled,2023.2.3,60.05212525012914,2024-01-29 10h47.54.299697 -0500,
,"[0.64, 0.4]",None,,,,,,,,,0.0,33.0,33.0,33.0,2363.5440148999915,,,,,,,,,,,,,,,,,,,,,,,,,,,,,,,,,,,,,,,,,,,,,,,,,,,,,,,,,,,,,,,,2363.528557999991,2363.5440148999915,2363.5440148999915,2364.027383700013,2364.0441851001237,2366.527391300071,2366.527563800104,None,1.0,,,,,,nback73,1.0,2024-01-29_10h20.45.012,untitled,2023.2.3,60.05212525012914,2024-01-29 10h47.54.299697 -0500,
,"[-0.3, 0]",None,,,,,,,,,0.0,34.0,34.0,34.0,2366.544080800144,,,,,,,,,,,,,,,,,,,,,,,,,,,,,,,,,,,,,,,,,,,,,,,,,,,,,,,,,,,,,,,,2366.528233600082,2366.544080800144,2366.544080800144,2367.0273396000266,2367.0440229999367,2369.527459700126,2369.527647800045,None,1.0,,,,,,nback73,1.0,2024-01-29_10h20.45.012,untitled,2023.2.3,60.05212525012914,2024-01-29 10h47.54.299697 -0500,
,"[0.3, 0]",None,,,,,,,,,0.0,35.0,35.0,35.0,2369.544024300063,,,,,,,,,,,,,,,,,,,,,,,,,,,,,,,,,,,,,,,,,,,,,,,,,,,,,,,,,,,,,,,,2369.52836220013,2369.544024300063,2369.544024300063,2370.027449599933,2370.0440444001,2372.5273198001087,2372.5275012999773,None,1.0,,,,,,nback73,1.0,2024-01-29_10h20.45.012,untitled,2023.2.3,60.05212525012914,2024-01-29 10h47.54.299697 -0500,
,"[-0.3, 0]",space,,,,,,,,,0.0,36.0,36.0,36.0,2372.544031500118,,,,,,,,,,,,,,,,,,,,,,,,,,,,,,,,,,,,,,,,,,,,,,,,,,,,,,,,,,,,,,,,2372.5283918001223,2372.544031500118,2372.544031500118,2373.0273456000723,2373.043894900009,2375.5274281001184,2375.527631700039,space,1.0,0.7920597000047565,None,,,,nback73,1.0,2024-01-29_10h20.45.012,untitled,2023.2.3,60.05212525012914,2024-01-29 10h47.54.299697 -0500,
,"[0, -0.2]",None,,,,,,,,,0.0,37.0,37.0,37.0,2375.5440096000675,,,,,,,,,,,,,,,,,,,,,,,,,,,,,,,,,,,,,,,,,,,,,,,,,,,,,,,,,,,,,,,,2375.5285612000152,2375.5440096000675,2375.5440096000675,2376.027255400084,2376.043918899959,2378.527213100111,2378.527408299968,None,1.0,,,,,,nback73,1.0,2024-01-29_10h20.45.012,untitled,2023.2.3,60.05212525012914,2024-01-29 10h47.54.299697 -0500,
,"[0.3, 0]",None,,,,,,,,,0.0,38.0,38.0,38.0,2378.543757100124,,,,,,,,,,,,,,,,,,,,,,,,,,,,,,,,,,,,,,,,,,,,,,,,,,,,,,,,,,,,,,,,2378.528203800088,2378.543757100124,2378.543757100124,2379.027271799976,2379.043913700152,2381.5273166999687,2381.52753140009,None,1.0,,,,,,nback73,1.0,2024-01-29_10h20.45.012,untitled,2023.2.3,60.05212525012914,2024-01-29 10h47.54.299697 -0500,
,"[0.2, 0.1]",None,,,,,,,,,0.0,39.0,39.0,39.0,2381.5438519001477,,,,,,,,,,,,,,,,,,,,,,,,,,,,,,,,,,,,,,,,,,,,,,,,,,,,,,,,,,,,,,,,2381.528346400009,2381.5438519001477,2381.5438519001477,2382.027187500149,2382.043939399998,2384.527253200067,2384.5274624000303,None,1.0,,,,,,nback73,1.0,2024-01-29_10h20.45.012,untitled,2023.2.3,60.05212525012914,2024-01-29 10h47.54.299697 -0500,
,,,,,,,,,,,,,,,,,,,,,,,,,,,,,,,,,,,,,,,,,,,,,,,,,,,,,,,,,,,,,,,,,,,,,,,,,,,,,,,,,,,,,,,,,,2384.5280254001264,2384.543801800115,2387.527428700123,,,,,,,,
