square,location,corrAns,trials_0.thisRepN,trials_0.thisTrialN,trials_0.thisN,trials_0.thisIndex,trials_1.thisRepN,trials_1.thisTrialN,trials_1.thisN,trials_1.thisIndex,trials_2.thisRepN,trials_2.thisTrialN,trials_2.thisN,trials_2.thisIndex,thisRow.t,notes,Instructions.started,instructions.started,key_resp.started,inst_sq11.started,Instructions.stopped,key_resp.keys,key_resp.rt,key_resp.duration,All.started,sq_1.started,sq_2.started,sq_3.started,sq_4.started,sq_5.started,sq_6.started,sq_7.started,sq_8.started,sq_9.started,sq_10.started,sq_11.started,sq_12.started,All.stopped,Fixation.started,fixation_3.started,fixation_3.stopped,Fixation.stopped,N_back_0_Trial.started,target_square_0.started,response_0.started,fixation_0.started,target_square_0.stopped,fixation_0.stopped,N_back_0_Trial.stopped,response_0.keys,response_0.corr,response_0.rt,response_0.duration,Instructions_1.started,instructions_1.started,key_resp_1.started,Instructions_1.stopped,key_resp_1.keys,key_resp_1.rt,key_resp_1.duration,N_back_1_Trial.started,target_square_1.started,response_1.started,fixation_1.started,target_square_1.stopped,fixation_1.stopped,N_back_1_Trial.stopped,response_1.keys,response_1.corr,response_1.rt,response_1.duration,Instructions_2.started,instructions_2.started,key_resp_2.started,Instructions_2.stopped,key_resp_2.keys,key_resp_2.rt,key_resp_2.duration,N_back_2_trials.started,target_square_2.started,response_2.started,target_square_2.stopped,fixation_2.started,fixation_2.stopped,response_2.stopped,N_back_2_trials.stopped,response_2.keys,response_2.corr,response_2.rt,response_2.duration,End.started,thank_you.started,thank_you.stopped,End.stopped,participant,session,date,expName,psychopyVersion,frameRate,expStart,
,,,,,,,,,,,,,,,,,0.0014897999935783446,0.00398999999742955,0.00398999999742955,0.00398999999742955,405.13948279997567,space,405.11951560000307,None,,,,,,,,,,,,,,,,,,,,,,,,,,,,,,,,,,,,,,,,,,,,,,,,,,,,,,,,,,,,,,,,,,,,,,,nback30,001,2023-12-15_13h21.04.144,untitled,2023.2.3,60.04776199356334,2023-12-15 14h00.34.977556 -0500,
6,"[-0.3, 0]",None,0,0,0,0,,,,,,,,,407.15812559999176,,,,,,,,,,405.13952090000384,405.1547910999798,405.1547910999798,405.1547910999798,405.1547910999798,405.1547910999798,405.1547910999798,405.1547910999798,405.1547910999798,405.1547910999798,405.1547910999798,405.1547910999798,405.1547910999798,406.1389627000026,406.1389861999778,406.15470319997985,407.15812559999176,407.1387832000037,407.1561598999833,407.15812559999176,407.15812559999176,407.6381218000024,407.67132329999004,410.13805359997787,410.15489539998816,None,1,,,,,,,,,,,,,,,,,,,,,,,,,,,,,,,,,,,,,,,,,,,,nback30,001,2023-12-15_13h21.04.144,untitled,2023.2.3,60.04776199356334,2023-12-15 14h00.34.977556 -0500,
10,"[0, -0.2]",None,0,1,1,1,,,,,,,,,410.17135609997786,,,,,,,,,,,,,,,,,,,,,,,,,,,,410.15579009999055,410.17135609997786,410.17135609997786,410.6378508999769,410.6713591000007,413.13795529998606,413.15496659997734,None,1,,,,,,,,,,,,,,,,,,,,,,,,,,,,,,,,,,,,,,,,,,,,nback30,001,2023-12-15_13h21.04.144,untitled,2023.2.3,60.04776199356334,2023-12-15 14h00.34.977556 -0500,
11,"[-0.64, -0.4]",space,0,2,2,2,,,,,,,,,413.1710891999828,,,,,,,,,,,,,,,,,,,,,,,,,,,,413.155692899978,413.1710891999828,413.1710891999828,413.65457459999016,413.67133129999274,416.15476839998155,416.15496789998724,space,1,0.36072679999051616,None,,,,,,,,,,,,,,,,,,,,,,,,,,,,,,,,,,,,,,,,,,nback30,001,2023-12-15_13h21.04.144,untitled,2023.2.3,60.04776199356334,2023-12-15 14h00.34.977556 -0500,
12,"[0.64, -0.4]",None,0,3,3,3,,,,,,,,,416.1712208999961,,,,,,,,,,,,,,,,,,,,,,,,,,,,416.1561325999792,416.1712208999961,416.1712208999961,416.63806219998514,416.6711796000018,419.13786369998707,419.1547891999944,None,1,,,,,,,,,,,,,,,,,,,,,,,,,,,,,,,,,,,,,,,,,,,,nback30,001,2023-12-15_13h21.04.144,untitled,2023.2.3,60.04776199356334,2023-12-15 14h00.34.977556 -0500,
1,"[-0.64, 0.4]",None,0,4,4,4,,,,,,,,,419.17122180000297,,,,,,,,,,,,,,,,,,,,,,,,,,,,419.1555653999967,419.17122180000297,419.17122180000297,419.65472049999516,419.67120579999755,422.15442819998134,422.15457949999836,None,1,,,,,,,,,,,,,,,,,,,,,,,,,,,,,,,,,,,,,,,,,,,,nback30,001,2023-12-15_13h21.04.144,untitled,2023.2.3,60.04776199356334,2023-12-15 14h00.34.977556 -0500,
1,"[-0.64, 0.4]",None,0,5,5,5,,,,,,,,,422.17122499999823,,,,,,,,,,,,,,,,,,,,,,,,,,,,422.15503279998666,422.17122499999823,422.17122499999823,422.65450269999565,422.67117990000406,425.15444339998066,425.1545969999861,None,1,,,,,,,,,,,,,,,,,,,,,,,,,,,,,,,,,,,,,,,,,,,,nback30,001,2023-12-15_13h21.04.144,untitled,2023.2.3,60.04776199356334,2023-12-15 14h00.34.977556 -0500,
4,"[-0.2, 0.1]",None,0,6,6,6,,,,,,,,,425.17113899998367,,,,,,,,,,,,,,,,,,,,,,,,,,,,425.15520489998744,425.17113899998367,425.17113899998367,425.65452859998913,425.67123999999603,428.1543509999756,428.15450299999793,None,1,,,,,,,,,,,,,,,,,,,,,,,,,,,,,,,,,,,,,,,,,,,,nback30,001,2023-12-15_13h21.04.144,untitled,2023.2.3,60.04776199356334,2023-12-15 14h00.34.977556 -0500,
5,"[0.2, 0.1]",None,0,7,7,7,,,,,,,,,428.1709416999947,,,,,,,,,,,,,,,,,,,,,,,,,,,,428.15508529997896,428.1709416999947,428.1709416999947,428.654501299985,428.67104999997537,431.1543757999898,431.15458259999286,None,1,,,,,,,,,,,,,,,,,,,,,,,,,,,,,,,,,,,,,,,,,,,,nback30,001,2023-12-15_13h21.04.144,untitled,2023.2.3,60.04776199356334,2023-12-15 14h00.34.977556 -0500,
11,"[-0.64, -0.4]",space,0,8,8,8,,,,,,,,,431.17082499997923,,,,,,,,,,,,,,,,,,,,,,,,,,,,431.155394899979,431.17082499997923,431.17082499997923,431.6543845999986,431.67091600000276,434.15425120000145,434.15441649997956,space,1,0.5026314999850001,None,,,,,,,,,,,,,,,,,,,,,,,,,,,,,,,,,,,,,,,,,,nback30,001,2023-12-15_13h21.04.144,untitled,2023.2.3,60.04776199356334,2023-12-15 14h00.34.977556 -0500,
9,"[0.2, -0.1]",None,0,9,9,9,,,,,,,,,434.17086869999184,,,,,,,,,,,,,,,,,,,,,,,,,,,,434.15520459998515,434.17086869999184,434.17086869999184,434.6543063999852,434.6708705999772,437.15425089999917,437.1544699999795,None,1,,,,,,,,,,,,,,,,,,,,,,,,,,,,,,,,,,,,,,,,,,,,nback30,001,2023-12-15_13h21.04.144,untitled,2023.2.3,60.04776199356334,2023-12-15 14h00.34.977556 -0500,
8,"[-0.2, -0.1]",None,0,10,10,10,,,,,,,,,437.17097399997874,,,,,,,,,,,,,,,,,,,,,,,,,,,,437.1552817999909,437.17097399997874,437.17097399997874,437.6542160999961,437.67095509998035,440.15436249997583,440.15454899999895,None,1,,,,,,,,,,,,,,,,,,,,,,,,,,,,,,,,,,,,,,,,,,,,nback30,001,2023-12-15_13h21.04.144,untitled,2023.2.3,60.04776199356334,2023-12-15 14h00.34.977556 -0500,
9,"[0.2, -0.1]",None,0,11,11,11,,,,,,,,,440.17100939998636,,,,,,,,,,,,,,,,,,,,,,,,,,,,440.15528379997704,440.17100939998636,440.17100939998636,440.65421419998165,440.6709026999888,443.15412679998553,443.1542843999923,None,1,,,,,,,,,,,,,,,,,,,,,,,,,,,,,,,,,,,,,,,,,,,,nback30,001,2023-12-15_13h21.04.144,untitled,2023.2.3,60.04776199356334,2023-12-15 14h00.34.977556 -0500,
6,"[-0.3, 0]",None,0,12,12,12,,,,,,,,,443.17092219999176,,,,,,,,,,,,,,,,,,,,,,,,,,,,443.1548675999802,443.17092219999176,443.17092219999176,443.6543565999891,443.67071449998184,446.1540856999927,446.1542403999774,None,1,,,,,,,,,,,,,,,,,,,,,,,,,,,,,,,,,,,,,,,,,,,,nback30,001,2023-12-15_13h21.04.144,untitled,2023.2.3,60.04776199356334,2023-12-15 14h00.34.977556 -0500,
9,"[0.2, -0.1]",None,0,13,13,13,,,,,,,,,446.17076419998193,,,,,,,,,,,,,,,,,,,,,,,,,,,,446.15486799998325,446.17076419998193,446.17076419998193,446.65408609999577,446.6708512000041,449.1540813999891,449.15427919998183,None,1,,,,,,,,,,,,,,,,,,,,,,,,,,,,,,,,,,,,,,,,,,,,nback30,001,2023-12-15_13h21.04.144,untitled,2023.2.3,60.04776199356334,2023-12-15 14h00.34.977556 -0500,
7,"[0.3, 0]",None,0,14,14,14,,,,,,,,,449.1707846999925,,,,,,,,,,,,,,,,,,,,,,,,,,,,449.15514950000215,449.1707846999925,449.1707846999925,449.6542319,449.67073260000325,452.1539576999785,452.15411819997826,None,1,,,,,,,,,,,,,,,,,,,,,,,,,,,,,,,,,,,,,,,,,,,,nback30,001,2023-12-15_13h21.04.144,untitled,2023.2.3,60.04776199356334,2023-12-15 14h00.34.977556 -0500,
2,"[0.64, 0.4]",None,0,15,15,15,,,,,,,,,452.1704545999819,,,,,,,,,,,,,,,,,,,,,,,,,,,,452.1547406000027,452.1704545999819,452.1704545999819,452.65393839997705,452.6707813999965,455.1540414999763,455.1542491999862,None,1,,,,,,,,,,,,,,,,,,,,,,,,,,,,,,,,,,,,,,,,,,,,nback30,001,2023-12-15_13h21.04.144,untitled,2023.2.3,60.04776199356334,2023-12-15 14h00.34.977556 -0500,
2,"[0.64, 0.4]",None,0,16,16,16,,,,,,,,,455.17057190000196,,,,,,,,,,,,,,,,,,,,,,,,,,,,455.1550655000028,455.17057190000196,455.17057190000196,455.6540499999828,455.67050259999814,458.15390659999684,458.15405979999923,None,1,,,,,,,,,,,,,,,,,,,,,,,,,,,,,,,,,,,,,,,,,,,,nback30,001,2023-12-15_13h21.04.144,untitled,2023.2.3,60.04776199356334,2023-12-15 14h00.34.977556 -0500,
11,"[-0.64, -0.4]",space,0,17,17,17,,,,,,,,,458.17058360000374,,,,,,,,,,,,,,,,,,,,,,,,,,,,458.15472469999804,458.17058360000374,458.17058360000374,458.65398370000185,458.67070899999817,461.15370579998125,461.15384189999895,space,1,0.31165199997485615,None,,,,,,,,,,,,,,,,,,,,,,,,,,,,,,,,,,,,,,,,,,nback30,001,2023-12-15_13h21.04.144,untitled,2023.2.3,60.04776199356334,2023-12-15 14h00.34.977556 -0500,
11,"[-0.64, -0.4]",space,0,18,18,18,,,,,,,,,461.1703318999789,,,,,,,,,,,,,,,,,,,,,,,,,,,,461.154607399978,461.1703318999789,461.1703318999789,461.6539822999912,461.67040499998257,464.15366049998556,464.1537747999828,space,1,0.50069970000186,None,,,,,,,,,,,,,,,,,,,,,,,,,,,,,,,,,,,,,,,,,,nback30,001,2023-12-15_13h21.04.144,untitled,2023.2.3,60.04776199356334,2023-12-15 14h00.34.977556 -0500,
7,"[0.3, 0]",None,0,19,19,19,,,,,,,,,464.17043529998045,,,,,,,,,,,,,,,,,,,,,,,,,,,,464.1541623999947,464.17043529998045,464.17043529998045,464.653637099982,464.67032429997926,467.15359889998217,467.1537418999942,None,1,,,,,,,,,,,,,,,,,,,,,,,,,,,,,,,,,,,,,,,,,,,,nback30,001,2023-12-15_13h21.04.144,untitled,2023.2.3,60.04776199356334,2023-12-15 14h00.34.977556 -0500,
3,"[0, 0.2]",None,0,20,20,20,,,,,,,,,467.17002959997626,,,,,,,,,,,,,,,,,,,,,,,,,,,,467.15424909998546,467.17002959997626,467.17002959997626,467.6536802999908,467.67036619997816,470.15375209998456,470.15391149997595,None,1,,,,,,,,,,,,,,,,,,,,,,,,,,,,,,,,,,,,,,,,,,,,nback30,001,2023-12-15_13h21.04.144,untitled,2023.2.3,60.04776199356334,2023-12-15 14h00.34.977556 -0500,
10,"[0, -0.2]",None,0,21,21,21,,,,,,,,,470.1703991999966,,,,,,,,,,,,,,,,,,,,,,,,,,,,470.1545141999959,470.1703991999966,470.1703991999966,470.65384419998736,470.6705430999864,473.1537315000023,473.15393919998314,None,1,,,,,,,,,,,,,,,,,,,,,,,,,,,,,,,,,,,,,,,,,,,,nback30,001,2023-12-15_13h21.04.144,untitled,2023.2.3,60.04776199356334,2023-12-15 14h00.34.977556 -0500,
1,"[-0.64, 0.4]",None,0,22,22,22,,,,,,,,,473.1704063999932,,,,,,,,,,,,,,,,,,,,,,,,,,,,473.1548117999919,473.1704063999932,473.1704063999932,473.6537372999883,473.67023009998957,476.15367989998776,476.15384009998525,None,1,,,,,,,,,,,,,,,,,,,,,,,,,,,,,,,,,,,,,,,,,,,,nback30,001,2023-12-15_13h21.04.144,untitled,2023.2.3,60.04776199356334,2023-12-15 14h00.34.977556 -0500,
2,"[0.64, 0.4]",None,0,23,23,23,,,,,,,,,476.1702778999752,,,,,,,,,,,,,,,,,,,,,,,,,,,,476.1544711999886,476.1702778999752,476.1702778999752,476.6534926999884,476.6701861000038,479.1535115999868,479.15369779997854,None,1,,,,,,,,,,,,,,,,,,,,,,,,,,,,,,,,,,,,,,,,,,,,nback30,001,2023-12-15_13h21.04.144,untitled,2023.2.3,60.04776199356334,2023-12-15 14h00.34.977556 -0500,
6,"[-0.3, 0]",None,0,24,24,24,,,,,,,,,479.1701714999799,,,,,,,,,,,,,,,,,,,,,,,,,,,,479.15446029999293,479.1701714999799,479.1701714999799,479.65357799999765,479.67015930000343,482.1532701999822,482.1533891999861,None,1,,,,,,,,,,,,,,,,,,,,,,,,,,,,,,,,,,,,,,,,,,,,nback30,001,2023-12-15_13h21.04.144,untitled,2023.2.3,60.04776199356334,2023-12-15 14h00.34.977556 -0500,
3,"[0, 0.2]",None,0,25,25,25,,,,,,,,,482.1699750999978,,,,,,,,,,,,,,,,,,,,,,,,,,,,482.1537747999828,482.1699750999978,482.1699750999978,482.6535051999963,482.67022699999507,485.15347839999595,485.15367939998396,None,1,,,,,,,,,,,,,,,,,,,,,,,,,,,,,,,,,,,,,,,,,,,,nback30,001,2023-12-15_13h21.04.144,untitled,2023.2.3,60.04776199356334,2023-12-15 14h00.34.977556 -0500,
11,"[-0.64, -0.4]",space,0,26,26,26,,,,,,,,,485.1699953999778,,,,,,,,,,,,,,,,,,,,,,,,,,,,485.15447469998617,485.1699953999778,485.1699953999778,485.65359400000307,485.67022259999067,488.153305099986,488.1534677000018,space,1,0.2856831999961287,None,,,,,,,,,,,,,,,,,,,,,,,,,,,,,,,,,,,,,,,,,,nback30,001,2023-12-15_13h21.04.144,untitled,2023.2.3,60.04776199356334,2023-12-15 14h00.34.977556 -0500,
1,"[-0.64, 0.4]",None,0,27,27,27,,,,,,,,,488.17006459998083,,,,,,,,,,,,,,,,,,,,,,,,,,,,488.1541978000023,488.17006459998083,488.17006459998083,488.6534833999758,488.6700105999771,491.1533262000012,491.15350349998334,None,1,,,,,,,,,,,,,,,,,,,,,,,,,,,,,,,,,,,,,,,,,,,,nback30,001,2023-12-15_13h21.04.144,untitled,2023.2.3,60.04776199356334,2023-12-15 14h00.34.977556 -0500,
3,"[0, 0.2]",None,0,28,28,28,,,,,,,,,491.17007569997804,,,,,,,,,,,,,,,,,,,,,,,,,,,,491.15419889998157,491.17007569997804,491.17007569997804,491.65336039999966,491.66994989998057,494.15321369998856,494.15339510000194,None,1,,,,,,,,,,,,,,,,,,,,,,,,,,,,,,,,,,,,,,,,,,,,nback30,001,2023-12-15_13h21.04.144,untitled,2023.2.3,60.04776199356334,2023-12-15 14h00.34.977556 -0500,
9,"[0.2, -0.1]",None,0,29,29,29,,,,,,,,,494.17008339997847,,,,,,,,,,,,,,,,,,,,,,,,,,,,494.15406649999204,494.17008339997847,494.17008339997847,494.65326359999017,494.66987959999824,497.1533848999825,497.15359410000383,None,1,,,,,,,,,,,,,,,,,,,,,,,,,,,,,,,,,,,,,,,,,,,,nback30,001,2023-12-15_13h21.04.144,untitled,2023.2.3,60.04776199356334,2023-12-15 14h00.34.977556 -0500,
8,"[-0.2, -0.1]",None,0,30,30,30,,,,,,,,,497.1699491000036,,,,,,,,,,,,,,,,,,,,,,,,,,,,497.15435470000375,497.1699491000036,497.1699491000036,497.65328800000134,497.6699000999797,500.1532615000033,500.153487899981,space,0,0.3029404999979306,None,,,,,,,,,,,,,,,,,,,,,,,,,,,,,,,,,,,,,,,,,,nback30,001,2023-12-15_13h21.04.144,untitled,2023.2.3,60.04776199356334,2023-12-15 14h00.34.977556 -0500,
12,"[0.64, -0.4]",None,0,31,31,31,,,,,,,,,500.1699539999827,,,,,,,,,,,,,,,,,,,,,,,,,,,,500.15442350000376,500.1699539999827,500.1699539999827,500.65327169999364,500.6699559999979,503.1532324999862,503.15341369999805,None,1,,,,,,,,,,,,,,,,,,,,,,,,,,,,,,,,,,,,,,,,,,,,nback30,001,2023-12-15_13h21.04.144,untitled,2023.2.3,60.04776199356334,2023-12-15 14h00.34.977556 -0500,
9,"[0.2, -0.1]",None,0,32,32,32,,,,,,,,,503.1698703999864,,,,,,,,,,,,,,,,,,,,,,,,,,,,503.15422480000416,503.1698703999864,503.1698703999864,503.6529856999987,503.66988529998343,506.15317799997865,506.1533886999823,None,1,,,,,,,,,,,,,,,,,,,,,,,,,,,,,,,,,,,,,,,,,,,,nback30,001,2023-12-15_13h21.04.144,untitled,2023.2.3,60.04776199356334,2023-12-15 14h00.34.977556 -0500,
11,"[-0.64, -0.4]",space,0,33,33,33,,,,,,,,,506.16973229998257,,,,,,,,,,,,,,,,,,,,,,,,,,,,506.154183799983,506.16973229998257,506.16973229998257,506.65294149998226,506.6696232999966,509.1530324999767,509.15321940000285,space,1,0.3336755000054836,None,,,,,,,,,,,,,,,,,,,,,,,,,,,,,,,,,,,,,,,,,,nback30,001,2023-12-15_13h21.04.144,untitled,2023.2.3,60.04776199356334,2023-12-15 14h00.34.977556 -0500,
7,"[0.3, 0]",None,0,34,34,34,,,,,,,,,509.1698240999831,,,,,,,,,,,,,,,,,,,,,,,,,,,,509.15412809999543,509.1698240999831,509.1698240999831,509.65295709998463,509.6695873999852,512.1530198999972,512.153241299995,None,1,,,,,,,,,,,,,,,,,,,,,,,,,,,,,,,,,,,,,,,,,,,,nback30,001,2023-12-15_13h21.04.144,untitled,2023.2.3,60.04776199356334,2023-12-15 14h00.34.977556 -0500,
11,"[-0.64, -0.4]",space,0,35,35,35,,,,,,,,,512.1697874999954,,,,,,,,,,,,,,,,,,,,,,,,,,,,512.1540686999797,512.1697874999954,512.1697874999954,512.6530378999887,512.6696401999798,515.1532124999794,515.1534206999931,space,1,0.38367929999367334,None,,,,,,,,,,,,,,,,,,,,,,,,,,,,,,,,,,,,,,,,,,nback30,001,2023-12-15_13h21.04.144,untitled,2023.2.3,60.04776199356334,2023-12-15 14h00.34.977556 -0500,
4,"[-0.2, 0.1]",None,0,36,36,36,,,,,,,,,515.1696517999808,,,,,,,,,,,,,,,,,,,,,,,,,,,,515.154426699999,515.1696517999808,515.1696517999808,515.6529283999989,515.6695865999791,518.1529497999873,518.1531285999808,None,1,,,,,,,,,,,,,,,,,,,,,,,,,,,,,,,,,,,,,,,,,,,,nback30,001,2023-12-15_13h21.04.144,untitled,2023.2.3,60.04776199356334,2023-12-15 14h00.34.977556 -0500,
5,"[0.2, 0.1]",None,0,37,37,37,,,,,,,,,518.1696267999941,,,,,,,,,,,,,,,,,,,,,,,,,,,,518.1538385000022,518.1696267999941,518.1696267999941,518.6531255999871,518.6696423999965,521.1530291999807,521.15323299999,None,1,,,,,,,,,,,,,,,,,,,,,,,,,,,,,,,,,,,,,,,,,,,,nback30,001,2023-12-15_13h21.04.144,untitled,2023.2.3,60.04776199356334,2023-12-15 14h00.34.977556 -0500,
6,"[-0.3, 0]",None,0,38,38,38,,,,,,,,,521.1695506999968,,,,,,,,,,,,,,,,,,,,,,,,,,,,521.154059499997,521.1695506999968,521.1695506999968,521.6530648999906,521.669458599994,524.1528875999793,524.1530965999991,None,1,,,,,,,,,,,,,,,,,,,,,,,,,,,,,,,,,,,,,,,,,,,,nback30,001,2023-12-15_13h21.04.144,untitled,2023.2.3,60.04776199356334,2023-12-15 14h00.34.977556 -0500,
11,"[-0.64, -0.4]",space,0,39,39,39,,,,,,,,,524.1695483999792,,,,,,,,,,,,,,,,,,,,,,,,,,,,524.1539087999845,524.1695483999792,524.1695483999792,524.6528820999956,524.6695922999934,527.1528757999768,527.153049399989,space,1,0.3280220000015106,None,,,,,,,,,,,,,,,,,,,,,,,,,,,,,,,,,,,,,,,,,,nback30,001,2023-12-15_13h21.04.144,untitled,2023.2.3,60.04776199356334,2023-12-15 14h00.34.977556 -0500,
,,,,,,,,,,,,,,,,,,,,,,,,,,,,,,,,,,,,,,,,,,,,,,,,,,,,,,527.15368269998,527.169571699982,527.169571699982,567.320479099988,space,40.142544599977555,None,,,,,,,,,,,,,,,,,,,,,,,,,,,,,,,,,,,nback30,001,2023-12-15_13h21.04.144,untitled,2023.2.3,60.04776199356334,2023-12-15 14h00.34.977556 -0500,
10,"[0, -0.2]",None,,,,,0,0,0,0,,,,,568.3386732999934,,,,,,,,,,,,,,,,,,,,,,,,567.3205254999921,567.3353500999801,568.3386732999934,568.3197484999837,,,,,,,,,,,,,,,,,,,568.3368239999982,568.3386732999934,568.3386732999934,568.835425199999,568.8521673999785,571.3351854999783,571.3353170999908,None,1,,,,,,,,,,,,,,,,,,,,,,,,,,nback30,001,2023-12-15_13h21.04.144,untitled,2023.2.3,60.04776199356334,2023-12-15 14h00.34.977556 -0500,
5,"[0.2, 0.1]",None,,,,,0,1,1,1,,,,,571.3518709999917,,,,,,,,,,,,,,,,,,,,,,,,,,,,,,,,,,,,,,,,,,,,,,571.3359193999786,571.3518709999917,571.3518709999917,571.8351495999959,571.8518654999789,574.335305799992,574.3354815999919,None,1,,,,,,,,,,,,,,,,,,,,,,,,,,nback30,001,2023-12-15_13h21.04.144,untitled,2023.2.3,60.04776199356334,2023-12-15 14h00.34.977556 -0500,
6,"[-0.3, 0]",None,,,,,0,2,2,2,,,,,574.3519450000022,,,,,,,,,,,,,,,,,,,,,,,,,,,,,,,,,,,,,,,,,,,,,,574.3361791999778,574.3519450000022,574.3519450000022,574.8351861999836,574.8519677000004,577.3352482999908,577.3354572999815,None,1,,,,,,,,,,,,,,,,,,,,,,,,,,nback30,001,2023-12-15_13h21.04.144,untitled,2023.2.3,60.04776199356334,2023-12-15 14h00.34.977556 -0500,
6,"[-0.3, 0]",space,,,,,0,3,3,3,,,,,577.3519593999954,,,,,,,,,,,,,,,,,,,,,,,,,,,,,,,,,,,,,,,,,,,,,,577.3362554999767,577.3519593999954,577.3519593999954,577.8351287999831,577.8517780999828,580.3352023999905,580.3353739999875,space,1,0.4264365000126418,None,,,,,,,,,,,,,,,,,,,,,,,,nback30,001,2023-12-15_13h21.04.144,untitled,2023.2.3,60.04776199356334,2023-12-15 14h00.34.977556 -0500,
12,"[0.64, -0.4]",None,,,,,0,4,4,4,,,,,580.351748999994,,,,,,,,,,,,,,,,,,,,,,,,,,,,,,,,,,,,,,,,,,,,,,580.3363431000034,580.351748999994,580.351748999994,580.8352255999926,580.8518516999902,583.3351231999986,583.3353002999793,None,1,,,,,,,,,,,,,,,,,,,,,,,,,,nback30,001,2023-12-15_13h21.04.144,untitled,2023.2.3,60.04776199356334,2023-12-15 14h00.34.977556 -0500,
10,"[0, -0.2]",None,,,,,0,5,5,5,,,,,583.3516879999952,,,,,,,,,,,,,,,,,,,,,,,,,,,,,,,,,,,,,,,,,,,,,,583.3360214999993,583.3516879999952,583.3516879999952,583.8352123999794,583.8517360999831,586.3350845999958,586.3352283999848,None,1,,,,,,,,,,,,,,,,,,,,,,,,,,nback30,001,2023-12-15_13h21.04.144,untitled,2023.2.3,60.04776199356334,2023-12-15 14h00.34.977556 -0500,
2,"[0.64, 0.4]",None,,,,,0,6,6,6,,,,,586.351717499987,,,,,,,,,,,,,,,,,,,,,,,,,,,,,,,,,,,,,,,,,,,,,,586.3357579000003,586.351717499987,586.351717499987,586.8351607999939,586.8518102999951,589.3350925999985,589.3353113999765,None,1,,,,,,,,,,,,,,,,,,,,,,,,,,nback30,001,2023-12-15_13h21.04.144,untitled,2023.2.3,60.04776199356334,2023-12-15 14h00.34.977556 -0500,
9,"[0.2, -0.1]",None,,,,,0,7,7,7,,,,,589.3516390000004,,,,,,,,,,,,,,,,,,,,,,,,,,,,,,,,,,,,,,,,,,,,,,589.3359872000001,589.3516390000004,589.3516390000004,589.8351343999966,589.8516316000023,592.3349858000001,592.3350887999986,None,1,,,,,,,,,,,,,,,,,,,,,,,,,,nback30,001,2023-12-15_13h21.04.144,untitled,2023.2.3,60.04776199356334,2023-12-15 14h00.34.977556 -0500,
9,"[0.2, -0.1]",space,,,,,0,8,8,8,,,,,592.3515942999802,,,,,,,,,,,,,,,,,,,,,,,,,,,,,,,,,,,,,,,,,,,,,,592.3354787999997,592.3515942999802,592.3515942999802,592.8348986999772,592.8515872999851,595.3350018999772,595.3351604999916,space,1,0.3242587999848183,None,,,,,,,,,,,,,,,,,,,,,,,,nback30,001,2023-12-15_13h21.04.144,untitled,2023.2.3,60.04776199356334,2023-12-15 14h00.34.977556 -0500,
6,"[-0.3, 0]",None,,,,,0,9,9,9,,,,,595.3516893999767,,,,,,,,,,,,,,,,,,,,,,,,,,,,,,,,,,,,,,,,,,,,,,595.3360481999989,595.3516893999767,595.3516893999767,595.8348249999981,595.8514289000013,598.3349095000012,598.335087799991,None,1,,,,,,,,,,,,,,,,,,,,,,,,,,nback30,001,2023-12-15_13h21.04.144,untitled,2023.2.3,60.04776199356334,2023-12-15 14h00.34.977556 -0500,
11,"[-0.64, -0.4]",None,,,,,0,10,10,10,,,,,598.351573699998,,,,,,,,,,,,,,,,,,,,,,,,,,,,,,,,,,,,,,,,,,,,,,598.3358376999968,598.351573699998,598.351573699998,598.8350294999836,598.8517530999961,601.3349462999904,601.3351543000026,None,1,,,,,,,,,,,,,,,,,,,,,,,,,,nback30,001,2023-12-15_13h21.04.144,untitled,2023.2.3,60.04776199356334,2023-12-15 14h00.34.977556 -0500,
11,"[-0.64, -0.4]",space,,,,,0,11,11,11,,,,,601.3515534999897,,,,,,,,,,,,,,,,,,,,,,,,,,,,,,,,,,,,,,,,,,,,,,601.336000499985,601.3515534999897,601.3515534999897,601.8349059000029,601.8514732999902,604.334683299996,604.3348678000038,space,1,0.6898623000015505,None,,,,,,,,,,,,,,,,,,,,,,,,nback30,001,2023-12-15_13h21.04.144,untitled,2023.2.3,60.04776199356334,2023-12-15 14h00.34.977556 -0500,
4,"[-0.2, 0.1]",None,,,,,0,12,12,12,,,,,604.3513905,,,,,,,,,,,,,,,,,,,,,,,,,,,,,,,,,,,,,,,,,,,,,,604.3358189999999,604.3513905,604.3513905,604.834774899995,604.8515337999852,607.3347953999764,607.3349801999866,None,1,,,,,,,,,,,,,,,,,,,,,,,,,,nback30,001,2023-12-15_13h21.04.144,untitled,2023.2.3,60.04776199356334,2023-12-15 14h00.34.977556 -0500,
3,"[0, 0.2]",None,,,,,0,13,13,13,,,,,607.3513542999863,,,,,,,,,,,,,,,,,,,,,,,,,,,,,,,,,,,,,,,,,,,,,,607.3356938999787,607.3513542999863,607.3513542999863,607.8346444999916,607.8513975999958,610.3346910999971,610.3348779999942,None,1,,,,,,,,,,,,,,,,,,,,,,,,,,nback30,001,2023-12-15_13h21.04.144,untitled,2023.2.3,60.04776199356334,2023-12-15 14h00.34.977556 -0500,
3,"[0, 0.2]",space,,,,,0,14,14,14,,,,,610.3516506000014,,,,,,,,,,,,,,,,,,,,,,,,,,,,,,,,,,,,,,,,,,,,,,610.3356643999869,610.3516506000014,610.3516506000014,610.8346949999977,610.8513961999852,613.3345887000032,613.3347472999885,space,1,0.45863729997654445,None,,,,,,,,,,,,,,,,,,,,,,,,nback30,001,2023-12-15_13h21.04.144,untitled,2023.2.3,60.04776199356334,2023-12-15 14h00.34.977556 -0500,
8,"[-0.2, -0.1]",None,,,,,0,15,15,15,,,,,613.3514445999754,,,,,,,,,,,,,,,,,,,,,,,,,,,,,,,,,,,,,,,,,,,,,,613.3356422999932,613.3514445999754,613.3514445999754,613.8346582999802,613.8513379999786,616.334701499989,616.3349639999797,None,1,,,,,,,,,,,,,,,,,,,,,,,,,,nback30,001,2023-12-15_13h21.04.144,untitled,2023.2.3,60.04776199356334,2023-12-15 14h00.34.977556 -0500,
1,"[-0.64, 0.4]",None,,,,,0,16,16,16,,,,,616.3511559999897,,,,,,,,,,,,,,,,,,,,,,,,,,,,,,,,,,,,,,,,,,,,,,616.3357437999803,616.3511559999897,616.3511559999897,616.8347254999971,616.8512907999975,619.3344836999895,619.3346506999806,None,1,,,,,,,,,,,,,,,,,,,,,,,,,,nback30,001,2023-12-15_13h21.04.144,untitled,2023.2.3,60.04776199356334,2023-12-15 14h00.34.977556 -0500,
2,"[0.64, 0.4]",None,,,,,0,17,17,17,,,,,619.3511452999956,,,,,,,,,,,,,,,,,,,,,,,,,,,,,,,,,,,,,,,,,,,,,,619.3353776999866,619.3511452999956,619.3511452999956,619.8344246999768,619.8512322999886,622.3345275000029,622.3347315999854,None,1,,,,,,,,,,,,,,,,,,,,,,,,,,nback30,001,2023-12-15_13h21.04.144,untitled,2023.2.3,60.04776199356334,2023-12-15 14h00.34.977556 -0500,
4,"[-0.2, 0.1]",None,,,,,0,18,18,18,,,,,622.351205599989,,,,,,,,,,,,,,,,,,,,,,,,,,,,,,,,,,,,,,,,,,,,,,622.3355677999789,622.351205599989,622.351205599989,622.8344194999954,622.8511714999913,625.3342402999988,625.3343449999811,None,1,,,,,,,,,,,,,,,,,,,,,,,,,,nback30,001,2023-12-15_13h21.04.144,untitled,2023.2.3,60.04776199356334,2023-12-15 14h00.34.977556 -0500,
4,"[-0.2, 0.1]",space,,,,,0,19,19,19,,,,,625.3508489999804,,,,,,,,,,,,,,,,,,,,,,,,,,,,,,,,,,,,,,,,,,,,,,625.3347119999817,625.3508489999804,625.3508489999804,625.8343435999996,625.8511574000004,628.334466500004,628.3346527999965,space,1,0.501909800019348,None,,,,,,,,,,,,,,,,,,,,,,,,nback30,001,2023-12-15_13h21.04.144,untitled,2023.2.3,60.04776199356334,2023-12-15 14h00.34.977556 -0500,
8,"[-0.2, -0.1]",None,,,,,0,20,20,20,,,,,628.3510342999944,,,,,,,,,,,,,,,,,,,,,,,,,,,,,,,,,,,,,,,,,,,,,,628.3356251999794,628.3510342999944,628.3510342999944,628.8343762999866,628.8510130999784,631.3344222999876,631.3346288999892,None,1,,,,,,,,,,,,,,,,,,,,,,,,,,nback30,001,2023-12-15_13h21.04.144,untitled,2023.2.3,60.04776199356334,2023-12-15 14h00.34.977556 -0500,
5,"[0.2, 0.1]",None,,,,,0,21,21,21,,,,,631.3508759999822,,,,,,,,,,,,,,,,,,,,,,,,,,,,,,,,,,,,,,,,,,,,,,631.3354739999922,631.3508759999822,631.3508759999822,631.8344989999896,631.851242499979,634.334199999983,634.3343198999937,None,1,,,,,,,,,,,,,,,,,,,,,,,,,,nback30,001,2023-12-15_13h21.04.144,untitled,2023.2.3,60.04776199356334,2023-12-15 14h00.34.977556 -0500,
5,"[0.2, 0.1]",space,,,,,0,22,22,22,,,,,634.3510505000013,,,,,,,,,,,,,,,,,,,,,,,,,,,,,,,,,,,,,,,,,,,,,,634.3346995000029,634.3510505000013,634.3510505000013,634.8343021000037,634.8509822999767,637.3341657999845,637.3343447999796,space,1,0.45954209999763407,None,,,,,,,,,,,,,,,,,,,,,,,,nback30,001,2023-12-15_13h21.04.144,untitled,2023.2.3,60.04776199356334,2023-12-15 14h00.34.977556 -0500,
1,"[-0.64, 0.4]",None,,,,,0,23,23,23,,,,,637.3509018999757,,,,,,,,,,,,,,,,,,,,,,,,,,,,,,,,,,,,,,,,,,,,,,637.3352548999828,637.3509018999757,637.3509018999757,637.8342429999902,637.8510583000025,640.3341670999944,640.3343538999907,None,1,,,,,,,,,,,,,,,,,,,,,,,,,,nback30,001,2023-12-15_13h21.04.144,untitled,2023.2.3,60.04776199356334,2023-12-15 14h00.34.977556 -0500,
3,"[0, 0.2]",None,,,,,0,24,24,24,,,,,640.3509740000009,,,,,,,,,,,,,,,,,,,,,,,,,,,,,,,,,,,,,,,,,,,,,,640.335116799979,640.3509740000009,640.3509740000009,640.8341647999769,640.8509051000001,643.334053300001,643.3342094999971,None,1,,,,,,,,,,,,,,,,,,,,,,,,,,nback30,001,2023-12-15_13h21.04.144,untitled,2023.2.3,60.04776199356334,2023-12-15 14h00.34.977556 -0500,
6,"[-0.3, 0]",None,,,,,0,25,25,25,,,,,643.3507941999997,,,,,,,,,,,,,,,,,,,,,,,,,,,,,,,,,,,,,,,,,,,,,,643.3348515999969,643.3507941999997,643.3507941999997,643.8341145000013,643.8508757999807,646.3340735999809,646.334236499999,None,1,,,,,,,,,,,,,,,,,,,,,,,,,,nback30,001,2023-12-15_13h21.04.144,untitled,2023.2.3,60.04776199356334,2023-12-15 14h00.34.977556 -0500,
1,"[-0.64, 0.4]",None,,,,,0,26,26,26,,,,,646.3508709000016,,,,,,,,,,,,,,,,,,,,,,,,,,,,,,,,,,,,,,,,,,,,,,646.3349658999941,646.3508709000016,646.3508709000016,646.833954599977,646.8507341999793,649.3342183999775,649.3344375999877,None,1,,,,,,,,,,,,,,,,,,,,,,,,,,nback30,001,2023-12-15_13h21.04.144,untitled,2023.2.3,60.04776199356334,2023-12-15 14h00.34.977556 -0500,
1,"[-0.64, 0.4]",space,,,,,0,27,27,27,,,,,649.350712399988,,,,,,,,,,,,,,,,,,,,,,,,,,,,,,,,,,,,,,,,,,,,,,649.3353834000009,649.350712399988,649.350712399988,649.8340235999785,649.8506813999848,652.3340170999872,652.3341889999865,space,1,0.5351526000013109,None,,,,,,,,,,,,,,,,,,,,,,,,nback30,001,2023-12-15_13h21.04.144,untitled,2023.2.3,60.04776199356334,2023-12-15 14h00.34.977556 -0500,
1,"[-0.64, 0.4]",space,,,,,0,28,28,28,,,,,652.3506216999958,,,,,,,,,,,,,,,,,,,,,,,,,,,,,,,,,,,,,,,,,,,,,,652.3350094999769,652.3506216999958,652.3506216999958,652.8339699999779,652.8506799000024,655.3339242999791,655.3341233999818,space,1,0.5340337000088766,None,,,,,,,,,,,,,,,,,,,,,,,,nback30,001,2023-12-15_13h21.04.144,untitled,2023.2.3,60.04776199356334,2023-12-15 14h00.34.977556 -0500,
3,"[0, 0.2]",None,,,,,0,29,29,29,,,,,655.3505174999882,,,,,,,,,,,,,,,,,,,,,,,,,,,,,,,,,,,,,,,,,,,,,,655.3351199000026,655.3505174999882,655.3505174999882,655.8340706999879,655.8505849999783,658.334064900002,658.3342860999983,None,1,,,,,,,,,,,,,,,,,,,,,,,,,,nback30,001,2023-12-15_13h21.04.144,untitled,2023.2.3,60.04776199356334,2023-12-15 14h00.34.977556 -0500,
12,"[0.64, -0.4]",None,,,,,0,30,30,30,,,,,658.3505864999897,,,,,,,,,,,,,,,,,,,,,,,,,,,,,,,,,,,,,,,,,,,,,,658.3351353000035,658.3505864999897,658.3505864999897,658.8340099999914,658.8504513999796,661.3340144999966,661.3342009999906,None,1,,,,,,,,,,,,,,,,,,,,,,,,,,nback30,001,2023-12-15_13h21.04.144,untitled,2023.2.3,60.04776199356334,2023-12-15 14h00.34.977556 -0500,
12,"[0.64, -0.4]",space,,,,,0,31,31,31,,,,,661.3504746999824,,,,,,,,,,,,,,,,,,,,,,,,,,,,,,,,,,,,,,,,,,,,,,661.3349575999891,661.3504746999824,661.3504746999824,661.8338298999879,661.8504417999939,664.3338230999943,664.3339962000027,space,1,0.761466299998574,None,,,,,,,,,,,,,,,,,,,,,,,,nback30,001,2023-12-15_13h21.04.144,untitled,2023.2.3,60.04776199356334,2023-12-15 14h00.34.977556 -0500,
2,"[0.64, 0.4]",None,,,,,0,32,32,32,,,,,664.35039159999,,,,,,,,,,,,,,,,,,,,,,,,,,,,,,,,,,,,,,,,,,,,,,664.334879699978,664.35039159999,664.35039159999,664.8339886000031,664.8504236000008,667.3337909999827,667.3339978999866,None,1,,,,,,,,,,,,,,,,,,,,,,,,,,nback30,001,2023-12-15_13h21.04.144,untitled,2023.2.3,60.04776199356334,2023-12-15 14h00.34.977556 -0500,
1,"[-0.64, 0.4]",None,,,,,0,33,33,33,,,,,667.350454999978,,,,,,,,,,,,,,,,,,,,,,,,,,,,,,,,,,,,,,,,,,,,,,667.3349166999978,667.350454999978,667.350454999978,667.833598600002,667.8502401000005,670.333656599978,670.333825299982,None,1,,,,,,,,,,,,,,,,,,,,,,,,,,nback30,001,2023-12-15_13h21.04.144,untitled,2023.2.3,60.04776199356334,2023-12-15 14h00.34.977556 -0500,
7,"[0.3, 0]",None,,,,,0,34,34,34,,,,,670.3504225999932,,,,,,,,,,,,,,,,,,,,,,,,,,,,,,,,,,,,,,,,,,,,,,670.3345545999764,670.3504225999932,670.3504225999932,670.8336185999797,670.8502974000003,673.333725000004,673.3339418999967,None,1,,,,,,,,,,,,,,,,,,,,,,,,,,nback30,001,2023-12-15_13h21.04.144,untitled,2023.2.3,60.04776199356334,2023-12-15 14h00.34.977556 -0500,
7,"[0.3, 0]",space,,,,,0,35,35,35,,,,,673.3504850000027,,,,,,,,,,,,,,,,,,,,,,,,,,,,,,,,,,,,,,,,,,,,,,673.3348441999988,673.3504850000027,673.3504850000027,673.8336911999795,673.8504779999785,676.3336601999763,676.3338458999933,space,1,0.6278368000057526,None,,,,,,,,,,,,,,,,,,,,,,,,nback30,001,2023-12-15_13h21.04.144,untitled,2023.2.3,60.04776199356334,2023-12-15 14h00.34.977556 -0500,
11,"[-0.64, -0.4]",None,,,,,0,36,36,36,,,,,676.3502151999855,,,,,,,,,,,,,,,,,,,,,,,,,,,,,,,,,,,,,,,,,,,,,,676.3348072999797,676.3502151999855,676.3502151999855,676.8335061999969,676.8502151999855,679.3335710999963,679.3337849999953,None,1,,,,,,,,,,,,,,,,,,,,,,,,,,nback30,001,2023-12-15_13h21.04.144,untitled,2023.2.3,60.04776199356334,2023-12-15 14h00.34.977556 -0500,
2,"[0.64, 0.4]",None,,,,,0,37,37,37,,,,,679.3502114999865,,,,,,,,,,,,,,,,,,,,,,,,,,,,,,,,,,,,,,,,,,,,,,679.3346060999902,679.3502114999865,679.3502114999865,679.833478399989,679.8502380999853,682.3335518999957,682.3337312999938,None,1,,,,,,,,,,,,,,,,,,,,,,,,,,nback30,001,2023-12-15_13h21.04.144,untitled,2023.2.3,60.04776199356334,2023-12-15 14h00.34.977556 -0500,
6,"[-0.3, 0]",None,,,,,0,38,38,38,,,,,682.3502390999929,,,,,,,,,,,,,,,,,,,,,,,,,,,,,,,,,,,,,,,,,,,,,,682.3344176999817,682.3502390999929,682.3502390999929,682.833452299994,682.8501305999816,685.3332815000031,685.3333970999811,None,1,,,,,,,,,,,,,,,,,,,,,,,,,,nback30,001,2023-12-15_13h21.04.144,untitled,2023.2.3,60.04776199356334,2023-12-15 14h00.34.977556 -0500,
10,"[0, -0.2]",None,,,,,0,39,39,39,,,,,685.3500015999889,,,,,,,,,,,,,,,,,,,,,,,,,,,,,,,,,,,,,,,,,,,,,,685.3338768999965,685.3500015999889,685.3500015999889,685.8334006999794,685.8499680999957,688.3334228000022,688.3336096999992,None,1,,,,,,,,,,,,,,,,,,,,,,,,,,nback30,001,2023-12-15_13h21.04.144,untitled,2023.2.3,60.04776199356334,2023-12-15 14h00.34.977556 -0500,
,,,,,,,,,,,,,,,,,,,,,,,,,,,,,,,,,,,,,,,,,,,,,,,,,,,,,,,,,,,,,,,,,,,,,,,,688.3341358999896,688.3502216999768,688.3502216999768,710.4686137999815,space,22.116579499997897,None,,,,,,,,,,,,,,,,,nback30,001,2023-12-15_13h21.04.144,untitled,2023.2.3,60.04776199356334,2023-12-15 14h00.34.977556 -0500,
,"[0.2, 0.1]",None,,,,,,,,,0,0,0,0,711.4838271999906,,,,,,,,,,,,,,,,,,,,,,,,710.4686739000026,710.4829075000016,711.4838271999906,711.4673658999964,,,,,,,,,,,,,,,,,,,,,,,,,,,,,,,,,,,,,711.4818741999916,711.4838271999906,711.4838271999906,711.983124499995,711.983124499995,714.4828961000021,714.4828961000021,714.4672009999922,None,1,,,,,,,nback30,001,2023-12-15_13h21.04.144,untitled,2023.2.3,60.04776199356334,2023-12-15 14h00.34.977556 -0500,
,"[0.64, 0.4]",None,,,,,,,,,0,1,1,1,714.4828961000021,,,,,,,,,,,,,,,,,,,,,,,,,,,,,,,,,,,,,,,,,,,,,,,,,,,,,,,,,,,,,,,,714.468220699986,714.4828961000021,714.4828961000021,714.9830002999806,714.9830002999806,717.4828959000006,717.4828959000006,717.4672541999898,None,1,,,,,,,nback30,001,2023-12-15_13h21.04.144,untitled,2023.2.3,60.04776199356334,2023-12-15 14h00.34.977556 -0500,
,"[-0.3, 0]",None,,,,,,,,,0,2,2,2,717.4828959000006,,,,,,,,,,,,,,,,,,,,,,,,,,,,,,,,,,,,,,,,,,,,,,,,,,,,,,,,,,,,,,,,717.467985299998,717.4828959000006,717.4828959000006,717.9830508999876,717.9830508999876,720.4828340999957,720.4828340999957,720.4667821000039,None,1,,,,,,,nback30,001,2023-12-15_13h21.04.144,untitled,2023.2.3,60.04776199356334,2023-12-15 14h00.34.977556 -0500,
,"[0.2, -0.1]",None,,,,,,,,,0,3,3,3,720.4828340999957,,,,,,,,,,,,,,,,,,,,,,,,,,,,,,,,,,,,,,,,,,,,,,,,,,,,,,,,,,,,,,,,720.4673234999937,720.4828340999957,720.4828340999957,720.9828598999884,720.9828598999884,723.4827674999833,723.4827674999833,723.4668649999949,None,1,,,,,,,nback30,001,2023-12-15_13h21.04.144,untitled,2023.2.3,60.04776199356334,2023-12-15 14h00.34.977556 -0500,
,"[0, 0.2]",None,,,,,,,,,0,4,4,4,723.4827674999833,,,,,,,,,,,,,,,,,,,,,,,,,,,,,,,,,,,,,,,,,,,,,,,,,,,,,,,,,,,,,,,,723.46759689998,723.4827674999833,723.4827674999833,723.9829120999784,723.9829120999784,726.4828605999937,726.4828605999937,726.4669873999956,None,1,,,,,,,nback30,001,2023-12-15_13h21.04.144,untitled,2023.2.3,60.04776199356334,2023-12-15 14h00.34.977556 -0500,
,"[0.2, -0.1]",space,,,,,,,,,0,5,5,5,726.4828605999937,,,,,,,,,,,,,,,,,,,,,,,,,,,,,,,,,,,,,,,,,,,,,,,,,,,,,,,,,,,,,,,,726.4677109999757,726.4828605999937,726.4828605999937,726.9828051999793,726.9828051999793,729.4825287999993,729.4825287999993,729.4667738999997,space,1,0.6095987999869976,None,,,,,nback30,001,2023-12-15_13h21.04.144,untitled,2023.2.3,60.04776199356334,2023-12-15 14h00.34.977556 -0500,
,"[0, -0.2]",None,,,,,,,,,0,6,6,6,729.4825287999993,,,,,,,,,,,,,,,,,,,,,,,,,,,,,,,,,,,,,,,,,,,,,,,,,,,,,,,,,,,,,,,,729.4677643000032,729.4825287999993,729.4825287999993,729.9827570999914,729.9827570999914,732.4824503999844,732.4824503999844,732.4667932000011,None,1,,,,,,,nback30,001,2023-12-15_13h21.04.144,untitled,2023.2.3,60.04776199356334,2023-12-15 14h00.34.977556 -0500,
,"[0.64, -0.4]",None,,,,,,,,,0,7,7,7,732.4824503999844,,,,,,,,,,,,,,,,,,,,,,,,,,,,,,,,,,,,,,,,,,,,,,,,,,,,,,,,,,,,,,,,732.4674111999921,732.4824503999844,732.4824503999844,732.9825772999902,732.9825772999902,735.4826294999802,735.4826294999802,735.4670134999906,None,1,,,,,,,nback30,001,2023-12-15_13h21.04.144,untitled,2023.2.3,60.04776199356334,2023-12-15 14h00.34.977556 -0500,
,"[0.3, 0]",None,,,,,,,,,0,8,8,8,735.4826294999802,,,,,,,,,,,,,,,,,,,,,,,,,,,,,,,,,,,,,,,,,,,,,,,,,,,,,,,,,,,,,,,,735.4677241999889,735.4826294999802,735.4826294999802,735.982691799989,735.982691799989,738.4827071999898,738.4827071999898,738.4667642999848,None,1,,,,,,,nback30,001,2023-12-15_13h21.04.144,untitled,2023.2.3,60.04776199356334,2023-12-15 14h00.34.977556 -0500,
,"[0.64, -0.4]",space,,,,,,,,,0,9,9,9,738.4827071999898,,,,,,,,,,,,,,,,,,,,,,,,,,,,,,,,,,,,,,,,,,,,,,,,,,,,,,,,,,,,,,,,738.4674473999767,738.4827071999898,738.4827071999898,738.9825790000032,738.9825790000032,741.4823852999834,741.4823852999834,741.4664636999951,space,1,0.7382854000024963,None,,,,,nback30,001,2023-12-15_13h21.04.144,untitled,2023.2.3,60.04776199356334,2023-12-15 14h00.34.977556 -0500,
,"[-0.64, 0.4]",None,,,,,,,,,0,10,10,10,741.4823852999834,,,,,,,,,,,,,,,,,,,,,,,,,,,,,,,,,,,,,,,,,,,,,,,,,,,,,,,,,,,,,,,,741.4671397999919,741.4823852999834,741.4823852999834,741.9823958999768,741.9823958999768,744.4824528000026,744.4824528000026,744.4663881000015,None,1,,,,,,,nback30,001,2023-12-15_13h21.04.144,untitled,2023.2.3,60.04776199356334,2023-12-15 14h00.34.977556 -0500,
,"[0.2, 0.1]",None,,,,,,,,,0,11,11,11,744.4824528000026,,,,,,,,,,,,,,,,,,,,,,,,,,,,,,,,,,,,,,,,,,,,,,,,,,,,,,,,,,,,,,,,744.4670596999931,744.4824528000026,744.4824528000026,744.982571200002,744.982571200002,747.4824117999815,747.4824117999815,747.4666764999856,None,1,,,,,,,nback30,001,2023-12-15_13h21.04.144,untitled,2023.2.3,60.04776199356334,2023-12-15 14h00.34.977556 -0500,
,"[0.3, 0]",None,,,,,,,,,0,12,12,12,747.4824117999815,,,,,,,,,,,,,,,,,,,,,,,,,,,,,,,,,,,,,,,,,,,,,,,,,,,,,,,,,,,,,,,,747.4673574999906,747.4824117999815,747.4824117999815,747.9824385999818,747.9824385999818,750.4823866999941,750.4823866999941,750.4667279999994,None,1,,,,,,,nback30,001,2023-12-15_13h21.04.144,untitled,2023.2.3,60.04776199356334,2023-12-15 14h00.34.977556 -0500,
,"[0.2, 0.1]",space,,,,,,,,,0,13,13,13,750.4823866999941,,,,,,,,,,,,,,,,,,,,,,,,,,,,,,,,,,,,,,,,,,,,,,,,,,,,,,,,,,,,,,,,750.4675149999966,750.4823866999941,750.4823866999941,750.9823331999942,750.9823331999942,753.4822751999891,753.4822751999891,753.4665667999943,space,1,0.5791155000042636,None,,,,,nback30,001,2023-12-15_13h21.04.144,untitled,2023.2.3,60.04776199356334,2023-12-15 14h00.34.977556 -0500,
,"[-0.3, 0]",None,,,,,,,,,0,14,14,14,753.4822751999891,,,,,,,,,,,,,,,,,,,,,,,,,,,,,,,,,,,,,,,,,,,,,,,,,,,,,,,,,,,,,,,,753.4675959000015,753.4822751999891,753.4822751999891,753.9822321999818,753.9822321999818,756.4821757999889,756.4821757999889,756.4662689999968,None,1,,,,,,,nback30,001,2023-12-15_13h21.04.144,untitled,2023.2.3,60.04776199356334,2023-12-15 14h00.34.977556 -0500,
,"[0, 0.2]",None,,,,,,,,,0,15,15,15,756.4821757999889,,,,,,,,,,,,,,,,,,,,,,,,,,,,,,,,,,,,,,,,,,,,,,,,,,,,,,,,,,,,,,,,756.4668609999935,756.4821757999889,756.4821757999889,756.9823495000019,756.9823495000019,759.4821745999798,759.4821745999798,759.4665956999816,None,1,,,,,,,nback30,001,2023-12-15_13h21.04.144,untitled,2023.2.3,60.04776199356334,2023-12-15 14h00.34.977556 -0500,
,"[-0.3, 0]",space,,,,,,,,,0,16,16,16,759.4821745999798,,,,,,,,,,,,,,,,,,,,,,,,,,,,,,,,,,,,,,,,,,,,,,,,,,,,,,,,,,,,,,,,759.46735609998,759.4821745999798,759.4821745999798,759.9822926999768,759.9822926999768,762.4822035999969,762.4822035999969,762.4663409999921,space,1,0.4483211000042502,None,,,,,nback30,001,2023-12-15_13h21.04.144,untitled,2023.2.3,60.04776199356334,2023-12-15 14h00.34.977556 -0500,
,"[-0.64, -0.4]",None,,,,,,,,,0,17,17,17,762.4822035999969,,,,,,,,,,,,,,,,,,,,,,,,,,,,,,,,,,,,,,,,,,,,,,,,,,,,,,,,,,,,,,,,762.4670842999767,762.4822035999969,762.4822035999969,762.9822095999843,762.9822095999843,765.4821992999932,765.4821992999932,765.4662233999989,None,1,,,,,,,nback30,001,2023-12-15_13h21.04.144,untitled,2023.2.3,60.04776199356334,2023-12-15 14h00.34.977556 -0500,
,"[-0.2, -0.1]",None,,,,,,,,,0,18,18,18,765.4821992999932,,,,,,,,,,,,,,,,,,,,,,,,,,,,,,,,,,,,,,,,,,,,,,,,,,,,,,,,,,,,,,,,765.4668775000027,765.4821992999932,765.4821992999932,765.9819403000001,765.9819403000001,768.4820516000036,768.4820516000036,768.4664954999753,None,1,,,,,,,nback30,001,2023-12-15_13h21.04.144,untitled,2023.2.3,60.04776199356334,2023-12-15 14h00.34.977556 -0500,
,"[0.2, -0.1]",None,,,,,,,,,0,19,19,19,768.4820516000036,,,,,,,,,,,,,,,,,,,,,,,,,,,,,,,,,,,,,,,,,,,,,,,,,,,,,,,,,,,,,,,,768.4673313999956,768.4820516000036,768.4820516000036,768.9821410999866,768.9821410999866,771.4819530999812,771.4819530999812,771.4661675999814,None,1,,,,,,,nback30,001,2023-12-15_13h21.04.144,untitled,2023.2.3,60.04776199356334,2023-12-15 14h00.34.977556 -0500,
,"[0.2, -0.1]",None,,,,,,,,,0,20,20,20,771.4819530999812,,,,,,,,,,,,,,,,,,,,,,,,,,,,,,,,,,,,,,,,,,,,,,,,,,,,,,,,,,,,,,,,771.4667979999795,771.4819530999812,771.4819530999812,771.9819997999875,771.9819997999875,774.48254669999,774.48254669999,774.4662805999978,None,1,,,,,,,nback30,001,2023-12-15_13h21.04.144,untitled,2023.2.3,60.04776199356334,2023-12-15 14h00.34.977556 -0500,
,"[-0.64, 0.4]",None,,,,,,,,,0,21,21,21,774.48254669999,,,,,,,,,,,,,,,,,,,,,,,,,,,,,,,,,,,,,,,,,,,,,,,,,,,,,,,,,,,,,,,,774.4671099999978,774.48254669999,774.48254669999,774.9819062000024,774.9819062000024,777.4819450999785,777.4819450999785,777.4661314999976,None,1,,,,,,,nback30,001,2023-12-15_13h21.04.144,untitled,2023.2.3,60.04776199356334,2023-12-15 14h00.34.977556 -0500,
,"[0, 0.2]",None,,,,,,,,,0,22,22,22,777.4819450999785,,,,,,,,,,,,,,,,,,,,,,,,,,,,,,,,,,,,,,,,,,,,,,,,,,,,,,,,,,,,,,,,777.4668056999799,777.4819450999785,777.4819450999785,777.9818736999878,777.9818736999878,780.4819755999779,780.4819755999779,780.4660356999957,None,1,,,,,,,nback30,001,2023-12-15_13h21.04.144,untitled,2023.2.3,60.04776199356334,2023-12-15 14h00.34.977556 -0500,
,"[0.64, -0.4]",None,,,,,,,,,0,23,23,23,780.4819755999779,,,,,,,,,,,,,,,,,,,,,,,,,,,,,,,,,,,,,,,,,,,,,,,,,,,,,,,,,,,,,,,,780.4667290999787,780.4819755999779,780.4819755999779,780.9819584999932,780.9819584999932,783.4817776999844,783.4817776999844,783.4657692000037,None,1,,,,,,,nback30,001,2023-12-15_13h21.04.144,untitled,2023.2.3,60.04776199356334,2023-12-15 14h00.34.977556 -0500,
,"[0, 0.2]",space,,,,,,,,,0,24,24,24,783.4817776999844,,,,,,,,,,,,,,,,,,,,,,,,,,,,,,,,,,,,,,,,,,,,,,,,,,,,,,,,,,,,,,,,783.466445099999,783.4817776999844,783.4817776999844,783.98170199999,783.98170199999,786.4817043999792,786.4817043999792,786.4655131999752,space,1,0.7542440999823157,None,,,,,nback30,001,2023-12-15_13h21.04.144,untitled,2023.2.3,60.04776199356334,2023-12-15 14h00.34.977556 -0500,
,"[-0.2, 0.1]",None,,,,,,,,,0,25,25,25,786.4817043999792,,,,,,,,,,,,,,,,,,,,,,,,,,,,,,,,,,,,,,,,,,,,,,,,,,,,,,,,,,,,,,,,786.4662060999835,786.4817043999792,786.4817043999792,786.9816804000002,786.9816804000002,789.4814850999974,789.4814850999974,789.4669572999992,None,1,,,,,,,nback30,001,2023-12-15_13h21.04.144,untitled,2023.2.3,60.04776199356334,2023-12-15 14h00.34.977556 -0500,
,"[0.3, 0]",None,,,,,,,,,0,26,26,26,789.4814850999974,,,,,,,,,,,,,,,,,,,,,,,,,,,,,,,,,,,,,,,,,,,,,,,,,,,,,,,,,,,,,,,,789.467521899991,789.4814850999974,789.4814850999974,789.9814873999858,789.9814873999858,792.4815836999915,792.4815836999915,792.4659673999995,None,1,,,,,,,nback30,001,2023-12-15_13h21.04.144,untitled,2023.2.3,60.04776199356334,2023-12-15 14h00.34.977556 -0500,
,"[-0.2, 0.1]",space,,,,,,,,,0,27,27,27,792.4815836999915,,,,,,,,,,,,,,,,,,,,,,,,,,,,,,,,,,,,,,,,,,,,,,,,,,,,,,,,,,,,,,,,792.4667619999964,792.4815836999915,792.4815836999915,792.9817091999867,792.9817091999867,795.4814630000037,795.4814630000037,795.465409299999,space,1,0.4801785000017844,None,,,,,nback30,001,2023-12-15_13h21.04.144,untitled,2023.2.3,60.04776199356334,2023-12-15 14h00.34.977556 -0500,
,"[-0.2, 0.1]",None,,,,,,,,,0,28,28,28,795.4814630000037,,,,,,,,,,,,,,,,,,,,,,,,,,,,,,,,,,,,,,,,,,,,,,,,,,,,,,,,,,,,,,,,795.4659817999927,795.4814630000037,795.4814630000037,795.9815690999967,795.9815690999967,798.4814941999794,798.4814941999794,798.4658594999928,None,1,,,,,,,nback30,001,2023-12-15_13h21.04.144,untitled,2023.2.3,60.04776199356334,2023-12-15 14h00.34.977556 -0500,
,"[0.2, 0.1]",None,,,,,,,,,0,29,29,29,798.4814941999794,,,,,,,,,,,,,,,,,,,,,,,,,,,,,,,,,,,,,,,,,,,,,,,,,,,,,,,,,,,,,,,,798.4666056999995,798.4814941999794,798.4814941999794,798.9813272999891,798.9813272999891,801.4813031999802,801.4813031999802,801.4656979999854,None,1,,,,,,,nback30,001,2023-12-15_13h21.04.144,untitled,2023.2.3,60.04776199356334,2023-12-15 14h00.34.977556 -0500,
,"[-0.64, -0.4]",None,,,,,,,,,0,30,30,30,801.4813031999802,,,,,,,,,,,,,,,,,,,,,,,,,,,,,,,,,,,,,,,,,,,,,,,,,,,,,,,,,,,,,,,,801.4664189000032,801.4813031999802,801.4813031999802,801.9814216999803,801.9814216999803,804.4816127999802,804.4816127999802,804.465793499985,None,1,,,,,,,nback30,001,2023-12-15_13h21.04.144,untitled,2023.2.3,60.04776199356334,2023-12-15 14h00.34.977556 -0500,
,"[0, -0.2]",None,,,,,,,,,0,31,31,31,804.4816127999802,,,,,,,,,,,,,,,,,,,,,,,,,,,,,,,,,,,,,,,,,,,,,,,,,,,,,,,,,,,,,,,,804.4665663999913,804.4816127999802,804.4816127999802,804.9813128999958,804.9813128999958,807.4813368000032,807.4813368000032,807.4655831999844,None,1,,,,,,,nback30,001,2023-12-15_13h21.04.144,untitled,2023.2.3,60.04776199356334,2023-12-15 14h00.34.977556 -0500,
,"[-0.64, -0.4]",space,,,,,,,,,0,32,32,32,807.4813368000032,,,,,,,,,,,,,,,,,,,,,,,,,,,,,,,,,,,,,,,,,,,,,,,,,,,,,,,,,,,,,,,,807.466290899989,807.4813368000032,807.4813368000032,807.9811160999816,807.9811160999816,810.4812375999754,810.4812375999754,810.4654931999976,space,1,0.5793617999879643,None,,,,,nback30,001,2023-12-15_13h21.04.144,untitled,2023.2.3,60.04776199356334,2023-12-15 14h00.34.977556 -0500,
,"[0.64, 0.4]",None,,,,,,,,,0,33,33,33,810.4812375999754,,,,,,,,,,,,,,,,,,,,,,,,,,,,,,,,,,,,,,,,,,,,,,,,,,,,,,,,,,,,,,,,810.466340199986,810.4812375999754,810.4812375999754,810.9811612999765,810.9811612999765,813.4812577999837,813.4812577999837,813.4653935999959,None,1,,,,,,,nback30,001,2023-12-15_13h21.04.144,untitled,2023.2.3,60.04776199356334,2023-12-15 14h00.34.977556 -0500,
,"[-0.3, 0]",None,,,,,,,,,0,34,34,34,813.4812577999837,,,,,,,,,,,,,,,,,,,,,,,,,,,,,,,,,,,,,,,,,,,,,,,,,,,,,,,,,,,,,,,,813.4660138999752,813.4812577999837,813.4812577999837,813.9813718999794,813.9813718999794,816.4811086999835,816.4811086999835,816.4650356999773,None,1,,,,,,,nback30,001,2023-12-15_13h21.04.144,untitled,2023.2.3,60.04776199356334,2023-12-15 14h00.34.977556 -0500,
,"[0.3, 0]",None,,,,,,,,,0,35,35,35,816.4811086999835,,,,,,,,,,,,,,,,,,,,,,,,,,,,,,,,,,,,,,,,,,,,,,,,,,,,,,,,,,,,,,,,816.4655909999856,816.4811086999835,816.4811086999835,816.9810660999792,816.9810660999792,819.481308699993,819.481308699993,819.4655300999875,None,1,,,,,,,nback30,001,2023-12-15_13h21.04.144,untitled,2023.2.3,60.04776199356334,2023-12-15 14h00.34.977556 -0500,
,"[-0.3, 0]",space,,,,,,,,,0,36,36,36,819.481308699993,,,,,,,,,,,,,,,,,,,,,,,,,,,,,,,,,,,,,,,,,,,,,,,,,,,,,,,,,,,,,,,,819.4663064999913,819.481308699993,819.481308699993,819.9811707999907,819.9811707999907,822.4811375999998,822.4811375999998,822.4650344999973,space,1,0.3509208000032231,None,,,,,nback30,001,2023-12-15_13h21.04.144,untitled,2023.2.3,60.04776199356334,2023-12-15 14h00.34.977556 -0500,
,"[0, -0.2]",None,,,,,,,,,0,37,37,37,822.4811375999998,,,,,,,,,,,,,,,,,,,,,,,,,,,,,,,,,,,,,,,,,,,,,,,,,,,,,,,,,,,,,,,,822.4658488999994,822.4811375999998,822.4811375999998,822.9811100999941,822.9811100999941,825.4811963999819,825.4811963999819,825.4651607999986,None,1,,,,,,,nback30,001,2023-12-15_13h21.04.144,untitled,2023.2.3,60.04776199356334,2023-12-15 14h00.34.977556 -0500,
,"[0.3, 0]",None,,,,,,,,,0,38,38,38,825.4811963999819,,,,,,,,,,,,,,,,,,,,,,,,,,,,,,,,,,,,,,,,,,,,,,,,,,,,,,,,,,,,,,,,825.4658217999968,825.4811963999819,825.4811963999819,825.9810248999856,825.9810248999856,828.4809540999995,828.4809540999995,828.4652398999897,None,1,,,,,,,nback30,001,2023-12-15_13h21.04.144,untitled,2023.2.3,60.04776199356334,2023-12-15 14h00.34.977556 -0500,
,"[0.2, 0.1]",None,,,,,,,,,0,39,39,39,828.4809540999995,,,,,,,,,,,,,,,,,,,,,,,,,,,,,,,,,,,,,,,,,,,,,,,,,,,,,,,,,,,,,,,,828.4659706999955,828.4809540999995,828.4809540999995,828.9810221999942,828.9810221999942,831.481049199996,831.481049199996,831.4650989999936,None,1,,,,,,,nback30,001,2023-12-15_13h21.04.144,untitled,2023.2.3,60.04776199356334,2023-12-15 14h00.34.977556 -0500,
,,,,,,,,,,,,,,,,,,,,,,,,,,,,,,,,,,,,,,,,,,,,,,,,,,,,,,,,,,,,,,,,,,,,,,,,,,,,,,,,,,,,,,,,,,,831.4655142999836,831.481049199996,834.480829099979,834.4651786999893,,,,,,,,
