square,location,corrAns,trials_0.thisRepN,trials_0.thisTrialN,trials_0.thisN,trials_0.thisIndex,trials_1.thisRepN,trials_1.thisTrialN,trials_1.thisN,trials_1.thisIndex,trials_2.thisRepN,trials_2.thisTrialN,trials_2.thisN,trials_2.thisIndex,thisRow.t,notes,Instructions.started,instructions.started,key_resp.started,inst_sq11.started,Instructions.stopped,key_resp.keys,key_resp.rt,key_resp.duration,All.started,sq_1.started,sq_2.started,sq_3.started,sq_4.started,sq_5.started,sq_6.started,sq_7.started,sq_8.started,sq_9.started,sq_10.started,sq_11.started,sq_12.started,All.stopped,Fixation.started,fixation_3.started,fixation_3.stopped,Fixation.stopped,N_back_0_Trial.started,target_square_0.started,response_0.started,fixation_0.started,target_square_0.stopped,fixation_0.stopped,response_0.stopped,N_back_0_Trial.stopped,response_0.keys,response_0.corr,response_0.rt,response_0.duration,Instructions_1.started,instructions_1.started,key_resp_1.started,Instructions_1.stopped,key_resp_1.keys,key_resp_1.rt,key_resp_1.duration,N_back_1_Trial.started,target_square_1.started,response_1.started,target_square_1.stopped,fixation_1.started,fixation_1.stopped,response_1.stopped,N_back_1_Trial.stopped,response_1.keys,response_1.corr,response_1.rt,response_1.duration,Instructions_2.started,instructions_2.started,key_resp_2.started,Instructions_2.stopped,key_resp_2.keys,key_resp_2.rt,key_resp_2.duration,N_back_2_trials.started,target_square_2.started,response_2.started,target_square_2.stopped,fixation_2.started,fixation_2.stopped,response_2.stopped,N_back_2_trials.stopped,response_2.keys,response_2.corr,response_2.rt,response_2.duration,End.started,thank_you.started,thank_you.stopped,End.stopped,participant,session,date,expName,psychopyVersion,frameRate,expStart,Unnamed: 104
,,,,,,,,,,,,,,,,,0.0015140000000428,0.0044299999999566,0.0044299999999566,0.0044299999999566,900.3394398999999,space,900.3195700000001,None,,,,,,,,,,,,,,,,,,,,,,,,,,,,,,,,,,,,,,,,,,,,,,,,,,,,,,,,,,,,,,,,,,,,,,,,,nback31,1.0,2023-12-15_15h56.47.539,untitled,2023.2.3,59.98199340556101,2023-12-15 16h27.19.532779 -0500,
6.0,"[-0.3, 0]",None,0.0,0.0,0.0,0.0,,,,,,,,,902.3549277000002,,,,,,,,,,900.3394818000002,900.3549584000002,900.3549584000002,900.3549584000002,900.3549584000002,900.3549584000002,900.3549584000002,900.3549584000002,900.3549584000002,900.3549584000002,900.3549584000002,900.3549584000002,900.3549584000002,901.3388463,901.3388629,901.3549558,902.3549277000002,902.3390346,902.3518525999998,902.3549277000002,902.3549277000002,902.8383954,902.8549656,905.3381949999998,905.3550765999998,905.3390537,None,1.0,,,,,,,,,,,,,,,,,,,,,,,,,,,,,,,,,,,,,,,,,,,,,nback31,1.0,2023-12-15_15h56.47.539,untitled,2023.2.3,59.98199340556101,2023-12-15 16h27.19.532779 -0500,
10.0,"[0, -0.2]",None,0.0,1.0,1.0,1.0,,,,,,,,,905.3550765999998,,,,,,,,,,,,,,,,,,,,,,,,,,,,905.3399969000002,905.3550765999998,905.3550765999998,905.8383672999998,905.8549584000002,908.3379776000002,908.3548099,908.3384326,None,1.0,,,,,,,,,,,,,,,,,,,,,,,,,,,,,,,,,,,,,,,,,,,,,nback31,1.0,2023-12-15_15h56.47.539,untitled,2023.2.3,59.98199340556101,2023-12-15 16h27.19.532779 -0500,
11.0,"[-0.64, -0.4]",space,0.0,2.0,2.0,2.0,,,,,,,,,908.3548099,,,,,,,,,,,,,,,,,,,,,,,,,,,,908.3387969,908.3548099,908.3548099,908.8382351,908.8549174,911.3383251,911.3547058,911.3393265999998,space,1.0,0.4332050000002709,None,,,,,,,,,,,,,,,,,,,,,,,,,,,,,,,,,,,,,,,,,,,nback31,1.0,2023-12-15_15h56.47.539,untitled,2023.2.3,59.98199340556101,2023-12-15 16h27.19.532779 -0500,
12.0,"[0.64, -0.4]",None,0.0,3.0,3.0,3.0,,,,,,,,,911.3547058,,,,,,,,,,,,,,,,,,,,,,,,,,,,911.3405549,911.3547058,911.3547058,911.838197,911.8547881,914.3380302,914.3546646,914.3389524,None,1.0,,,,,,,,,,,,,,,,,,,,,,,,,,,,,,,,,,,,,,,,,,,,,nback31,1.0,2023-12-15_15h56.47.539,untitled,2023.2.3,59.98199340556101,2023-12-15 16h27.19.532779 -0500,
1.0,"[-0.64, 0.4]",None,0.0,4.0,4.0,4.0,,,,,,,,,914.3546646,,,,,,,,,,,,,,,,,,,,,,,,,,,,914.3396891000002,914.3546646,914.3546646,914.8380846,914.8547403000002,917.3381568,917.3547407,917.3389545,None,1.0,,,,,,,,,,,,,,,,,,,,,,,,,,,,,,,,,,,,,,,,,,,,,nback31,1.0,2023-12-15_15h56.47.539,untitled,2023.2.3,59.98199340556101,2023-12-15 16h27.19.532779 -0500,
1.0,"[-0.64, 0.4]",None,0.0,5.0,5.0,5.0,,,,,,,,,917.3547407,,,,,,,,,,,,,,,,,,,,,,,,,,,,917.339603,917.3547407,917.3547407,917.8379645,917.8546443,920.3380553000002,920.3547607,920.3388616000002,None,1.0,,,,,,,,,,,,,,,,,,,,,,,,,,,,,,,,,,,,,,,,,,,,,nback31,1.0,2023-12-15_15h56.47.539,untitled,2023.2.3,59.98199340556101,2023-12-15 16h27.19.532779 -0500,
4.0,"[-0.2, 0.1]",None,0.0,6.0,6.0,6.0,,,,,,,,,920.3547607,,,,,,,,,,,,,,,,,,,,,,,,,,,,920.3395739000002,920.3547607,920.3547607,920.8381113,920.8546643,923.3379301,923.3547146,923.3386385,None,1.0,,,,,,,,,,,,,,,,,,,,,,,,,,,,,,,,,,,,,,,,,,,,,nback31,1.0,2023-12-15_15h56.47.539,untitled,2023.2.3,59.98199340556101,2023-12-15 16h27.19.532779 -0500,
5.0,"[0.2, 0.1]",None,0.0,7.0,7.0,7.0,,,,,,,,,923.3547146,,,,,,,,,,,,,,,,,,,,,,,,,,,,923.339352,923.3547146,923.3547146,923.8379005000002,923.8545128,926.3379490000002,926.3544225,926.3387122,None,1.0,,,,,,,,,,,,,,,,,,,,,,,,,,,,,,,,,,,,,,,,,,,,,nback31,1.0,2023-12-15_15h56.47.539,untitled,2023.2.3,59.98199340556101,2023-12-15 16h27.19.532779 -0500,
11.0,"[-0.64, -0.4]",space,0.0,8.0,8.0,8.0,,,,,,,,,926.3544225,,,,,,,,,,,,,,,,,,,,,,,,,,,,926.3394257,926.3544225,926.3544225,926.8378272999998,926.8545085,929.3378739999998,929.3545011,929.3386264,space,1.0,0.4345704000002115,None,,,,,,,,,,,,,,,,,,,,,,,,,,,,,,,,,,,,,,,,,,,nback31,1.0,2023-12-15_15h56.47.539,untitled,2023.2.3,59.98199340556101,2023-12-15 16h27.19.532779 -0500,
9.0,"[0.2, -0.1]",None,0.0,9.0,9.0,9.0,,,,,,,,,929.3545011,,,,,,,,,,,,,,,,,,,,,,,,,,,,929.3393397999998,929.3545011,929.3545011,929.8377841,929.8544621,932.3378014,932.3543639999998,932.3387576,None,1.0,,,,,,,,,,,,,,,,,,,,,,,,,,,,,,,,,,,,,,,,,,,,,nback31,1.0,2023-12-15_15h56.47.539,untitled,2023.2.3,59.98199340556101,2023-12-15 16h27.19.532779 -0500,
8.0,"[-0.2, -0.1]",None,0.0,10.0,10.0,10.0,,,,,,,,,932.3543639999998,,,,,,,,,,,,,,,,,,,,,,,,,,,,932.3394945,932.3543639999998,932.3543639999998,932.854563,932.854563,935.3544042,935.3544042,935.3386492999998,None,1.0,,,,,,,,,,,,,,,,,,,,,,,,,,,,,,,,,,,,,,,,,,,,,nback31,1.0,2023-12-15_15h56.47.539,untitled,2023.2.3,59.98199340556101,2023-12-15 16h27.19.532779 -0500,
9.0,"[0.2, -0.1]",None,0.0,11.0,11.0,11.0,,,,,,,,,935.3544042,,,,,,,,,,,,,,,,,,,,,,,,,,,,935.3392557000002,935.3544042,935.3544042,935.8544519000002,935.8544519000002,938.3543755,938.3543755,938.3382815,None,1.0,,,,,,,,,,,,,,,,,,,,,,,,,,,,,,,,,,,,,,,,,,,,,nback31,1.0,2023-12-15_15h56.47.539,untitled,2023.2.3,59.98199340556101,2023-12-15 16h27.19.532779 -0500,
6.0,"[-0.3, 0]",None,0.0,12.0,12.0,12.0,,,,,,,,,938.3543755,,,,,,,,,,,,,,,,,,,,,,,,,,,,938.3387463,938.3543755,938.3543755,938.8543802,938.8543802,941.3541495,941.3541495,941.3385042,None,1.0,,,,,,,,,,,,,,,,,,,,,,,,,,,,,,,,,,,,,,,,,,,,,nback31,1.0,2023-12-15_15h56.47.539,untitled,2023.2.3,59.98199340556101,2023-12-15 16h27.19.532779 -0500,
9.0,"[0.2, -0.1]",None,0.0,13.0,13.0,13.0,,,,,,,,,941.3541495,,,,,,,,,,,,,,,,,,,,,,,,,,,,941.3392186,941.3541495,941.3541495,941.8543918,941.8543918,944.3541679,944.3541679,944.3382858,None,1.0,,,,,,,,,,,,,,,,,,,,,,,,,,,,,,,,,,,,,,,,,,,,,nback31,1.0,2023-12-15_15h56.47.539,untitled,2023.2.3,59.98199340556101,2023-12-15 16h27.19.532779 -0500,
7.0,"[0.3, 0]",None,0.0,14.0,14.0,14.0,,,,,,,,,944.3541679,,,,,,,,,,,,,,,,,,,,,,,,,,,,944.3388999,944.3541679,944.3541679,944.8541918,944.8541918,947.3542100999998,947.3542100999998,947.3382926,None,1.0,,,,,,,,,,,,,,,,,,,,,,,,,,,,,,,,,,,,,,,,,,,,,nback31,1.0,2023-12-15_15h56.47.539,untitled,2023.2.3,59.98199340556101,2023-12-15 16h27.19.532779 -0500,
2.0,"[0.64, 0.4]",None,0.0,15.0,15.0,15.0,,,,,,,,,947.3542100999998,,,,,,,,,,,,,,,,,,,,,,,,,,,,947.3389465,947.3542100999998,947.3542100999998,947.8541013,947.8541013,950.3540641999998,950.3540641999998,950.3382680999998,None,1.0,,,,,,,,,,,,,,,,,,,,,,,,,,,,,,,,,,,,,,,,,,,,,nback31,1.0,2023-12-15_15h56.47.539,untitled,2023.2.3,59.98199340556101,2023-12-15 16h27.19.532779 -0500,
2.0,"[0.64, 0.4]",None,0.0,16.0,16.0,16.0,,,,,,,,,950.3540641999998,,,,,,,,,,,,,,,,,,,,,,,,,,,,950.3389258000002,950.3540641999998,950.3540641999998,950.8539593,950.8539593,953.3540416,953.3540416,953.3383657,None,1.0,,,,,,,,,,,,,,,,,,,,,,,,,,,,,,,,,,,,,,,,,,,,,nback31,1.0,2023-12-15_15h56.47.539,untitled,2023.2.3,59.98199340556101,2023-12-15 16h27.19.532779 -0500,
11.0,"[-0.64, -0.4]",space,0.0,17.0,17.0,17.0,,,,,,,,,953.3540416,,,,,,,,,,,,,,,,,,,,,,,,,,,,953.3390253000002,953.3540416,953.3540416,953.8540711,953.8540711,956.3539451,956.3539451,956.3381331,space,1.0,0.3724211000003379,None,,,,,,,,,,,,,,,,,,,,,,,,,,,,,,,,,,,,,,,,,,,nback31,1.0,2023-12-15_15h56.47.539,untitled,2023.2.3,59.98199340556101,2023-12-15 16h27.19.532779 -0500,
11.0,"[-0.64, -0.4]",space,0.0,18.0,18.0,18.0,,,,,,,,,956.3539451,,,,,,,,,,,,,,,,,,,,,,,,,,,,956.3389734000002,956.3539451,956.3539451,956.8539286,956.8539286,959.3540025000002,959.3540025000002,959.3382216,space,1.0,0.4879995000001145,None,,,,,,,,,,,,,,,,,,,,,,,,,,,,,,,,,,,,,,,,,,,nback31,1.0,2023-12-15_15h56.47.539,untitled,2023.2.3,59.98199340556101,2023-12-15 16h27.19.532779 -0500,
7.0,"[0.3, 0]",None,0.0,19.0,19.0,19.0,,,,,,,,,959.3540025000002,,,,,,,,,,,,,,,,,,,,,,,,,,,,959.3390591000002,959.3540025000002,959.3540025000002,959.8539867,959.8539867,962.3540379,962.3540379,962.3379023000002,None,1.0,,,,,,,,,,,,,,,,,,,,,,,,,,,,,,,,,,,,,,,,,,,,,nback31,1.0,2023-12-15_15h56.47.539,untitled,2023.2.3,59.98199340556101,2023-12-15 16h27.19.532779 -0500,
3.0,"[0, 0.2]",None,0.0,20.0,20.0,20.0,,,,,,,,,962.3540379,,,,,,,,,,,,,,,,,,,,,,,,,,,,962.3384658999998,962.3540379,962.3540379,962.8538954,962.8538954,965.3538460999998,965.3538460999998,965.3378604999998,None,1.0,,,,,,,,,,,,,,,,,,,,,,,,,,,,,,,,,,,,,,,,,,,,,nback31,1.0,2023-12-15_15h56.47.539,untitled,2023.2.3,59.98199340556101,2023-12-15 16h27.19.532779 -0500,
10.0,"[0, -0.2]",None,0.0,21.0,21.0,21.0,,,,,,,,,965.3538460999998,,,,,,,,,,,,,,,,,,,,,,,,,,,,965.3384728,965.3538460999998,965.3538460999998,965.8537989,965.8537989,968.3535993,968.3535993,968.3376114000002,None,1.0,,,,,,,,,,,,,,,,,,,,,,,,,,,,,,,,,,,,,,,,,,,,,nback31,1.0,2023-12-15_15h56.47.539,untitled,2023.2.3,59.98199340556101,2023-12-15 16h27.19.532779 -0500,
1.0,"[-0.64, 0.4]",None,0.0,22.0,22.0,22.0,,,,,,,,,968.3535993,,,,,,,,,,,,,,,,,,,,,,,,,,,,968.3380504000002,968.3535993,968.3535993,968.8537269,968.8537269,971.3537253,971.3537253,971.3377395000002,None,1.0,,,,,,,,,,,,,,,,,,,,,,,,,,,,,,,,,,,,,,,,,,,,,nback31,1.0,2023-12-15_15h56.47.539,untitled,2023.2.3,59.98199340556101,2023-12-15 16h27.19.532779 -0500,
2.0,"[0.64, 0.4]",None,0.0,23.0,23.0,23.0,,,,,,,,,971.3537253,,,,,,,,,,,,,,,,,,,,,,,,,,,,971.3384066,971.3537253,971.3537253,971.8536243,971.8536243,974.3537542,974.3537542,974.3377934,None,1.0,,,,,,,,,,,,,,,,,,,,,,,,,,,,,,,,,,,,,,,,,,,,,nback31,1.0,2023-12-15_15h56.47.539,untitled,2023.2.3,59.98199340556101,2023-12-15 16h27.19.532779 -0500,
6.0,"[-0.3, 0]",None,0.0,24.0,24.0,24.0,,,,,,,,,974.3537542,,,,,,,,,,,,,,,,,,,,,,,,,,,,974.3384357999998,974.3537542,974.3537542,974.8534956,974.8534956,977.3535701,977.3535701,977.3381342000002,None,1.0,,,,,,,,,,,,,,,,,,,,,,,,,,,,,,,,,,,,,,,,,,,,,nback31,1.0,2023-12-15_15h56.47.539,untitled,2023.2.3,59.98199340556101,2023-12-15 16h27.19.532779 -0500,
3.0,"[0, 0.2]",None,0.0,25.0,25.0,25.0,,,,,,,,,977.3535701,,,,,,,,,,,,,,,,,,,,,,,,,,,,977.3388633999998,977.3535701,977.3535701,977.8533948,977.8533948,980.3535633,980.3535633,980.3375277,None,1.0,,,,,,,,,,,,,,,,,,,,,,,,,,,,,,,,,,,,,,,,,,,,,nback31,1.0,2023-12-15_15h56.47.539,untitled,2023.2.3,59.98199340556101,2023-12-15 16h27.19.532779 -0500,
11.0,"[-0.64, -0.4]",space,0.0,26.0,26.0,26.0,,,,,,,,,980.3535633,,,,,,,,,,,,,,,,,,,,,,,,,,,,980.3381809000002,980.3535633,980.3535633,980.8533802000002,980.8533802000002,983.3533874999998,983.3533874999998,983.3377408,space,1.0,0.4142606999998861,None,,,,,,,,,,,,,,,,,,,,,,,,,,,,,,,,,,,,,,,,,,,nback31,1.0,2023-12-15_15h56.47.539,untitled,2023.2.3,59.98199340556101,2023-12-15 16h27.19.532779 -0500,
1.0,"[-0.64, 0.4]",None,0.0,27.0,27.0,27.0,,,,,,,,,983.3533874999998,,,,,,,,,,,,,,,,,,,,,,,,,,,,983.3384703000002,983.3533874999998,983.3533874999998,983.8535472,983.8535472,986.353446,986.353446,986.3374436,None,1.0,,,,,,,,,,,,,,,,,,,,,,,,,,,,,,,,,,,,,,,,,,,,,nback31,1.0,2023-12-15_15h56.47.539,untitled,2023.2.3,59.98199340556101,2023-12-15 16h27.19.532779 -0500,
3.0,"[0, 0.2]",None,0.0,28.0,28.0,28.0,,,,,,,,,986.353446,,,,,,,,,,,,,,,,,,,,,,,,,,,,986.3380017999998,986.353446,986.353446,986.8536415,986.8536415,989.3536164000002,989.3536164000002,989.3378914999998,None,1.0,,,,,,,,,,,,,,,,,,,,,,,,,,,,,,,,,,,,,,,,,,,,,nback31,1.0,2023-12-15_15h56.47.539,untitled,2023.2.3,59.98199340556101,2023-12-15 16h27.19.532779 -0500,
9.0,"[0.2, -0.1]",None,0.0,29.0,29.0,29.0,,,,,,,,,989.3536164000002,,,,,,,,,,,,,,,,,,,,,,,,,,,,989.3386801,989.3536164000002,989.3536164000002,989.8534344,989.8534344,992.3533044,992.3533044,992.3373306,None,1.0,,,,,,,,,,,,,,,,,,,,,,,,,,,,,,,,,,,,,,,,,,,,,nback31,1.0,2023-12-15_15h56.47.539,untitled,2023.2.3,59.98199340556101,2023-12-15 16h27.19.532779 -0500,
8.0,"[-0.2, -0.1]",None,0.0,30.0,30.0,30.0,,,,,,,,,992.3533044,,,,,,,,,,,,,,,,,,,,,,,,,,,,992.3379714000002,992.3533044,992.3533044,992.8534215,992.8534215,995.3534362,995.3534362,995.3375704,None,1.0,,,,,,,,,,,,,,,,,,,,,,,,,,,,,,,,,,,,,,,,,,,,,nback31,1.0,2023-12-15_15h56.47.539,untitled,2023.2.3,59.98199340556101,2023-12-15 16h27.19.532779 -0500,
12.0,"[0.64, -0.4]",None,0.0,31.0,31.0,31.0,,,,,,,,,995.3534362,,,,,,,,,,,,,,,,,,,,,,,,,,,,995.3381965,995.3534362,995.3534362,995.8531681,995.8531681,998.35349,998.35349,998.3372786,None,1.0,,,,,,,,,,,,,,,,,,,,,,,,,,,,,,,,,,,,,,,,,,,,,nback31,1.0,2023-12-15_15h56.47.539,untitled,2023.2.3,59.98199340556101,2023-12-15 16h27.19.532779 -0500,
9.0,"[0.2, -0.1]",None,0.0,32.0,32.0,32.0,,,,,,,,,998.35349,,,,,,,,,,,,,,,,,,,,,,,,,,,,998.3378782999998,998.35349,998.35349,998.8533419,998.8533419,1001.3530581,1001.3530581,1001.337218,None,1.0,,,,,,,,,,,,,,,,,,,,,,,,,,,,,,,,,,,,,,,,,,,,,nback31,1.0,2023-12-15_15h56.47.539,untitled,2023.2.3,59.98199340556101,2023-12-15 16h27.19.532779 -0500,
11.0,"[-0.64, -0.4]",space,0.0,33.0,33.0,33.0,,,,,,,,,1001.3530581,,,,,,,,,,,,,,,,,,,,,,,,,,,,1001.3377517,1001.3530581,1001.3530581,1001.8532592,1001.8532592,1004.3531208,1004.3531208,1004.3373574000002,space,1.0,0.3911988999998357,None,,,,,,,,,,,,,,,,,,,,,,,,,,,,,,,,,,,,,,,,,,,nback31,1.0,2023-12-15_15h56.47.539,untitled,2023.2.3,59.98199340556101,2023-12-15 16h27.19.532779 -0500,
7.0,"[0.3, 0]",None,0.0,34.0,34.0,34.0,,,,,,,,,1004.3531208,,,,,,,,,,,,,,,,,,,,,,,,,,,,1004.3380900000002,1004.3531208,1004.3531208,1004.8532525,1004.8532525,1007.3529617,1007.3529617,1007.3372657,None,1.0,,,,,,,,,,,,,,,,,,,,,,,,,,,,,,,,,,,,,,,,,,,,,nback31,1.0,2023-12-15_15h56.47.539,untitled,2023.2.3,59.98199340556101,2023-12-15 16h27.19.532779 -0500,
11.0,"[-0.64, -0.4]",space,0.0,35.0,35.0,35.0,,,,,,,,,1007.3529617,,,,,,,,,,,,,,,,,,,,,,,,,,,,1007.3378828,1007.3529617,1007.3529617,1007.8532611,1007.8532611,1010.3531502,1010.3531502,1010.3376408,space,1.0,0.4005322999996679,None,,,,,,,,,,,,,,,,,,,,,,,,,,,,,,,,,,,,,,,,,,,nback31,1.0,2023-12-15_15h56.47.539,untitled,2023.2.3,59.98199340556101,2023-12-15 16h27.19.532779 -0500,
4.0,"[-0.2, 0.1]",None,0.0,36.0,36.0,36.0,,,,,,,,,1010.3531502,,,,,,,,,,,,,,,,,,,,,,,,,,,,1010.3387056,1010.3531502,1010.3531502,1010.8530578,1010.8530578,1013.3532191,1013.3532191,1013.3371049000002,None,1.0,,,,,,,,,,,,,,,,,,,,,,,,,,,,,,,,,,,,,,,,,,,,,nback31,1.0,2023-12-15_15h56.47.539,untitled,2023.2.3,59.98199340556101,2023-12-15 16h27.19.532779 -0500,
5.0,"[0.2, 0.1]",None,0.0,37.0,37.0,37.0,,,,,,,,,1013.3532191,,,,,,,,,,,,,,,,,,,,,,,,,,,,1013.3376846,1013.3532191,1013.3532191,1013.8530142999998,1013.8530142999998,1016.3529791,1016.3529791,1016.337106,None,1.0,,,,,,,,,,,,,,,,,,,,,,,,,,,,,,,,,,,,,,,,,,,,,nback31,1.0,2023-12-15_15h56.47.539,untitled,2023.2.3,59.98199340556101,2023-12-15 16h27.19.532779 -0500,
6.0,"[-0.3, 0]",None,0.0,38.0,38.0,38.0,,,,,,,,,1016.3529791,,,,,,,,,,,,,,,,,,,,,,,,,,,,1016.3377075,1016.3529791,1016.3529791,1016.8530363999998,1016.8530363999998,1019.3529669999998,1019.3529669999998,1019.3371152999998,None,1.0,,,,,,,,,,,,,,,,,,,,,,,,,,,,,,,,,,,,,,,,,,,,,nback31,1.0,2023-12-15_15h56.47.539,untitled,2023.2.3,59.98199340556101,2023-12-15 16h27.19.532779 -0500,
11.0,"[-0.64, -0.4]",space,0.0,39.0,39.0,39.0,,,,,,,,,1019.3529669999998,,,,,,,,,,,,,,,,,,,,,,,,,,,,1019.3377598000002,1019.3529669999998,1019.3529669999998,1019.8528631,1019.8528631,1022.3529589,1022.3529589,1022.3370709,space,1.0,0.4162614000001667,None,,,,,,,,,,,,,,,,,,,,,,,,,,,,,,,,,,,,,,,,,,,nback31,1.0,2023-12-15_15h56.47.539,untitled,2023.2.3,59.98199340556101,2023-12-15 16h27.19.532779 -0500,
,,,,,,,,,,,,,,,,,,,,,,,,,,,,,,,,,,,,,,,,,,,,,,,,,,,,,,,1022.3376487,1022.3529589,1022.3529589,1057.1537675,space,34.79559999999992,None,,,,,,,,,,,,,,,,,,,,,,,,,,,,,,,,,,,,nback31,1.0,2023-12-15_15h56.47.539,untitled,2023.2.3,59.98199340556101,2023-12-15 16h27.19.532779 -0500,
10.0,"[0, -0.2]",None,,,,,0.0,0.0,0.0,0.0,,,,,1058.1688006,,,,,,,,,,,,,,,,,,,,,,,,1057.1538034,1057.1688033,1058.1688006,1058.1526444,,,,,,,,,,,,,,,,,,,,1058.1591048,1058.1688006,1058.1688006,1058.6689534000002,1058.6689534000002,1061.1688184,1061.1688184,1061.1531644000002,None,1.0,,,,,,,,,,,,,,,,,,,,,,,,,,nback31,1.0,2023-12-15_15h56.47.539,untitled,2023.2.3,59.98199340556101,2023-12-15 16h27.19.532779 -0500,
5.0,"[0.2, 0.1]",None,,,,,0.0,1.0,1.0,1.0,,,,,1061.1688184,,,,,,,,,,,,,,,,,,,,,,,,,,,,,,,,,,,,,,,,,,,,,,,1061.1540343,1061.1688184,1061.1688184,1061.6688282,1061.6688282,1064.1687948,1064.1687948,1064.1527964000002,None,1.0,,,,,,,,,,,,,,,,,,,,,,,,,,nback31,1.0,2023-12-15_15h56.47.539,untitled,2023.2.3,59.98199340556101,2023-12-15 16h27.19.532779 -0500,
6.0,"[-0.3, 0]",None,,,,,0.0,2.0,2.0,2.0,,,,,1064.1687948,,,,,,,,,,,,,,,,,,,,,,,,,,,,,,,,,,,,,,,,,,,,,,,1064.1534127,1064.1687948,1064.1687948,1064.6689477,1064.6689477,1067.1688166,1067.1688166,1067.1528545,None,1.0,,,,,,,,,,,,,,,,,,,,,,,,,,nback31,1.0,2023-12-15_15h56.47.539,untitled,2023.2.3,59.98199340556101,2023-12-15 16h27.19.532779 -0500,
6.0,"[-0.3, 0]",space,,,,,0.0,3.0,3.0,3.0,,,,,1067.1688166,,,,,,,,,,,,,,,,,,,,,,,,,,,,,,,,,,,,,,,,,,,,,,,1067.153508,1067.1688166,1067.1688166,1067.6688365999998,1067.6688365999998,1070.1687349,1070.1687349,1070.1530446000002,space,1.0,0.3593611999999666,None,,,,,,,,,,,,,,,,,,,,,,,,nback31,1.0,2023-12-15_15h56.47.539,untitled,2023.2.3,59.98199340556101,2023-12-15 16h27.19.532779 -0500,
12.0,"[0.64, -0.4]",None,,,,,0.0,4.0,4.0,4.0,,,,,1070.1687349,,,,,,,,,,,,,,,,,,,,,,,,,,,,,,,,,,,,,,,,,,,,,,,1070.1542535,1070.1687349,1070.1687349,1070.6688499000002,1070.6688499000002,1073.1687093,1073.1687093,1073.1525266,None,1.0,,,,,,,,,,,,,,,,,,,,,,,,,,nback31,1.0,2023-12-15_15h56.47.539,untitled,2023.2.3,59.98199340556101,2023-12-15 16h27.19.532779 -0500,
10.0,"[0, -0.2]",None,,,,,0.0,5.0,5.0,5.0,,,,,1073.1687093,,,,,,,,,,,,,,,,,,,,,,,,,,,,,,,,,,,,,,,,,,,,,,,1073.1531354,1073.1687093,1073.1687093,1073.6686547,1073.6686547,1076.1685848000002,1076.1685848000002,1076.152678,None,1.0,,,,,,,,,,,,,,,,,,,,,,,,,,nback31,1.0,2023-12-15_15h56.47.539,untitled,2023.2.3,59.98199340556101,2023-12-15 16h27.19.532779 -0500,
2.0,"[0.64, 0.4]",None,,,,,0.0,6.0,6.0,6.0,,,,,1076.1685848000002,,,,,,,,,,,,,,,,,,,,,,,,,,,,,,,,,,,,,,,,,,,,,,,1076.1532874999998,1076.1685848000002,1076.1685848000002,1076.6685695,1076.6685695,1079.1686237,1079.1686237,1079.1522897999998,None,1.0,,,,,,,,,,,,,,,,,,,,,,,,,,nback31,1.0,2023-12-15_15h56.47.539,untitled,2023.2.3,59.98199340556101,2023-12-15 16h27.19.532779 -0500,
9.0,"[0.2, -0.1]",None,,,,,0.0,7.0,7.0,7.0,,,,,1079.1686237,,,,,,,,,,,,,,,,,,,,,,,,,,,,,,,,,,,,,,,,,,,,,,,1079.1528219000002,1079.1686237,1079.1686237,1079.6685857000002,1079.6685857000002,1082.1688398,1082.1688398,1082.1523081,None,1.0,,,,,,,,,,,,,,,,,,,,,,,,,,nback31,1.0,2023-12-15_15h56.47.539,untitled,2023.2.3,59.98199340556101,2023-12-15 16h27.19.532779 -0500,
9.0,"[0.2, -0.1]",space,,,,,0.0,8.0,8.0,8.0,,,,,1082.1688398,,,,,,,,,,,,,,,,,,,,,,,,,,,,,,,,,,,,,,,,,,,,,,,1082.1528595,1082.1688398,1082.1688398,1082.6684745000002,1082.6684745000002,1085.1684721,1085.1684721,1085.1526081000002,space,1.0,0.3697181000002274,None,,,,,,,,,,,,,,,,,,,,,,,,nback31,1.0,2023-12-15_15h56.47.539,untitled,2023.2.3,59.98199340556101,2023-12-15 16h27.19.532779 -0500,
6.0,"[-0.3, 0]",None,,,,,0.0,9.0,9.0,9.0,,,,,1085.1684721,,,,,,,,,,,,,,,,,,,,,,,,,,,,,,,,,,,,,,,,,,,,,,,1085.1534763,1085.1684721,1085.1684721,1085.6685093,1085.6685093,1088.1682468,1088.1682468,1088.1523816,None,1.0,,,,,,,,,,,,,,,,,,,,,,,,,,nback31,1.0,2023-12-15_15h56.47.539,untitled,2023.2.3,59.98199340556101,2023-12-15 16h27.19.532779 -0500,
11.0,"[-0.64, -0.4]",None,,,,,0.0,10.0,10.0,10.0,,,,,1088.1682468,,,,,,,,,,,,,,,,,,,,,,,,,,,,,,,,,,,,,,,,,,,,,,,1088.1530162,1088.1682468,1088.1682468,1088.6684608,1088.6684608,1091.168291,1091.168291,1091.1524986999998,None,1.0,,,,,,,,,,,,,,,,,,,,,,,,,,nback31,1.0,2023-12-15_15h56.47.539,untitled,2023.2.3,59.98199340556101,2023-12-15 16h27.19.532779 -0500,
11.0,"[-0.64, -0.4]",space,,,,,0.0,11.0,11.0,11.0,,,,,1091.168291,,,,,,,,,,,,,,,,,,,,,,,,,,,,,,,,,,,,,,,,,,,,,,,1091.1531705000002,1091.168291,1091.168291,1091.6683113,1091.6683113,1094.1683276,1094.1683276,1094.1524329,space,1.0,0.3935429999996813,None,,,,,,,,,,,,,,,,,,,,,,,,nback31,1.0,2023-12-15_15h56.47.539,untitled,2023.2.3,59.98199340556101,2023-12-15 16h27.19.532779 -0500,
4.0,"[-0.2, 0.1]",None,,,,,0.0,12.0,12.0,12.0,,,,,1094.1683276,,,,,,,,,,,,,,,,,,,,,,,,,,,,,,,,,,,,,,,,,,,,,,,1094.1531394,1094.1683276,1094.1683276,1094.6683849,1094.6683849,1097.1683942,1097.1683942,1097.1522864,None,1.0,,,,,,,,,,,,,,,,,,,,,,,,,,nback31,1.0,2023-12-15_15h56.47.539,untitled,2023.2.3,59.98199340556101,2023-12-15 16h27.19.532779 -0500,
3.0,"[0, 0.2]",None,,,,,0.0,13.0,13.0,13.0,,,,,1097.1683942,,,,,,,,,,,,,,,,,,,,,,,,,,,,,,,,,,,,,,,,,,,,,,,1097.1529294000002,1097.1683942,1097.1683942,1097.6683805000002,1097.6683805000002,1100.168278,1100.168278,1100.1521779,None,1.0,,,,,,,,,,,,,,,,,,,,,,,,,,nback31,1.0,2023-12-15_15h56.47.539,untitled,2023.2.3,59.98199340556101,2023-12-15 16h27.19.532779 -0500,
3.0,"[0, 0.2]",space,,,,,0.0,14.0,14.0,14.0,,,,,1100.168278,,,,,,,,,,,,,,,,,,,,,,,,,,,,,,,,,,,,,,,,,,,,,,,1100.1528057,1100.168278,1100.168278,1100.6682037,1100.6682037,1103.1683831,1103.1683831,1103.1518609,space,1.0,0.6374013999998169,None,,,,,,,,,,,,,,,,,,,,,,,,nback31,1.0,2023-12-15_15h56.47.539,untitled,2023.2.3,59.98199340556101,2023-12-15 16h27.19.532779 -0500,
8.0,"[-0.2, -0.1]",None,,,,,0.0,15.0,15.0,15.0,,,,,1103.1683831,,,,,,,,,,,,,,,,,,,,,,,,,,,,,,,,,,,,,,,,,,,,,,,1103.1526577999998,1103.1683831,1103.1683831,1103.6682449,1103.6682449,1106.1682523,1106.1682523,1106.1521853,None,1.0,,,,,,,,,,,,,,,,,,,,,,,,,,nback31,1.0,2023-12-15_15h56.47.539,untitled,2023.2.3,59.98199340556101,2023-12-15 16h27.19.532779 -0500,
1.0,"[-0.64, 0.4]",None,,,,,0.0,16.0,16.0,16.0,,,,,1106.1682523,,,,,,,,,,,,,,,,,,,,,,,,,,,,,,,,,,,,,,,,,,,,,,,1106.1528429999998,1106.1682523,1106.1682523,1106.6680167999998,1106.6680167999998,1109.1680206,1109.1680206,1109.1522277,None,1.0,,,,,,,,,,,,,,,,,,,,,,,,,,nback31,1.0,2023-12-15_15h56.47.539,untitled,2023.2.3,59.98199340556101,2023-12-15 16h27.19.532779 -0500,
2.0,"[0.64, 0.4]",None,,,,,0.0,17.0,17.0,17.0,,,,,1109.1680206,,,,,,,,,,,,,,,,,,,,,,,,,,,,,,,,,,,,,,,,,,,,,,,1109.1528506999998,1109.1680206,1109.1680206,1109.6680492,1109.6680492,1112.1678925,1112.1678925,1112.1520095,None,1.0,,,,,,,,,,,,,,,,,,,,,,,,,,nback31,1.0,2023-12-15_15h56.47.539,untitled,2023.2.3,59.98199340556101,2023-12-15 16h27.19.532779 -0500,
4.0,"[-0.2, 0.1]",None,,,,,0.0,18.0,18.0,18.0,,,,,1112.1678925,,,,,,,,,,,,,,,,,,,,,,,,,,,,,,,,,,,,,,,,,,,,,,,1112.1527585,1112.1678925,1112.1678925,1112.6679201000002,1112.6679201000002,1115.1679825,1115.1679825,1115.1521527999998,None,1.0,,,,,,,,,,,,,,,,,,,,,,,,,,nback31,1.0,2023-12-15_15h56.47.539,untitled,2023.2.3,59.98199340556101,2023-12-15 16h27.19.532779 -0500,
4.0,"[-0.2, 0.1]",space,,,,,0.0,19.0,19.0,19.0,,,,,1115.1679825,,,,,,,,,,,,,,,,,,,,,,,,,,,,,,,,,,,,,,,,,,,,,,,1115.1527947999998,1115.1679825,1115.1679825,1115.6679195000002,1115.6679195000002,1118.1678559000002,1118.1678559000002,1118.1520921,space,1.0,0.4020000999998956,None,,,,,,,,,,,,,,,,,,,,,,,,nback31,1.0,2023-12-15_15h56.47.539,untitled,2023.2.3,59.98199340556101,2023-12-15 16h27.19.532779 -0500,
8.0,"[-0.2, -0.1]",None,,,,,0.0,20.0,20.0,20.0,,,,,1118.1678559000002,,,,,,,,,,,,,,,,,,,,,,,,,,,,,,,,,,,,,,,,,,,,,,,1118.1529572999998,1118.1678559000002,1118.1678559000002,1118.6680809,1118.6680809,1121.1677974,1121.1677974,1121.1518777,None,1.0,,,,,,,,,,,,,,,,,,,,,,,,,,nback31,1.0,2023-12-15_15h56.47.539,untitled,2023.2.3,59.98199340556101,2023-12-15 16h27.19.532779 -0500,
5.0,"[0.2, 0.1]",None,,,,,0.0,21.0,21.0,21.0,,,,,1121.1677974,,,,,,,,,,,,,,,,,,,,,,,,,,,,,,,,,,,,,,,,,,,,,,,1121.1525370999998,1121.1677974,1121.1677974,1121.6676357,1121.6676357,1124.1679477000002,1124.1679477000002,1124.1519605,None,1.0,,,,,,,,,,,,,,,,,,,,,,,,,,nback31,1.0,2023-12-15_15h56.47.539,untitled,2023.2.3,59.98199340556101,2023-12-15 16h27.19.532779 -0500,
5.0,"[0.2, 0.1]",space,,,,,0.0,22.0,22.0,22.0,,,,,1124.1679477000002,,,,,,,,,,,,,,,,,,,,,,,,,,,,,,,,,,,,,,,,,,,,,,,1124.1526442999998,1124.1679477000002,1124.1679477000002,1124.6677795,1124.6677795,1127.167743,1127.167743,1127.1519829,space,1.0,0.5587580999999773,None,,,,,,,,,,,,,,,,,,,,,,,,nback31,1.0,2023-12-15_15h56.47.539,untitled,2023.2.3,59.98199340556101,2023-12-15 16h27.19.532779 -0500,
1.0,"[-0.64, 0.4]",None,,,,,0.0,23.0,23.0,23.0,,,,,1127.167743,,,,,,,,,,,,,,,,,,,,,,,,,,,,,,,,,,,,,,,,,,,,,,,1127.1528483000002,1127.167743,1127.167743,1127.6677214,1127.6677214,1130.1677235000002,1130.1677235000002,1130.151737,None,1.0,,,,,,,,,,,,,,,,,,,,,,,,,,nback31,1.0,2023-12-15_15h56.47.539,untitled,2023.2.3,59.98199340556101,2023-12-15 16h27.19.532779 -0500,
3.0,"[0, 0.2]",None,,,,,0.0,24.0,24.0,24.0,,,,,1130.1677235000002,,,,,,,,,,,,,,,,,,,,,,,,,,,,,,,,,,,,,,,,,,,,,,,1130.1522312000002,1130.1677235000002,1130.1677235000002,1130.6675907,1130.6675907,1133.1675832,1133.1675832,1133.1517030999998,None,1.0,,,,,,,,,,,,,,,,,,,,,,,,,,nback31,1.0,2023-12-15_15h56.47.539,untitled,2023.2.3,59.98199340556101,2023-12-15 16h27.19.532779 -0500,
6.0,"[-0.3, 0]",None,,,,,0.0,25.0,25.0,25.0,,,,,1133.1675832,,,,,,,,,,,,,,,,,,,,,,,,,,,,,,,,,,,,,,,,,,,,,,,1133.1523272,1133.1675832,1133.1675832,1133.6675894999998,1133.6675894999998,1136.1675126,1136.1675126,1136.1514258000002,None,1.0,,,,,,,,,,,,,,,,,,,,,,,,,,nback31,1.0,2023-12-15_15h56.47.539,untitled,2023.2.3,59.98199340556101,2023-12-15 16h27.19.532779 -0500,
1.0,"[-0.64, 0.4]",None,,,,,0.0,26.0,26.0,26.0,,,,,1136.1675126,,,,,,,,,,,,,,,,,,,,,,,,,,,,,,,,,,,,,,,,,,,,,,,1136.1520598000002,1136.1675126,1136.1675126,1136.6676669,1136.6676669,1139.1675168000002,1139.1675168000002,1139.1516408000002,None,1.0,,,,,,,,,,,,,,,,,,,,,,,,,,nback31,1.0,2023-12-15_15h56.47.539,untitled,2023.2.3,59.98199340556101,2023-12-15 16h27.19.532779 -0500,
1.0,"[-0.64, 0.4]",space,,,,,0.0,27.0,27.0,27.0,,,,,1139.1675168000002,,,,,,,,,,,,,,,,,,,,,,,,,,,,,,,,,,,,,,,,,,,,,,,1139.1523195,1139.1675168000002,1139.1675168000002,1139.6675340000002,1139.6675340000002,1142.1673807000002,1142.1673807000002,1142.1516204999998,space,1.0,0.587368499999684,None,,,,,,,,,,,,,,,,,,,,,,,,nback31,1.0,2023-12-15_15h56.47.539,untitled,2023.2.3,59.98199340556101,2023-12-15 16h27.19.532779 -0500,
1.0,"[-0.64, 0.4]",space,,,,,0.0,28.0,28.0,28.0,,,,,1142.1673807000002,,,,,,,,,,,,,,,,,,,,,,,,,,,,,,,,,,,,,,,,,,,,,,,1142.152391,1142.1673807000002,1142.1673807000002,1142.6674438,1142.6674438,1145.1673999,1145.1673999,1145.151578,space,1.0,0.4418448000001262,None,,,,,,,,,,,,,,,,,,,,,,,,nback31,1.0,2023-12-15_15h56.47.539,untitled,2023.2.3,59.98199340556101,2023-12-15 16h27.19.532779 -0500,
3.0,"[0, 0.2]",None,,,,,0.0,29.0,29.0,29.0,,,,,1145.1673999,,,,,,,,,,,,,,,,,,,,,,,,,,,,,,,,,,,,,,,,,,,,,,,1145.1523459,1145.1673999,1145.1673999,1145.6675315000002,1145.6675315000002,1148.16745,1148.16745,1148.1515009999998,None,1.0,,,,,,,,,,,,,,,,,,,,,,,,,,nback31,1.0,2023-12-15_15h56.47.539,untitled,2023.2.3,59.98199340556101,2023-12-15 16h27.19.532779 -0500,
12.0,"[0.64, -0.4]",None,,,,,0.0,30.0,30.0,30.0,,,,,1148.16745,,,,,,,,,,,,,,,,,,,,,,,,,,,,,,,,,,,,,,,,,,,,,,,1148.1521778,1148.16745,1148.16745,1148.6674477,1148.6674477,1151.1673804000002,1151.1673804000002,1151.1516389,None,1.0,,,,,,,,,,,,,,,,,,,,,,,,,,nback31,1.0,2023-12-15_15h56.47.539,untitled,2023.2.3,59.98199340556101,2023-12-15 16h27.19.532779 -0500,
12.0,"[0.64, -0.4]",space,,,,,0.0,31.0,31.0,31.0,,,,,1151.1673804000002,,,,,,,,,,,,,,,,,,,,,,,,,,,,,,,,,,,,,,,,,,,,,,,1151.1523982,1151.1673804000002,1151.1673804000002,1151.6673542,1151.6673542,1154.1672284,1154.1672284,1154.1513432000002,space,1.0,0.3629703999999947,None,,,,,,,,,,,,,,,,,,,,,,,,nback31,1.0,2023-12-15_15h56.47.539,untitled,2023.2.3,59.98199340556101,2023-12-15 16h27.19.532779 -0500,
2.0,"[0.64, 0.4]",None,,,,,0.0,32.0,32.0,32.0,,,,,1154.1672284,,,,,,,,,,,,,,,,,,,,,,,,,,,,,,,,,,,,,,,,,,,,,,,1154.1521116,1154.1672284,1154.1672284,1154.6672414999998,1154.6672414999998,1157.1672317000002,1157.1672317000002,1157.1514763,None,1.0,,,,,,,,,,,,,,,,,,,,,,,,,,nback31,1.0,2023-12-15_15h56.47.539,untitled,2023.2.3,59.98199340556101,2023-12-15 16h27.19.532779 -0500,
1.0,"[-0.64, 0.4]",None,,,,,0.0,33.0,33.0,33.0,,,,,1157.1672317000002,,,,,,,,,,,,,,,,,,,,,,,,,,,,,,,,,,,,,,,,,,,,,,,1157.1521226999998,1157.1672317000002,1157.1672317000002,1157.6671898999998,1157.6671898999998,1160.1671944999998,1160.1671944999998,1160.1511338,None,1.0,,,,,,,,,,,,,,,,,,,,,,,,,,nback31,1.0,2023-12-15_15h56.47.539,untitled,2023.2.3,59.98199340556101,2023-12-15 16h27.19.532779 -0500,
7.0,"[0.3, 0]",None,,,,,0.0,34.0,34.0,34.0,,,,,1160.1671944999998,,,,,,,,,,,,,,,,,,,,,,,,,,,,,,,,,,,,,,,,,,,,,,,1160.1516145,1160.1671944999998,1160.1671944999998,1160.6671218,1160.6671218,1163.1669891,1163.1669891,1163.1512378000002,None,1.0,,,,,,,,,,,,,,,,,,,,,,,,,,nback31,1.0,2023-12-15_15h56.47.539,untitled,2023.2.3,59.98199340556101,2023-12-15 16h27.19.532779 -0500,
7.0,"[0.3, 0]",space,,,,,0.0,35.0,35.0,35.0,,,,,1163.1669891,,,,,,,,,,,,,,,,,,,,,,,,,,,,,,,,,,,,,,,,,,,,,,,1163.1519152,1163.1669891,1163.1669891,1163.6671212,1163.6671212,1166.1671815999998,1166.1671815999998,1166.1514146,space,1.0,0.3905122000001029,None,,,,,,,,,,,,,,,,,,,,,,,,nback31,1.0,2023-12-15_15h56.47.539,untitled,2023.2.3,59.98199340556101,2023-12-15 16h27.19.532779 -0500,
11.0,"[-0.64, -0.4]",None,,,,,0.0,36.0,36.0,36.0,,,,,1166.1671815999998,,,,,,,,,,,,,,,,,,,,,,,,,,,,,,,,,,,,,,,,,,,,,,,1166.1525038999998,1166.1671815999998,1166.1671815999998,1166.6670402999998,1166.6670402999998,1169.1669324,1169.1669324,1169.1510991,None,1.0,,,,,,,,,,,,,,,,,,,,,,,,,,nback31,1.0,2023-12-15_15h56.47.539,untitled,2023.2.3,59.98199340556101,2023-12-15 16h27.19.532779 -0500,
2.0,"[0.64, 0.4]",None,,,,,0.0,37.0,37.0,37.0,,,,,1169.1669324,,,,,,,,,,,,,,,,,,,,,,,,,,,,,,,,,,,,,,,,,,,,,,,1169.1518105,1169.1669324,1169.1669324,1169.6671235,1169.6671235,1172.1670653,1172.1670653,1172.1512406000002,None,1.0,,,,,,,,,,,,,,,,,,,,,,,,,,nback31,1.0,2023-12-15_15h56.47.539,untitled,2023.2.3,59.98199340556101,2023-12-15 16h27.19.532779 -0500,
6.0,"[-0.3, 0]",None,,,,,0.0,38.0,38.0,38.0,,,,,1172.1670653,,,,,,,,,,,,,,,,,,,,,,,,,,,,,,,,,,,,,,,,,,,,,,,1172.1521131999998,1172.1670653,1172.1670653,1172.6670826999998,1172.6670826999998,1175.1670374,1175.1670374,1175.1509473,None,1.0,,,,,,,,,,,,,,,,,,,,,,,,,,nback31,1.0,2023-12-15_15h56.47.539,untitled,2023.2.3,59.98199340556101,2023-12-15 16h27.19.532779 -0500,
10.0,"[0, -0.2]",None,,,,,0.0,39.0,39.0,39.0,,,,,1175.1670374,,,,,,,,,,,,,,,,,,,,,,,,,,,,,,,,,,,,,,,,,,,,,,,1175.1515724,1175.1670374,1175.1670374,1175.6669663000002,1175.6669663000002,1178.1670794,1178.1670794,1178.1508417,None,1.0,,,,,,,,,,,,,,,,,,,,,,,,,,nback31,1.0,2023-12-15_15h56.47.539,untitled,2023.2.3,59.98199340556101,2023-12-15 16h27.19.532779 -0500,
,,,,,,,,,,,,,,,,,,,,,,,,,,,,,,,,,,,,,,,,,,,,,,,,,,,,,,,,,,,,,,,,,,,,,,,,,,1178.1512882000002,1178.1670794,1178.1670794,1215.5008807,space,37.32433870000023,None,,,,,,,,,,,,,,,,,nback31,1.0,2023-12-15_15h56.47.539,untitled,2023.2.3,59.98199340556101,2023-12-15 16h27.19.532779 -0500,
,"[0.2, 0.1]",None,,,,,,,,,0.0,0.0,0.0,0.0,1216.5161226,,,,,,,,,,,,,,,,,,,,,,,,1215.5009212,1215.5163099,1216.5161226,1216.5002429,,,,,,,,,,,,,,,,,,,,,,,,,,,,,,,,,,,,,,,1216.507885,1216.5161226,1216.5161226,1217.0161111000002,1217.0161111000002,1219.5160704,1219.5160704,1219.5004251,None,1.0,,,,,,,nback31,1.0,2023-12-15_15h56.47.539,untitled,2023.2.3,59.98199340556101,2023-12-15 16h27.19.532779 -0500,
,"[0.64, 0.4]",None,,,,,,,,,0.0,1.0,1.0,1.0,1219.5160704,,,,,,,,,,,,,,,,,,,,,,,,,,,,,,,,,,,,,,,,,,,,,,,,,,,,,,,,,,,,,,,,,,1219.5012809,1219.5160704,1219.5160704,1220.0162517,1220.0162517,1222.5159321,1222.5159321,1222.5001327999998,None,1.0,,,,,,,nback31,1.0,2023-12-15_15h56.47.539,untitled,2023.2.3,59.98199340556101,2023-12-15 16h27.19.532779 -0500,
,"[-0.3, 0]",None,,,,,,,,,0.0,2.0,2.0,2.0,1222.5159321,,,,,,,,,,,,,,,,,,,,,,,,,,,,,,,,,,,,,,,,,,,,,,,,,,,,,,,,,,,,,,,,,,1222.5006578000002,1222.5159321,1222.5159321,1223.0160439,1223.0160439,1225.5161579,1225.5161579,1225.4999026,None,1.0,,,,,,,nback31,1.0,2023-12-15_15h56.47.539,untitled,2023.2.3,59.98199340556101,2023-12-15 16h27.19.532779 -0500,
,"[0.2, -0.1]",None,,,,,,,,,0.0,3.0,3.0,3.0,1225.5161579,,,,,,,,,,,,,,,,,,,,,,,,,,,,,,,,,,,,,,,,,,,,,,,,,,,,,,,,,,,,,,,,,,1225.5004442999998,1225.5161579,1225.5161579,1226.0161895,1226.0161895,1228.5158427,1228.5158427,1228.5000454,None,1.0,,,,,,,nback31,1.0,2023-12-15_15h56.47.539,untitled,2023.2.3,59.98199340556101,2023-12-15 16h27.19.532779 -0500,
,"[0, 0.2]",None,,,,,,,,,0.0,4.0,4.0,4.0,1228.5158427,,,,,,,,,,,,,,,,,,,,,,,,,,,,,,,,,,,,,,,,,,,,,,,,,,,,,,,,,,,,,,,,,,1228.5006462,1228.5158427,1228.5158427,1229.0159886,1229.0159886,1231.515841,1231.515841,1231.5001288,None,1.0,,,,,,,nback31,1.0,2023-12-15_15h56.47.539,untitled,2023.2.3,59.98199340556101,2023-12-15 16h27.19.532779 -0500,
,"[0.2, -0.1]",space,,,,,,,,,0.0,5.0,5.0,5.0,1231.515841,,,,,,,,,,,,,,,,,,,,,,,,,,,,,,,,,,,,,,,,,,,,,,,,,,,,,,,,,,,,,,,,,,1231.5008094,1231.515841,1231.515841,1232.0159828,1232.0159828,1234.5157157,1234.5157157,1234.5001812,space,1.0,0.3969999000000825,None,,,,,nback31,1.0,2023-12-15_15h56.47.539,untitled,2023.2.3,59.98199340556101,2023-12-15 16h27.19.532779 -0500,
,"[0, -0.2]",None,,,,,,,,,0.0,6.0,6.0,6.0,1234.5157157,,,,,,,,,,,,,,,,,,,,,,,,,,,,,,,,,,,,,,,,,,,,,,,,,,,,,,,,,,,,,,,,,,1234.5012687,1234.5157157,1234.5157157,1235.0158524,1235.0158524,1237.5158781,1237.5158781,1237.4997532000002,None,1.0,,,,,,,nback31,1.0,2023-12-15_15h56.47.539,untitled,2023.2.3,59.98199340556101,2023-12-15 16h27.19.532779 -0500,
,"[0.64, -0.4]",None,,,,,,,,,0.0,7.0,7.0,7.0,1237.5158781,,,,,,,,,,,,,,,,,,,,,,,,,,,,,,,,,,,,,,,,,,,,,,,,,,,,,,,,,,,,,,,,,,1237.5003422,1237.5158781,1237.5158781,1238.0158858999998,1238.0158858999998,1240.5157024,1240.5157024,1240.4996351,None,1.0,,,,,,,nback31,1.0,2023-12-15_15h56.47.539,untitled,2023.2.3,59.98199340556101,2023-12-15 16h27.19.532779 -0500,
,"[0.3, 0]",None,,,,,,,,,0.0,8.0,8.0,8.0,1240.5157024,,,,,,,,,,,,,,,,,,,,,,,,,,,,,,,,,,,,,,,,,,,,,,,,,,,,,,,,,,,,,,,,,,1240.5001995000002,1240.5157024,1240.5157024,1241.0156410999998,1241.0156410999998,1243.5159259000002,1243.5159259000002,1243.4998222,None,1.0,,,,,,,nback31,1.0,2023-12-15_15h56.47.539,untitled,2023.2.3,59.98199340556101,2023-12-15 16h27.19.532779 -0500,
,"[0.64, -0.4]",space,,,,,,,,,0.0,9.0,9.0,9.0,1243.5159259000002,,,,,,,,,,,,,,,,,,,,,,,,,,,,,,,,,,,,,,,,,,,,,,,,,,,,,,,,,,,,,,,,,,1243.5005437,1243.5159259000002,1243.5159259000002,1244.0156885,1244.0156885,1246.5157046,1246.5157046,1246.4994339,space,1.0,0.4946649000003162,None,,,,,nback31,1.0,2023-12-15_15h56.47.539,untitled,2023.2.3,59.98199340556101,2023-12-15 16h27.19.532779 -0500,
,"[-0.64, 0.4]",None,,,,,,,,,0.0,10.0,10.0,10.0,1246.5157046,,,,,,,,,,,,,,,,,,,,,,,,,,,,,,,,,,,,,,,,,,,,,,,,,,,,,,,,,,,,,,,,,,1246.5001809,1246.5157046,1246.5157046,1247.0157963,1247.0157963,1249.515708,1249.515708,1249.4998792,None,1.0,,,,,,,nback31,1.0,2023-12-15_15h56.47.539,untitled,2023.2.3,59.98199340556101,2023-12-15 16h27.19.532779 -0500,
,"[0.2, 0.1]",None,,,,,,,,,0.0,11.0,11.0,11.0,1249.515708,,,,,,,,,,,,,,,,,,,,,,,,,,,,,,,,,,,,,,,,,,,,,,,,,,,,,,,,,,,,,,,,,,1249.5005992,1249.515708,1249.515708,1250.0158428,1250.0158428,1252.5156863000002,1252.5156863000002,1252.4999051999998,None,1.0,,,,,,,nback31,1.0,2023-12-15_15h56.47.539,untitled,2023.2.3,59.98199340556101,2023-12-15 16h27.19.532779 -0500,
,"[0.3, 0]",None,,,,,,,,,0.0,12.0,12.0,12.0,1252.5156863000002,,,,,,,,,,,,,,,,,,,,,,,,,,,,,,,,,,,,,,,,,,,,,,,,,,,,,,,,,,,,,,,,,,1252.5007452999998,1252.5156863000002,1252.5156863000002,1253.0154659999998,1253.0154659999998,1255.5154811000002,1255.5154811000002,1255.4994655,None,1.0,,,,,,,nback31,1.0,2023-12-15_15h56.47.539,untitled,2023.2.3,59.98199340556101,2023-12-15 16h27.19.532779 -0500,
,"[0.2, 0.1]",space,,,,,,,,,0.0,13.0,13.0,13.0,1255.5154811000002,,,,,,,,,,,,,,,,,,,,,,,,,,,,,,,,,,,,,,,,,,,,,,,,,,,,,,,,,,,,,,,,,,1255.5000448,1255.5154811000002,1255.5154811000002,1256.0155574,1256.0155574,1258.5153648,1258.5153648,1258.4996600999998,space,1.0,0.4095029999998587,None,,,,,nback31,1.0,2023-12-15_15h56.47.539,untitled,2023.2.3,59.98199340556101,2023-12-15 16h27.19.532779 -0500,
,"[-0.3, 0]",None,,,,,,,,,0.0,14.0,14.0,14.0,1258.5153648,,,,,,,,,,,,,,,,,,,,,,,,,,,,,,,,,,,,,,,,,,,,,,,,,,,,,,,,,,,,,,,,,,1258.5003746000002,1258.5153648,1258.5153648,1259.0155169,1259.0155169,1261.5153942000002,1261.5153942000002,1261.4995531999998,None,1.0,,,,,,,nback31,1.0,2023-12-15_15h56.47.539,untitled,2023.2.3,59.98199340556101,2023-12-15 16h27.19.532779 -0500,
,"[0, 0.2]",None,,,,,,,,,0.0,15.0,15.0,15.0,1261.5153942000002,,,,,,,,,,,,,,,,,,,,,,,,,,,,,,,,,,,,,,,,,,,,,,,,,,,,,,,,,,,,,,,,,,1261.5002593,1261.5153942000002,1261.5153942000002,1262.0154904,1262.0154904,1264.515246,1264.515246,1264.4994333,None,1.0,,,,,,,nback31,1.0,2023-12-15_15h56.47.539,untitled,2023.2.3,59.98199340556101,2023-12-15 16h27.19.532779 -0500,
,"[-0.3, 0]",space,,,,,,,,,0.0,16.0,16.0,16.0,1264.515246,,,,,,,,,,,,,,,,,,,,,,,,,,,,,,,,,,,,,,,,,,,,,,,,,,,,,,,,,,,,,,,,,,1264.500043,1264.515246,1264.515246,1265.0153885,1265.0153885,1267.5152899999998,1267.5152899999998,1267.4993506,space,1.0,0.4837839000001622,None,,,,,nback31,1.0,2023-12-15_15h56.47.539,untitled,2023.2.3,59.98199340556101,2023-12-15 16h27.19.532779 -0500,
,"[-0.64, -0.4]",None,,,,,,,,,0.0,17.0,17.0,17.0,1267.5152899999998,,,,,,,,,,,,,,,,,,,,,,,,,,,,,,,,,,,,,,,,,,,,,,,,,,,,,,,,,,,,,,,,,,1267.500118,1267.5152899999998,1267.5152899999998,1268.015273,1268.015273,1270.5152512,1270.5152512,1270.4994053,None,1.0,,,,,,,nback31,1.0,2023-12-15_15h56.47.539,untitled,2023.2.3,59.98199340556101,2023-12-15 16h27.19.532779 -0500,
,"[-0.2, -0.1]",None,,,,,,,,,0.0,18.0,18.0,18.0,1270.5152512,,,,,,,,,,,,,,,,,,,,,,,,,,,,,,,,,,,,,,,,,,,,,,,,,,,,,,,,,,,,,,,,,,1270.500051,1270.5152512,1270.5152512,1271.01532,1271.01532,1273.5152303999998,1273.5152303999998,1273.499316,None,1.0,,,,,,,nback31,1.0,2023-12-15_15h56.47.539,untitled,2023.2.3,59.98199340556101,2023-12-15 16h27.19.532779 -0500,
,"[0.2, -0.1]",None,,,,,,,,,0.0,19.0,19.0,19.0,1273.5152303999998,,,,,,,,,,,,,,,,,,,,,,,,,,,,,,,,,,,,,,,,,,,,,,,,,,,,,,,,,,,,,,,,,,1273.4999755,1273.5152303999998,1273.5152303999998,1274.0151986,1274.0151986,1276.5150162999998,1276.5150162999998,1276.4992608000002,None,1.0,,,,,,,nback31,1.0,2023-12-15_15h56.47.539,untitled,2023.2.3,59.98199340556101,2023-12-15 16h27.19.532779 -0500,
,"[0.2, -0.1]",None,,,,,,,,,0.0,20.0,20.0,20.0,1276.5150162999998,,,,,,,,,,,,,,,,,,,,,,,,,,,,,,,,,,,,,,,,,,,,,,,,,,,,,,,,,,,,,,,,,,1276.49993,1276.5150162999998,1276.5150162999998,1277.0151969,1277.0151969,1279.5149408000002,1279.5149408000002,1279.4992582999998,space,0.0,1.066169000000173,None,,,,,nback31,1.0,2023-12-15_15h56.47.539,untitled,2023.2.3,59.98199340556101,2023-12-15 16h27.19.532779 -0500,
,"[-0.64, 0.4]",None,,,,,,,,,0.0,21.0,21.0,21.0,1279.5149408000002,,,,,,,,,,,,,,,,,,,,,,,,,,,,,,,,,,,,,,,,,,,,,,,,,,,,,,,,,,,,,,,,,,1279.5000875,1279.5149408000002,1279.5149408000002,1280.0152247,1280.0152247,1282.5151082000002,1282.5151082000002,1282.4991749,None,1.0,,,,,,,nback31,1.0,2023-12-15_15h56.47.539,untitled,2023.2.3,59.98199340556101,2023-12-15 16h27.19.532779 -0500,
,"[0, 0.2]",None,,,,,,,,,0.0,22.0,22.0,22.0,1282.5151082000002,,,,,,,,,,,,,,,,,,,,,,,,,,,,,,,,,,,,,,,,,,,,,,,,,,,,,,,,,,,,,,,,,,1282.4998888,1282.5151082000002,1282.5151082000002,1283.0151832,1283.0151832,1285.5150814,1285.5150814,1285.4990547000002,None,1.0,,,,,,,nback31,1.0,2023-12-15_15h56.47.539,untitled,2023.2.3,59.98199340556101,2023-12-15 16h27.19.532779 -0500,
,"[0.64, -0.4]",None,,,,,,,,,0.0,23.0,23.0,23.0,1285.5150814,,,,,,,,,,,,,,,,,,,,,,,,,,,,,,,,,,,,,,,,,,,,,,,,,,,,,,,,,,,,,,,,,,1285.4997385,1285.5150814,1285.5150814,1286.0149298,1286.0149298,1288.5149315,1288.5149315,1288.4991437,None,1.0,,,,,,,nback31,1.0,2023-12-15_15h56.47.539,untitled,2023.2.3,59.98199340556101,2023-12-15 16h27.19.532779 -0500,
,"[0, 0.2]",space,,,,,,,,,0.0,24.0,24.0,24.0,1288.5149315,,,,,,,,,,,,,,,,,,,,,,,,,,,,,,,,,,,,,,,,,,,,,,,,,,,,,,,,,,,,,,,,,,1288.4998442,1288.5149315,1288.5149315,1289.0149703000002,1289.0149703000002,1291.5147819,1291.5147819,1291.4989240999998,space,1.0,0.3003696999999192,None,,,,,nback31,1.0,2023-12-15_15h56.47.539,untitled,2023.2.3,59.98199340556101,2023-12-15 16h27.19.532779 -0500,
,"[-0.2, 0.1]",None,,,,,,,,,0.0,25.0,25.0,25.0,1291.5147819,,,,,,,,,,,,,,,,,,,,,,,,,,,,,,,,,,,,,,,,,,,,,,,,,,,,,,,,,,,,,,,,,,1291.4996804000002,1291.5147819,1291.5147819,1292.0148818000002,1292.0148818000002,1294.5148712,1294.5148712,1294.4989824,None,1.0,,,,,,,nback31,1.0,2023-12-15_15h56.47.539,untitled,2023.2.3,59.98199340556101,2023-12-15 16h27.19.532779 -0500,
,"[0.3, 0]",None,,,,,,,,,0.0,26.0,26.0,26.0,1294.5148712,,,,,,,,,,,,,,,,,,,,,,,,,,,,,,,,,,,,,,,,,,,,,,,,,,,,,,,,,,,,,,,,,,1294.499569,1294.5148712,1294.5148712,1295.0148368,1295.0148368,1297.5146456000002,1297.5146456000002,1297.4986356,None,1.0,,,,,,,nback31,1.0,2023-12-15_15h56.47.539,untitled,2023.2.3,59.98199340556101,2023-12-15 16h27.19.532779 -0500,
,"[-0.2, 0.1]",space,,,,,,,,,0.0,27.0,27.0,27.0,1297.5146456000002,,,,,,,,,,,,,,,,,,,,,,,,,,,,,,,,,,,,,,,,,,,,,,,,,,,,,,,,,,,,,,,,,,1297.4992471,1297.5146456000002,1297.5146456000002,1298.0148252,1298.0148252,1300.5145901,1300.5145901,1300.49827,space,1.0,0.3559549999999944,None,,,,,nback31,1.0,2023-12-15_15h56.47.539,untitled,2023.2.3,59.98199340556101,2023-12-15 16h27.19.532779 -0500,
,"[-0.2, 0.1]",None,,,,,,,,,0.0,28.0,28.0,28.0,1300.5145901,,,,,,,,,,,,,,,,,,,,,,,,,,,,,,,,,,,,,,,,,,,,,,,,,,,,,,,,,,,,,,,,,,1300.4988366000002,1300.5145901,1300.5145901,1301.0145041,1301.0145041,1303.5147727,1303.5147727,1303.4988264,space,0.0,2.362968699999783,None,,,,,nback31,1.0,2023-12-15_15h56.47.539,untitled,2023.2.3,59.98199340556101,2023-12-15 16h27.19.532779 -0500,
,"[0.2, 0.1]",None,,,,,,,,,0.0,29.0,29.0,29.0,1303.5147727,,,,,,,,,,,,,,,,,,,,,,,,,,,,,,,,,,,,,,,,,,,,,,,,,,,,,,,,,,,,,,,,,,1303.499633,1303.5147727,1303.5147727,1304.0148147999998,1304.0148147999998,1306.5147791999998,1306.5147791999998,1306.4986816,None,1.0,,,,,,,nback31,1.0,2023-12-15_15h56.47.539,untitled,2023.2.3,59.98199340556101,2023-12-15 16h27.19.532779 -0500,
,"[-0.64, -0.4]",None,,,,,,,,,0.0,30.0,30.0,30.0,1306.5147791999998,,,,,,,,,,,,,,,,,,,,,,,,,,,,,,,,,,,,,,,,,,,,,,,,,,,,,,,,,,,,,,,,,,1306.4993903,1306.5147791999998,1306.5147791999998,1307.0146408,1307.0146408,1309.5145149999998,1309.5145149999998,1309.4984321000002,None,1.0,,,,,,,nback31,1.0,2023-12-15_15h56.47.539,untitled,2023.2.3,59.98199340556101,2023-12-15 16h27.19.532779 -0500,
,"[0, -0.2]",None,,,,,,,,,0.0,31.0,31.0,31.0,1309.5145149999998,,,,,,,,,,,,,,,,,,,,,,,,,,,,,,,,,,,,,,,,,,,,,,,,,,,,,,,,,,,,,,,,,,1309.4988827000002,1309.5145149999998,1309.5145149999998,1310.0144919,1310.0144919,1312.5145518,1312.5145518,1312.4986368999998,None,1.0,,,,,,,nback31,1.0,2023-12-15_15h56.47.539,untitled,2023.2.3,59.98199340556101,2023-12-15 16h27.19.532779 -0500,
,"[-0.64, -0.4]",space,,,,,,,,,0.0,32.0,32.0,32.0,1312.5145518,,,,,,,,,,,,,,,,,,,,,,,,,,,,,,,,,,,,,,,,,,,,,,,,,,,,,,,,,,,,,,,,,,1312.4992989000002,1312.5145518,1312.5145518,1313.0145258000002,1313.0145258000002,1315.5144234,1315.5144234,1315.4986221,space,1.0,0.4332601999999497,None,,,,,nback31,1.0,2023-12-15_15h56.47.539,untitled,2023.2.3,59.98199340556101,2023-12-15 16h27.19.532779 -0500,
,"[0.64, 0.4]",None,,,,,,,,,0.0,33.0,33.0,33.0,1315.5144234,,,,,,,,,,,,,,,,,,,,,,,,,,,,,,,,,,,,,,,,,,,,,,,,,,,,,,,,,,,,,,,,,,1315.4994056,1315.5144234,1315.5144234,1316.0143353,1316.0143353,1318.5144999,1318.5144999,1318.4985091,None,1.0,,,,,,,nback31,1.0,2023-12-15_15h56.47.539,untitled,2023.2.3,59.98199340556101,2023-12-15 16h27.19.532779 -0500,
,"[-0.3, 0]",None,,,,,,,,,0.0,34.0,34.0,34.0,1318.5144999,,,,,,,,,,,,,,,,,,,,,,,,,,,,,,,,,,,,,,,,,,,,,,,,,,,,,,,,,,,,,,,,,,1318.4991862000002,1318.5144999,1318.5144999,1319.0142652,1319.0142652,1321.5144553,1321.5144553,1321.4986229,None,1.0,,,,,,,nback31,1.0,2023-12-15_15h56.47.539,untitled,2023.2.3,59.98199340556101,2023-12-15 16h27.19.532779 -0500,
,"[0.3, 0]",None,,,,,,,,,0.0,35.0,35.0,35.0,1321.5144553,,,,,,,,,,,,,,,,,,,,,,,,,,,,,,,,,,,,,,,,,,,,,,,,,,,,,,,,,,,,,,,,,,1321.4993855000002,1321.5144553,1321.5144553,1322.0142959999998,1322.0142959999998,1324.5142646,1324.5142646,1324.4982902000002,None,1.0,,,,,,,nback31,1.0,2023-12-15_15h56.47.539,untitled,2023.2.3,59.98199340556101,2023-12-15 16h27.19.532779 -0500,
,"[-0.3, 0]",space,,,,,,,,,0.0,36.0,36.0,36.0,1324.5142646,,,,,,,,,,,,,,,,,,,,,,,,,,,,,,,,,,,,,,,,,,,,,,,,,,,,,,,,,,,,,,,,,,1324.4988879000002,1324.5142646,1324.5142646,1325.014349,1325.014349,1327.5143274000002,1327.5143274000002,1327.4983478,space,1.0,0.4345180000000255,None,,,,,nback31,1.0,2023-12-15_15h56.47.539,untitled,2023.2.3,59.98199340556101,2023-12-15 16h27.19.532779 -0500,
,"[0, -0.2]",None,,,,,,,,,0.0,37.0,37.0,37.0,1327.5143274000002,,,,,,,,,,,,,,,,,,,,,,,,,,,,,,,,,,,,,,,,,,,,,,,,,,,,,,,,,,,,,,,,,,1327.4990462,1327.5143274000002,1327.5143274000002,1328.0143351000002,1328.0143351000002,1330.5141718,1330.5141718,1330.4982875,None,1.0,,,,,,,nback31,1.0,2023-12-15_15h56.47.539,untitled,2023.2.3,59.98199340556101,2023-12-15 16h27.19.532779 -0500,
,"[0.3, 0]",None,,,,,,,,,0.0,38.0,38.0,38.0,1330.5141718,,,,,,,,,,,,,,,,,,,,,,,,,,,,,,,,,,,,,,,,,,,,,,,,,,,,,,,,,,,,,,,,,,1330.4989363,1330.5141718,1330.5141718,1331.0143121,1331.0143121,1333.514225,1333.514225,1333.4984799,None,1.0,,,,,,,nback31,1.0,2023-12-15_15h56.47.539,untitled,2023.2.3,59.98199340556101,2023-12-15 16h27.19.532779 -0500,
,"[0.2, 0.1]",None,,,,,,,,,0.0,39.0,39.0,39.0,1333.514225,,,,,,,,,,,,,,,,,,,,,,,,,,,,,,,,,,,,,,,,,,,,,,,,,,,,,,,,,,,,,,,,,,1333.4991446,1333.514225,1333.514225,1334.0141142000002,1334.0141142000002,1336.5141923,1336.5141923,1336.4984694999998,None,1.0,,,,,,,nback31,1.0,2023-12-15_15h56.47.539,untitled,2023.2.3,59.98199340556101,2023-12-15 16h27.19.532779 -0500,
,,,,,,,,,,,,,,,,,,,,,,,,,,,,,,,,,,,,,,,,,,,,,,,,,,,,,,,,,,,,,,,,,,,,,,,,,,,,,,,,,,,,,,,,,,,,,1336.4989955,1336.5141923,1339.5141697,1339.4982613000002,,,,,,,,
