square,location,corrAns,trials_0.thisRepN,trials_0.thisTrialN,trials_0.thisN,trials_0.thisIndex,trials_1.thisRepN,trials_1.thisTrialN,trials_1.thisN,trials_1.thisIndex,trials_2.thisRepN,trials_2.thisTrialN,trials_2.thisN,trials_2.thisIndex,thisRow.t,notes,Instructions.started,instructions.started,key_resp.started,inst_sq11.started,Instructions.stopped,key_resp.keys,key_resp.rt,key_resp.duration,All.started,sq_1.started,sq_2.started,sq_3.started,sq_4.started,sq_5.started,sq_6.started,sq_7.started,sq_8.started,sq_9.started,sq_10.started,sq_11.started,sq_12.started,All.stopped,Fixation.started,fixation_3.started,fixation_3.stopped,Fixation.stopped,N_back_0_Trial.started,target_square_0.started,response_0.started,fixation_0.started,target_square_0.stopped,fixation_0.stopped,N_back_0_Trial.stopped,response_0.keys,response_0.corr,response_0.rt,response_0.duration,Instructions_1.started,instructions_1.started,key_resp_1.started,Instructions_1.stopped,key_resp_1.keys,key_resp_1.rt,key_resp_1.duration,N_back_1_Trial.started,target_square_1.started,response_1.started,target_square_1.stopped,fixation_1.started,fixation_1.stopped,response_1.stopped,N_back_1_Trial.stopped,response_1.keys,response_1.corr,response_1.rt,response_1.duration,Instructions_2.started,instructions_2.started,key_resp_2.started,Instructions_2.stopped,key_resp_2.keys,key_resp_2.rt,key_resp_2.duration,N_back_2_trials.started,target_square_2.started,response_2.started,fixation_2.started,target_square_2.stopped,fixation_2.stopped,N_back_2_trials.stopped,response_2.keys,response_2.corr,response_2.rt,response_2.duration,End.started,thank_you.started,End.stopped,participant,session,date,expName,psychopyVersion,frameRate,expStart,Unnamed: 101
,,,,,,,,,,,,,,,,,0.0018767000292427,0.0043431000085547,0.0043431000085547,0.0043431000085547,1963.103883600037,space,1963.082852499967,None,,,,,,,,,,,,,,,,,,,,,,,,,,,,,,,,,,,,,,,,,,,,,,,,,,,,,,,,,,,,,,,,,,,,,,nback52,1.0,2024-01-15_10h22.11.185,untitled,2023.2.3,60.01363510390888,2024-01-15 10h48.40.183444 -0500,
6.0,"[-0.3, 0]",None,0.0,0.0,0.0,0.0,,,,,,,,,1965.1237340000223,,,,,,,,,,1963.103947399999,1963.119142099982,1963.119142099982,1963.119142099982,1963.119142099982,1963.119142099982,1963.119142099982,1963.119142099982,1963.119142099982,1963.119142099982,1963.119142099982,1963.119142099982,1963.119142099982,1964.1033595000044,1964.1033880999892,1964.1190523999976,1965.1237340000223,1965.103246500017,1965.121806600015,1965.1237340000223,1965.1237340000223,1965.6023879999996,1965.6358804000192,1968.1022445000128,1968.1192167000263,None,1.0,,,,,,,,,,,,,,,,,,,,,,,,,,,,,,,,,,,,,,,,,,,nback52,1.0,2024-01-15_10h22.11.185,untitled,2023.2.3,60.01363510390888,2024-01-15 10h48.40.183444 -0500,
10.0,"[0, -0.2]",None,0.0,1.0,1.0,1.0,,,,,,,,,1968.1355955000035,,,,,,,,,,,,,,,,,,,,,,,,,,,,1968.1201873000248,1968.1355955000035,1968.1355955000035,1968.6022325000376,1968.635704100016,1971.102304500004,1971.1191980000003,None,1.0,,,,,,,,,,,,,,,,,,,,,,,,,,,,,,,,,,,,,,,,,,,nback52,1.0,2024-01-15_10h22.11.185,untitled,2023.2.3,60.01363510390888,2024-01-15 10h48.40.183444 -0500,
11.0,"[-0.64, -0.4]",space,0.0,2.0,2.0,2.0,,,,,,,,,1971.135508000036,,,,,,,,,,,,,,,,,,,,,,,,,,,,1971.1199473000013,1971.135508000036,1971.135508000036,1971.619037600001,1971.635514100024,1974.1190409000264,1974.1192212000024,space,1.0,0.4990334999747574,None,,,,,,,,,,,,,,,,,,,,,,,,,,,,,,,,,,,,,,,,,nback52,1.0,2024-01-15_10h22.11.185,untitled,2023.2.3,60.01363510390888,2024-01-15 10h48.40.183444 -0500,
12.0,"[0.64, -0.4]",None,0.0,3.0,3.0,3.0,,,,,,,,,1974.1355919000343,,,,,,,,,,,,,,,,,,,,,,,,,,,,1974.120348300028,1974.1355919000343,1974.1355919000343,1974.6022617000272,1974.6355802000037,1977.102077800024,1977.118813899986,None,1.0,,,,,,,,,,,,,,,,,,,,,,,,,,,,,,,,,,,,,,,,,,,nback52,1.0,2024-01-15_10h22.11.185,untitled,2023.2.3,60.01363510390888,2024-01-15 10h48.40.183444 -0500,
1.0,"[-0.64, 0.4]",None,0.0,4.0,4.0,4.0,,,,,,,,,1977.1355599000235,,,,,,,,,,,,,,,,,,,,,,,,,,,,1977.1192728999888,1977.1355599000235,1977.1355599000235,1977.6189433999823,1977.6355855999864,1980.118835900037,1980.1190374,None,1.0,,,,,,,,,,,,,,,,,,,,,,,,,,,,,,,,,,,,,,,,,,,nback52,1.0,2024-01-15_10h22.11.185,untitled,2023.2.3,60.01363510390888,2024-01-15 10h48.40.183444 -0500,
1.0,"[-0.64, 0.4]",None,0.0,5.0,5.0,5.0,,,,,,,,,1980.135583300027,,,,,,,,,,,,,,,,,,,,,,,,,,,,1980.1198963000209,1980.135583300027,1980.135583300027,1980.6189304,1980.635539299983,1983.118846700003,1983.1190612000064,None,1.0,,,,,,,,,,,,,,,,,,,,,,,,,,,,,,,,,,,,,,,,,,,nback52,1.0,2024-01-15_10h22.11.185,untitled,2023.2.3,60.01363510390888,2024-01-15 10h48.40.183444 -0500,
4.0,"[-0.2, 0.1]",None,0.0,6.0,6.0,6.0,,,,,,,,,1983.1354389000333,,,,,,,,,,,,,,,,,,,,,,,,,,,,1983.119774700026,1983.1354389000333,1983.1354389000333,1983.6188437000385,1983.6355946999972,1986.1187589000328,1986.118942800036,None,1.0,,,,,,,,,,,,,,,,,,,,,,,,,,,,,,,,,,,,,,,,,,,nback52,1.0,2024-01-15_10h22.11.185,untitled,2023.2.3,60.01363510390888,2024-01-15 10h48.40.183444 -0500,
5.0,"[0.2, 0.1]",None,0.0,7.0,7.0,7.0,,,,,,,,,1986.1353237000292,,,,,,,,,,,,,,,,,,,,,,,,,,,,1986.1196542999824,1986.1353237000292,1986.1353237000292,1986.61870739999,1986.635441499995,1989.1188043000293,1989.119002100022,None,1.0,,,,,,,,,,,,,,,,,,,,,,,,,,,,,,,,,,,,,,,,,,,nback52,1.0,2024-01-15_10h22.11.185,untitled,2023.2.3,60.01363510390888,2024-01-15 10h48.40.183444 -0500,
11.0,"[-0.64, -0.4]",space,0.0,8.0,8.0,8.0,,,,,,,,,1989.1353059000105,,,,,,,,,,,,,,,,,,,,,,,,,,,,1989.1198587000251,1989.1353059000105,1989.1353059000105,1989.61858010001,1989.6352965999977,1992.1185244999945,1992.118708599999,space,1.0,0.477301399980206,None,,,,,,,,,,,,,,,,,,,,,,,,,,,,,,,,,,,,,,,,,nback52,1.0,2024-01-15_10h22.11.185,untitled,2023.2.3,60.01363510390888,2024-01-15 10h48.40.183444 -0500,
9.0,"[0.2, -0.1]",None,0.0,9.0,9.0,9.0,,,,,,,,,1992.135312600003,,,,,,,,,,,,,,,,,,,,,,,,,,,,1992.1196502000091,1992.135312600003,1992.135312600003,1992.6183622999813,1992.635158799996,1995.1185840999824,1995.1187731000248,None,1.0,,,,,,,,,,,,,,,,,,,,,,,,,,,,,,,,,,,,,,,,,,,nback52,1.0,2024-01-15_10h22.11.185,untitled,2023.2.3,60.01363510390888,2024-01-15 10h48.40.183444 -0500,
8.0,"[-0.2, -0.1]",None,0.0,10.0,10.0,10.0,,,,,,,,,1995.135306800017,,,,,,,,,,,,,,,,,,,,,,,,,,,,1995.119528900017,1995.135306800017,1995.135306800017,1995.6184527000296,1995.63541290001,1998.1185295000323,1998.1187149999896,None,1.0,,,,,,,,,,,,,,,,,,,,,,,,,,,,,,,,,,,,,,,,,,,nback52,1.0,2024-01-15_10h22.11.185,untitled,2023.2.3,60.01363510390888,2024-01-15 10h48.40.183444 -0500,
9.0,"[0.2, -0.1]",None,0.0,11.0,11.0,11.0,,,,,,,,,1998.135047800024,,,,,,,,,,,,,,,,,,,,,,,,,,,,1998.119356899988,1998.135047800024,1998.135047800024,1998.618429500028,1998.6352303000167,2001.118458700017,2001.118623699993,None,1.0,,,,,,,,,,,,,,,,,,,,,,,,,,,,,,,,,,,,,,,,,,,nback52,1.0,2024-01-15_10h22.11.185,untitled,2023.2.3,60.01363510390888,2024-01-15 10h48.40.183444 -0500,
6.0,"[-0.3, 0]",None,0.0,12.0,12.0,12.0,,,,,,,,,2001.1351578999893,,,,,,,,,,,,,,,,,,,,,,,,,,,,2001.119342099992,2001.1351578999893,2001.1351578999893,2001.6183583000093,2001.6351213000016,2004.118507599982,2004.118760399986,None,1.0,,,,,,,,,,,,,,,,,,,,,,,,,,,,,,,,,,,,,,,,,,,nback52,1.0,2024-01-15_10h22.11.185,untitled,2023.2.3,60.01363510390888,2024-01-15 10h48.40.183444 -0500,
9.0,"[0.2, -0.1]",None,0.0,13.0,13.0,13.0,,,,,,,,,2004.1349850000115,,,,,,,,,,,,,,,,,,,,,,,,,,,,2004.1195716999937,2004.1349850000115,2004.1349850000115,2004.618491500034,2004.6351723999835,2007.118413600023,2007.1185754000328,None,1.0,,,,,,,,,,,,,,,,,,,,,,,,,,,,,,,,,,,,,,,,,,,nback52,1.0,2024-01-15_10h22.11.185,untitled,2023.2.3,60.01363510390888,2024-01-15 10h48.40.183444 -0500,
7.0,"[0.3, 0]",None,0.0,14.0,14.0,14.0,,,,,,,,,2007.1350765000095,,,,,,,,,,,,,,,,,,,,,,,,,,,,2007.1191922000144,2007.1350765000095,2007.1350765000095,2007.618439099984,2007.6349841000049,2010.1181994000217,2010.1183685000287,None,1.0,,,,,,,,,,,,,,,,,,,,,,,,,,,,,,,,,,,,,,,,,,,nback52,1.0,2024-01-15_10h22.11.185,untitled,2023.2.3,60.01363510390888,2024-01-15 10h48.40.183444 -0500,
2.0,"[0.64, 0.4]",None,0.0,15.0,15.0,15.0,,,,,,,,,2010.134942899982,,,,,,,,,,,,,,,,,,,,,,,,,,,,2010.1190282999887,2010.134942899982,2010.134942899982,2010.6183387000349,2010.6350285999945,2013.118280199997,2013.1184796000016,None,1.0,,,,,,,,,,,,,,,,,,,,,,,,,,,,,,,,,,,,,,,,,,,nback52,1.0,2024-01-15_10h22.11.185,untitled,2023.2.3,60.01363510390888,2024-01-15 10h48.40.183444 -0500,
2.0,"[0.64, 0.4]",None,0.0,16.0,16.0,16.0,,,,,,,,,2013.134891499998,,,,,,,,,,,,,,,,,,,,,,,,,,,,2013.1192611000151,2013.134891499998,2013.134891499998,2013.6182140000165,2013.6348926000064,2016.1182397000373,2016.11840690003,None,1.0,,,,,,,,,,,,,,,,,,,,,,,,,,,,,,,,,,,,,,,,,,,nback52,1.0,2024-01-15_10h22.11.185,untitled,2023.2.3,60.01363510390888,2024-01-15 10h48.40.183444 -0500,
11.0,"[-0.64, -0.4]",space,0.0,17.0,17.0,17.0,,,,,,,,,2016.1348053999827,,,,,,,,,,,,,,,,,,,,,,,,,,,,2016.119064700033,2016.1348053999827,2016.1348053999827,2016.6181826000104,2016.6347641000173,2019.118166,2019.118365800008,space,1.0,0.6872588000260293,None,,,,,,,,,,,,,,,,,,,,,,,,,,,,,,,,,,,,,,,,,nback52,1.0,2024-01-15_10h22.11.185,untitled,2023.2.3,60.01363510390888,2024-01-15 10h48.40.183444 -0500,
11.0,"[-0.64, -0.4]",space,0.0,18.0,18.0,18.0,,,,,,,,,2019.134802100016,,,,,,,,,,,,,,,,,,,,,,,,,,,,2019.1193459000208,2019.134802100016,2019.134802100016,2019.6182170000395,2019.6348523999916,2022.1180759000129,2022.1182621000332,space,1.0,0.5352256000041962,None,,,,,,,,,,,,,,,,,,,,,,,,,,,,,,,,,,,,,,,,,nback52,1.0,2024-01-15_10h22.11.185,untitled,2023.2.3,60.01363510390888,2024-01-15 10h48.40.183444 -0500,
7.0,"[0.3, 0]",None,0.0,19.0,19.0,19.0,,,,,,,,,2022.134931000008,,,,,,,,,,,,,,,,,,,,,,,,,,,,2022.1192587999976,2022.134931000008,2022.134931000008,2022.6180922000203,2022.634681900032,2025.1179465000168,2025.1181175000384,None,1.0,,,,,,,,,,,,,,,,,,,,,,,,,,,,,,,,,,,,,,,,,,,nback52,1.0,2024-01-15_10h22.11.185,untitled,2023.2.3,60.01363510390888,2024-01-15 10h48.40.183444 -0500,
3.0,"[0, 0.2]",None,0.0,20.0,20.0,20.0,,,,,,,,,2025.1347002999971,,,,,,,,,,,,,,,,,,,,,,,,,,,,2025.1186940000043,2025.1347002999971,2025.1347002999971,2025.6181078000227,2025.634813599987,2028.118112199998,2028.118328200013,None,1.0,,,,,,,,,,,,,,,,,,,,,,,,,,,,,,,,,,,,,,,,,,,nback52,1.0,2024-01-15_10h22.11.185,untitled,2023.2.3,60.01363510390888,2024-01-15 10h48.40.183444 -0500,
10.0,"[0, -0.2]",None,0.0,21.0,21.0,21.0,,,,,,,,,2028.1346593000344,,,,,,,,,,,,,,,,,,,,,,,,,,,,2028.119141400035,2028.1346593000344,2028.1346593000344,2028.6178783000212,2028.634667100036,2031.1179239000196,2031.1181220000144,None,1.0,,,,,,,,,,,,,,,,,,,,,,,,,,,,,,,,,,,,,,,,,,,nback52,1.0,2024-01-15_10h22.11.185,untitled,2023.2.3,60.01363510390888,2024-01-15 10h48.40.183444 -0500,
1.0,"[-0.64, 0.4]",None,0.0,22.0,22.0,22.0,,,,,,,,,2031.1347586000336,,,,,,,,,,,,,,,,,,,,,,,,,,,,2031.118979400024,2031.1347586000336,2031.1347586000336,2031.6178897999928,2031.634641100012,2034.1179140000024,2034.1181099999808,None,1.0,,,,,,,,,,,,,,,,,,,,,,,,,,,,,,,,,,,,,,,,,,,nback52,1.0,2024-01-15_10h22.11.185,untitled,2023.2.3,60.01363510390888,2024-01-15 10h48.40.183444 -0500,
2.0,"[0.64, 0.4]",None,0.0,23.0,23.0,23.0,,,,,,,,,2034.134717000008,,,,,,,,,,,,,,,,,,,,,,,,,,,,2034.1188723000232,2034.134717000008,2034.134717000008,2034.6177957000327,2034.6344573000097,2037.117845700006,2037.1180423999904,None,1.0,,,,,,,,,,,,,,,,,,,,,,,,,,,,,,,,,,,,,,,,,,,nback52,1.0,2024-01-15_10h22.11.185,untitled,2023.2.3,60.01363510390888,2024-01-15 10h48.40.183444 -0500,
6.0,"[-0.3, 0]",None,0.0,24.0,24.0,24.0,,,,,,,,,2037.1345813000223,,,,,,,,,,,,,,,,,,,,,,,,,,,,2037.118847100006,2037.1345813000223,2037.1345813000223,2037.617855300021,2037.6345161999925,2040.1177464000064,2040.117929,None,1.0,,,,,,,,,,,,,,,,,,,,,,,,,,,,,,,,,,,,,,,,,,,nback52,1.0,2024-01-15_10h22.11.185,untitled,2023.2.3,60.01363510390888,2024-01-15 10h48.40.183444 -0500,
3.0,"[0, 0.2]",None,0.0,25.0,25.0,25.0,,,,,,,,,2040.134558700025,,,,,,,,,,,,,,,,,,,,,,,,,,,,2040.1187297999857,2040.134558700025,2040.134558700025,2040.6178086000143,2040.634430200036,2043.1179461000136,2043.118156899989,None,1.0,,,,,,,,,,,,,,,,,,,,,,,,,,,,,,,,,,,,,,,,,,,nback52,1.0,2024-01-15_10h22.11.185,untitled,2023.2.3,60.01363510390888,2024-01-15 10h48.40.183444 -0500,
11.0,"[-0.64, -0.4]",space,0.0,26.0,26.0,26.0,,,,,,,,,2043.134479500004,,,,,,,,,,,,,,,,,,,,,,,,,,,,2043.1190512999888,2043.134479500004,2043.134479500004,2043.617723000003,2043.6343081000375,2046.1176577000297,2046.117849900038,space,1.0,0.4565501000033691,None,,,,,,,,,,,,,,,,,,,,,,,,,,,,,,,,,,,,,,,,,nback52,1.0,2024-01-15_10h22.11.185,untitled,2023.2.3,60.01363510390888,2024-01-15 10h48.40.183444 -0500,
1.0,"[-0.64, 0.4]",None,0.0,27.0,27.0,27.0,,,,,,,,,2046.1344524000303,,,,,,,,,,,,,,,,,,,,,,,,,,,,2046.1187168000035,2046.1344524000303,2046.1344524000303,2046.6177419000303,2046.634479100001,2049.1175793000148,2049.1177883000346,None,1.0,,,,,,,,,,,,,,,,,,,,,,,,,,,,,,,,,,,,,,,,,,,nback52,1.0,2024-01-15_10h22.11.185,untitled,2023.2.3,60.01363510390888,2024-01-15 10h48.40.183444 -0500,
3.0,"[0, 0.2]",None,0.0,28.0,28.0,28.0,,,,,,,,,2049.1344043000136,,,,,,,,,,,,,,,,,,,,,,,,,,,,2049.1186075999867,2049.1344043000136,2049.1344043000136,2049.617544000037,2049.6344205000205,2052.1175802000216,2052.117759399989,None,1.0,,,,,,,,,,,,,,,,,,,,,,,,,,,,,,,,,,,,,,,,,,,nback52,1.0,2024-01-15_10h22.11.185,untitled,2023.2.3,60.01363510390888,2024-01-15 10h48.40.183444 -0500,
9.0,"[0.2, -0.1]",None,0.0,29.0,29.0,29.0,,,,,,,,,2052.134370999993,,,,,,,,,,,,,,,,,,,,,,,,,,,,2052.1184801000054,2052.134370999993,2052.134370999993,2052.617642700032,2052.634373000008,2055.1177577000344,2055.1179809999885,None,1.0,,,,,,,,,,,,,,,,,,,,,,,,,,,,,,,,,,,,,,,,,,,nback52,1.0,2024-01-15_10h22.11.185,untitled,2023.2.3,60.01363510390888,2024-01-15 10h48.40.183444 -0500,
8.0,"[-0.2, -0.1]",None,0.0,30.0,30.0,30.0,,,,,,,,,2055.1342550999834,,,,,,,,,,,,,,,,,,,,,,,,,,,,2055.118791199988,2055.1342550999834,2055.1342550999834,2055.617368999985,2055.634242400003,2058.1174666000297,2058.117655400012,None,1.0,,,,,,,,,,,,,,,,,,,,,,,,,,,,,,,,,,,,,,,,,,,nback52,1.0,2024-01-15_10h22.11.185,untitled,2023.2.3,60.01363510390888,2024-01-15 10h48.40.183444 -0500,
12.0,"[0.64, -0.4]",None,0.0,31.0,31.0,31.0,,,,,,,,,2058.1343474999885,,,,,,,,,,,,,,,,,,,,,,,,,,,,2058.1184416000037,2058.1343474999885,2058.1343474999885,2058.617489300028,2058.6342270000023,2061.1173555999994,2061.117530399992,None,1.0,,,,,,,,,,,,,,,,,,,,,,,,,,,,,,,,,,,,,,,,,,,nback52,1.0,2024-01-15_10h22.11.185,untitled,2023.2.3,60.01363510390888,2024-01-15 10h48.40.183444 -0500,
9.0,"[0.2, -0.1]",None,0.0,32.0,32.0,32.0,,,,,,,,,2061.134087199985,,,,,,,,,,,,,,,,,,,,,,,,,,,,2061.1182562999893,2061.134087199985,2061.134087199985,2061.617455200001,2061.634167400014,2064.1175106000155,2064.1177229000023,None,1.0,,,,,,,,,,,,,,,,,,,,,,,,,,,,,,,,,,,,,,,,,,,nback52,1.0,2024-01-15_10h22.11.185,untitled,2023.2.3,60.01363510390888,2024-01-15 10h48.40.183444 -0500,
11.0,"[-0.64, -0.4]",space,0.0,33.0,33.0,33.0,,,,,,,,,2064.134053400019,,,,,,,,,,,,,,,,,,,,,,,,,,,,2064.118526700011,2064.134053400019,2064.134053400019,2064.617343800026,2064.6340349999955,2067.1173327,2067.1175006999983,space,1.0,0.4447937000077218,None,,,,,,,,,,,,,,,,,,,,,,,,,,,,,,,,,,,,,,,,,nback52,1.0,2024-01-15_10h22.11.185,untitled,2023.2.3,60.01363510390888,2024-01-15 10h48.40.183444 -0500,
7.0,"[0.3, 0]",None,0.0,34.0,34.0,34.0,,,,,,,,,2067.1339298000094,,,,,,,,,,,,,,,,,,,,,,,,,,,,2067.1183121000067,2067.1339298000094,2067.1339298000094,2067.617459500034,2067.633987599984,2070.117348800006,2070.117549600021,None,1.0,,,,,,,,,,,,,,,,,,,,,,,,,,,,,,,,,,,,,,,,,,,nback52,1.0,2024-01-15_10h22.11.185,untitled,2023.2.3,60.01363510390888,2024-01-15 10h48.40.183444 -0500,
11.0,"[-0.64, -0.4]",space,0.0,35.0,35.0,35.0,,,,,,,,,2070.1339726999868,,,,,,,,,,,,,,,,,,,,,,,,,,,,2070.1183292000205,2070.1339726999868,2070.1339726999868,2070.6172732000123,2070.6340081000235,2073.117213300022,2073.1173834000365,space,1.0,0.5714123999932781,None,,,,,,,,,,,,,,,,,,,,,,,,,,,,,,,,,,,,,,,,,nback52,1.0,2024-01-15_10h22.11.185,untitled,2023.2.3,60.01363510390888,2024-01-15 10h48.40.183444 -0500,
4.0,"[-0.2, 0.1]",None,0.0,36.0,36.0,36.0,,,,,,,,,2073.133842899988,,,,,,,,,,,,,,,,,,,,,,,,,,,,2073.118309799989,2073.133842899988,2073.133842899988,2073.6173322999966,2073.633894100029,2076.117343300022,2076.1175921999966,space,0.0,0.4610123999882489,None,,,,,,,,,,,,,,,,,,,,,,,,,,,,,,,,,,,,,,,,,nback52,1.0,2024-01-15_10h22.11.185,untitled,2023.2.3,60.01363510390888,2024-01-15 10h48.40.183444 -0500,
5.0,"[0.2, 0.1]",None,0.0,37.0,37.0,37.0,,,,,,,,,2076.1338128999923,,,,,,,,,,,,,,,,,,,,,,,,,,,,2076.118675999984,2076.1338128999923,2076.1338128999923,2076.6172394999885,2076.6338565000333,2079.1172380000357,2079.1174239999964,None,1.0,,,,,,,,,,,,,,,,,,,,,,,,,,,,,,,,,,,,,,,,,,,nback52,1.0,2024-01-15_10h22.11.185,untitled,2023.2.3,60.01363510390888,2024-01-15 10h48.40.183444 -0500,
6.0,"[-0.3, 0]",None,0.0,38.0,38.0,38.0,,,,,,,,,2079.133842099982,,,,,,,,,,,,,,,,,,,,,,,,,,,,2079.118176400021,2079.133842099982,2079.133842099982,2079.6172932999907,2079.6337589999894,2082.117174200015,2082.117349100008,None,1.0,,,,,,,,,,,,,,,,,,,,,,,,,,,,,,,,,,,,,,,,,,,nback52,1.0,2024-01-15_10h22.11.185,untitled,2023.2.3,60.01363510390888,2024-01-15 10h48.40.183444 -0500,
11.0,"[-0.64, -0.4]",space,0.0,39.0,39.0,39.0,,,,,,,,,2082.133795700036,,,,,,,,,,,,,,,,,,,,,,,,,,,,2082.1180777000263,2082.133795700036,2082.133795700036,2082.6170782999834,2082.6338435999933,2085.1171227000304,2085.1173262000084,space,1.0,0.519089300010819,None,,,,,,,,,,,,,,,,,,,,,,,,,,,,,,,,,,,,,,,,,nback52,1.0,2024-01-15_10h22.11.185,untitled,2023.2.3,60.01363510390888,2024-01-15 10h48.40.183444 -0500,
,,,,,,,,,,,,,,,,,,,,,,,,,,,,,,,,,,,,,,,,,,,,,,,,,,,,,,2085.1181050000014,2085.1338016000227,2085.1338016000227,2149.8839405000326,space,64.74730589997489,None,,,,,,,,,,,,,,,,,,,,,,,,,,,,,,,,,,nback52,1.0,2024-01-15_10h22.11.185,untitled,2023.2.3,60.01363510390888,2024-01-15 10h48.40.183444 -0500,
10.0,"[0, -0.2]",None,,,,,0.0,0.0,0.0,0.0,,,,,2150.9001403999864,,,,,,,,,,,,,,,,,,,,,,,,2149.8839798999834,2149.8990922000376,2150.9001403999864,2150.883378700004,,,,,,,,,,,,,,,,,,,2150.898113000032,2150.9001403999864,2150.9001403999864,2151.399222499982,2151.399222499982,2153.8991503000143,2153.8991503000143,2153.8835612999974,None,1.0,,,,,,,,,,,,,,,,,,,,,,,,nback52,1.0,2024-01-15_10h22.11.185,untitled,2023.2.3,60.01363510390888,2024-01-15 10h48.40.183444 -0500,
5.0,"[0.2, 0.1]",None,,,,,0.0,1.0,1.0,1.0,,,,,2153.8991503000143,,,,,,,,,,,,,,,,,,,,,,,,,,,,,,,,,,,,,,,,,,,,,,2153.8845766999875,2153.8991503000143,2153.8991503000143,2154.399236300029,2154.399236300029,2156.899203700013,2156.899203700013,2156.883183300029,None,1.0,,,,,,,,,,,,,,,,,,,,,,,,nback52,1.0,2024-01-15_10h22.11.185,untitled,2023.2.3,60.01363510390888,2024-01-15 10h48.40.183444 -0500,
6.0,"[-0.3, 0]",None,,,,,0.0,2.0,2.0,2.0,,,,,2156.899203700013,,,,,,,,,,,,,,,,,,,,,,,,,,,,,,,,,,,,,,,,,,,,,,2156.883799300005,2156.899203700013,2156.899203700013,2157.399142500013,2157.399142500013,2159.8991825000267,2159.8991825000267,2159.8832206000225,None,1.0,,,,,,,,,,,,,,,,,,,,,,,,nback52,1.0,2024-01-15_10h22.11.185,untitled,2023.2.3,60.01363510390888,2024-01-15 10h48.40.183444 -0500,
6.0,"[-0.3, 0]",space,,,,,0.0,3.0,3.0,3.0,,,,,2159.8991825000267,,,,,,,,,,,,,,,,,,,,,,,,,,,,,,,,,,,,,,,,,,,,,,2159.883864700037,2159.8991825000267,2159.8991825000267,2160.399009399989,2160.399009399989,2162.898983000021,2162.898983000021,2162.883328200027,space,1.0,0.5310174000333063,None,,,,,,,,,,,,,,,,,,,,,,nback52,1.0,2024-01-15_10h22.11.185,untitled,2023.2.3,60.01363510390888,2024-01-15 10h48.40.183444 -0500,
12.0,"[0.64, -0.4]",None,,,,,0.0,4.0,4.0,4.0,,,,,2162.898983000021,,,,,,,,,,,,,,,,,,,,,,,,,,,,,,,,,,,,,,,,,,,,,,2162.884302599996,2162.898983000021,2162.898983000021,2163.399071699998,2163.399071699998,2165.898841099988,2165.898841099988,2165.883221400029,None,1.0,,,,,,,,,,,,,,,,,,,,,,,,nback52,1.0,2024-01-15_10h22.11.185,untitled,2023.2.3,60.01363510390888,2024-01-15 10h48.40.183444 -0500,
10.0,"[0, -0.2]",None,,,,,0.0,5.0,5.0,5.0,,,,,2165.898841099988,,,,,,,,,,,,,,,,,,,,,,,,,,,,,,,,,,,,,,,,,,,,,,2165.8840018000337,2165.898841099988,2165.898841099988,2166.399012000009,2166.399012000009,2168.8989513000124,2168.8989513000124,2168.883125499997,None,1.0,,,,,,,,,,,,,,,,,,,,,,,,nback52,1.0,2024-01-15_10h22.11.185,untitled,2023.2.3,60.01363510390888,2024-01-15 10h48.40.183444 -0500,
2.0,"[0.64, 0.4]",None,,,,,0.0,6.0,6.0,6.0,,,,,2168.8989513000124,,,,,,,,,,,,,,,,,,,,,,,,,,,,,,,,,,,,,,,,,,,,,,2168.883868100005,2168.8989513000124,2168.8989513000124,2169.3989022999885,2169.3989022999885,2171.898626899987,2171.898626899987,2171.883242800017,None,1.0,,,,,,,,,,,,,,,,,,,,,,,,nback52,1.0,2024-01-15_10h22.11.185,untitled,2023.2.3,60.01363510390888,2024-01-15 10h48.40.183444 -0500,
9.0,"[0.2, -0.1]",None,,,,,0.0,7.0,7.0,7.0,,,,,2171.898626899987,,,,,,,,,,,,,,,,,,,,,,,,,,,,,,,,,,,,,,,,,,,,,,2171.883971500036,2171.898626899987,2171.898626899987,2172.3988527000183,2172.3988527000183,2174.89895599999,2174.89895599999,2174.883334400016,None,1.0,,,,,,,,,,,,,,,,,,,,,,,,nback52,1.0,2024-01-15_10h22.11.185,untitled,2023.2.3,60.01363510390888,2024-01-15 10h48.40.183444 -0500,
9.0,"[0.2, -0.1]",space,,,,,0.0,8.0,8.0,8.0,,,,,2174.89895599999,,,,,,,,,,,,,,,,,,,,,,,,,,,,,,,,,,,,,,,,,,,,,,2174.8842291000183,2174.89895599999,2174.89895599999,2175.398905400012,2175.398905400012,2177.8987895000027,2177.8987895000027,2177.88324689999,space,1.0,0.6474603999522515,None,,,,,,,,,,,,,,,,,,,,,,nback52,1.0,2024-01-15_10h22.11.185,untitled,2023.2.3,60.01363510390888,2024-01-15 10h48.40.183444 -0500,
6.0,"[-0.3, 0]",None,,,,,0.0,9.0,9.0,9.0,,,,,2177.8987895000027,,,,,,,,,,,,,,,,,,,,,,,,,,,,,,,,,,,,,,,,,,,,,,2177.884128500009,2177.8987895000027,2177.8987895000027,2178.398815900029,2178.398815900029,2180.8985192999826,2180.8985192999826,2180.8830672000186,None,1.0,,,,,,,,,,,,,,,,,,,,,,,,nback52,1.0,2024-01-15_10h22.11.185,untitled,2023.2.3,60.01363510390888,2024-01-15 10h48.40.183444 -0500,
11.0,"[-0.64, -0.4]",None,,,,,0.0,10.0,10.0,10.0,,,,,2180.8985192999826,,,,,,,,,,,,,,,,,,,,,,,,,,,,,,,,,,,,,,,,,,,,,,2180.8838728999835,2180.8985192999826,2180.8985192999826,2181.398808100028,2181.398808100028,2183.898590099998,2183.898590099998,2183.883074500016,None,1.0,,,,,,,,,,,,,,,,,,,,,,,,nback52,1.0,2024-01-15_10h22.11.185,untitled,2023.2.3,60.01363510390888,2024-01-15 10h48.40.183444 -0500,
11.0,"[-0.64, -0.4]",space,,,,,0.0,11.0,11.0,11.0,,,,,2183.898590099998,,,,,,,,,,,,,,,,,,,,,,,,,,,,,,,,,,,,,,,,,,,,,,2183.883796899987,2183.898590099998,2183.898590099998,2184.398660900013,2184.398660900013,2186.898752500012,2186.898752500012,2186.883001399983,None,0.0,,,,,,,,,,,,,,,,,,,,,,,,nback52,1.0,2024-01-15_10h22.11.185,untitled,2023.2.3,60.01363510390888,2024-01-15 10h48.40.183444 -0500,
4.0,"[-0.2, 0.1]",None,,,,,0.0,12.0,12.0,12.0,,,,,2186.898752500012,,,,,,,,,,,,,,,,,,,,,,,,,,,,,,,,,,,,,,,,,,,,,,2186.8838295000023,2186.898752500012,2186.898752500012,2187.3986589999986,2187.3986589999986,2189.898539000016,2189.898539000016,2189.88284700003,None,1.0,,,,,,,,,,,,,,,,,,,,,,,,nback52,1.0,2024-01-15_10h22.11.185,untitled,2023.2.3,60.01363510390888,2024-01-15 10h48.40.183444 -0500,
3.0,"[0, 0.2]",None,,,,,0.0,13.0,13.0,13.0,,,,,2189.898539000016,,,,,,,,,,,,,,,,,,,,,,,,,,,,,,,,,,,,,,,,,,,,,,2189.883603300026,2189.898539000016,2189.898539000016,2190.398500700016,2190.398500700016,2192.898528699996,2192.898528699996,2192.883037100022,None,1.0,,,,,,,,,,,,,,,,,,,,,,,,nback52,1.0,2024-01-15_10h22.11.185,untitled,2023.2.3,60.01363510390888,2024-01-15 10h48.40.183444 -0500,
3.0,"[0, 0.2]",space,,,,,0.0,14.0,14.0,14.0,,,,,2192.898528699996,,,,,,,,,,,,,,,,,,,,,,,,,,,,,,,,,,,,,,,,,,,,,,2192.8838722000364,2192.898528699996,2192.898528699996,2193.398462800018,2193.398462800018,2195.898525400029,2195.898525400029,2195.882642199984,space,1.0,0.7906409000279382,None,,,,,,,,,,,,,,,,,,,,,,nback52,1.0,2024-01-15_10h22.11.185,untitled,2023.2.3,60.01363510390888,2024-01-15 10h48.40.183444 -0500,
8.0,"[-0.2, -0.1]",None,,,,,0.0,15.0,15.0,15.0,,,,,2195.898525400029,,,,,,,,,,,,,,,,,,,,,,,,,,,,,,,,,,,,,,,,,,,,,,2195.88343430002,2195.898525400029,2195.898525400029,2196.398449200031,2196.398449200031,2198.8985747999977,2198.8985747999977,2198.8829436000087,None,1.0,,,,,,,,,,,,,,,,,,,,,,,,nback52,1.0,2024-01-15_10h22.11.185,untitled,2023.2.3,60.01363510390888,2024-01-15 10h48.40.183444 -0500,
1.0,"[-0.64, 0.4]",None,,,,,0.0,16.0,16.0,16.0,,,,,2198.8985747999977,,,,,,,,,,,,,,,,,,,,,,,,,,,,,,,,,,,,,,,,,,,,,,2198.8837750999955,2198.8985747999977,2198.8985747999977,2199.3984513999894,2199.3984513999894,2201.898392400006,2201.898392400006,2201.882930600026,None,1.0,,,,,,,,,,,,,,,,,,,,,,,,nback52,1.0,2024-01-15_10h22.11.185,untitled,2023.2.3,60.01363510390888,2024-01-15 10h48.40.183444 -0500,
2.0,"[0.64, 0.4]",None,,,,,0.0,17.0,17.0,17.0,,,,,2201.898392400006,,,,,,,,,,,,,,,,,,,,,,,,,,,,,,,,,,,,,,,,,,,,,,2201.883772200032,2201.898392400006,2201.898392400006,2202.3984862000216,2202.3984862000216,2204.898328399984,2204.898328399984,2204.882633100031,None,1.0,,,,,,,,,,,,,,,,,,,,,,,,nback52,1.0,2024-01-15_10h22.11.185,untitled,2023.2.3,60.01363510390888,2024-01-15 10h48.40.183444 -0500,
4.0,"[-0.2, 0.1]",None,,,,,0.0,18.0,18.0,18.0,,,,,2204.898328399984,,,,,,,,,,,,,,,,,,,,,,,,,,,,,,,,,,,,,,,,,,,,,,2204.8834046000266,2204.898328399984,2204.898328399984,2205.3982147999923,2205.3982147999923,2207.898224700009,2207.898224700009,2207.882390099985,None,1.0,,,,,,,,,,,,,,,,,,,,,,,,nback52,1.0,2024-01-15_10h22.11.185,untitled,2023.2.3,60.01363510390888,2024-01-15 10h48.40.183444 -0500,
4.0,"[-0.2, 0.1]",space,,,,,0.0,19.0,19.0,19.0,,,,,2207.898224700009,,,,,,,,,,,,,,,,,,,,,,,,,,,,,,,,,,,,,,,,,,,,,,2207.8829788999865,2207.898224700009,2207.898224700009,2208.398142400023,2208.398142400023,2210.898103000014,2210.898103000014,2210.882664300036,space,1.0,0.4961330000078305,None,,,,,,,,,,,,,,,,,,,,,,nback52,1.0,2024-01-15_10h22.11.185,untitled,2023.2.3,60.01363510390888,2024-01-15 10h48.40.183444 -0500,
8.0,"[-0.2, -0.1]",None,,,,,0.0,20.0,20.0,20.0,,,,,2210.898103000014,,,,,,,,,,,,,,,,,,,,,,,,,,,,,,,,,,,,,,,,,,,,,,2210.8836190000293,2210.898103000014,2210.898103000014,2211.398207499995,2211.398207499995,2213.898001900001,2213.898001900001,2213.8824586999835,None,1.0,,,,,,,,,,,,,,,,,,,,,,,,nback52,1.0,2024-01-15_10h22.11.185,untitled,2023.2.3,60.01363510390888,2024-01-15 10h48.40.183444 -0500,
5.0,"[0.2, 0.1]",None,,,,,0.0,21.0,21.0,21.0,,,,,2213.898001900001,,,,,,,,,,,,,,,,,,,,,,,,,,,,,,,,,,,,,,,,,,,,,,2213.8831712999963,2213.898001900001,2213.898001900001,2214.3982190000243,2214.3982190000243,2216.898188000021,2216.898188000021,2216.8824153000023,None,1.0,,,,,,,,,,,,,,,,,,,,,,,,nback52,1.0,2024-01-15_10h22.11.185,untitled,2023.2.3,60.01363510390888,2024-01-15 10h48.40.183444 -0500,
5.0,"[0.2, 0.1]",space,,,,,0.0,22.0,22.0,22.0,,,,,2216.898188000021,,,,,,,,,,,,,,,,,,,,,,,,,,,,,,,,,,,,,,,,,,,,,,2216.883183300029,2216.898188000021,2216.898188000021,2217.3981339000165,2217.3981339000165,2219.898097900033,2219.898097900033,2219.8824877000297,space,1.0,0.6975294000003487,None,,,,,,,,,,,,,,,,,,,,,,nback52,1.0,2024-01-15_10h22.11.185,untitled,2023.2.3,60.01363510390888,2024-01-15 10h48.40.183444 -0500,
1.0,"[-0.64, 0.4]",None,,,,,0.0,23.0,23.0,23.0,,,,,2219.898097900033,,,,,,,,,,,,,,,,,,,,,,,,,,,,,,,,,,,,,,,,,,,,,,2219.8834186000167,2219.898097900033,2219.898097900033,2220.398028300028,2220.398028300028,2222.8980774999945,2222.8980774999945,2222.882039999997,None,1.0,,,,,,,,,,,,,,,,,,,,,,,,nback52,1.0,2024-01-15_10h22.11.185,untitled,2023.2.3,60.01363510390888,2024-01-15 10h48.40.183444 -0500,
3.0,"[0, 0.2]",None,,,,,0.0,24.0,24.0,24.0,,,,,2222.8980774999945,,,,,,,,,,,,,,,,,,,,,,,,,,,,,,,,,,,,,,,,,,,,,,2222.8827132000006,2222.8980774999945,2222.8980774999945,2223.3981011,2223.3981011,2225.897855899995,2225.897855899995,2225.882046499988,None,1.0,,,,,,,,,,,,,,,,,,,,,,,,nback52,1.0,2024-01-15_10h22.11.185,untitled,2023.2.3,60.01363510390888,2024-01-15 10h48.40.183444 -0500,
6.0,"[-0.3, 0]",None,,,,,0.0,25.0,25.0,25.0,,,,,2225.897855899995,,,,,,,,,,,,,,,,,,,,,,,,,,,,,,,,,,,,,,,,,,,,,,2225.882695200038,2225.897855899995,2225.897855899995,2226.3979985000333,2226.3979985000333,2228.8978478999925,2228.8978478999925,2228.881949200004,None,1.0,,,,,,,,,,,,,,,,,,,,,,,,nback52,1.0,2024-01-15_10h22.11.185,untitled,2023.2.3,60.01363510390888,2024-01-15 10h48.40.183444 -0500,
1.0,"[-0.64, 0.4]",None,,,,,0.0,26.0,26.0,26.0,,,,,2228.8978478999925,,,,,,,,,,,,,,,,,,,,,,,,,,,,,,,,,,,,,,,,,,,,,,2228.882559899997,2228.8978478999925,2228.8978478999925,2229.397943800024,2229.397943800024,2231.8978097999934,2231.8978097999934,2231.882102300005,None,1.0,,,,,,,,,,,,,,,,,,,,,,,,nback52,1.0,2024-01-15_10h22.11.185,untitled,2023.2.3,60.01363510390888,2024-01-15 10h48.40.183444 -0500,
1.0,"[-0.64, 0.4]",space,,,,,0.0,27.0,27.0,27.0,,,,,2231.8978097999934,,,,,,,,,,,,,,,,,,,,,,,,,,,,,,,,,,,,,,,,,,,,,,2231.8828761000186,2231.8978097999934,2231.8978097999934,2232.3975861000363,2232.3975861000363,2234.8976949999924,2234.8976949999924,2234.8819718000013,space,1.0,0.6159008000395261,None,,,,,,,,,,,,,,,,,,,,,,nback52,1.0,2024-01-15_10h22.11.185,untitled,2023.2.3,60.01363510390888,2024-01-15 10h48.40.183444 -0500,
1.0,"[-0.64, 0.4]",space,,,,,0.0,28.0,28.0,28.0,,,,,2234.8976949999924,,,,,,,,,,,,,,,,,,,,,,,,,,,,,,,,,,,,,,,,,,,,,,2234.882847400033,2234.8976949999924,2234.8976949999924,2235.397761300032,2235.397761300032,2237.897717999993,2237.897717999993,2237.8821922999923,space,1.0,1.096075400011614,None,,,,,,,,,,,,,,,,,,,,,,nback52,1.0,2024-01-15_10h22.11.185,untitled,2023.2.3,60.01363510390888,2024-01-15 10h48.40.183444 -0500,
3.0,"[0, 0.2]",None,,,,,0.0,29.0,29.0,29.0,,,,,2237.897717999993,,,,,,,,,,,,,,,,,,,,,,,,,,,,,,,,,,,,,,,,,,,,,,2237.883222899982,2237.897717999993,2237.897717999993,2238.397724899987,2238.397724899987,2240.897610299988,2240.897610299988,2240.882185299997,None,1.0,,,,,,,,,,,,,,,,,,,,,,,,nback52,1.0,2024-01-15_10h22.11.185,untitled,2023.2.3,60.01363510390888,2024-01-15 10h48.40.183444 -0500,
12.0,"[0.64, -0.4]",None,,,,,0.0,30.0,30.0,30.0,,,,,2240.897610299988,,,,,,,,,,,,,,,,,,,,,,,,,,,,,,,,,,,,,,,,,,,,,,2240.8830099999905,2240.897610299988,2240.897610299988,2241.397582100006,2241.397582100006,2243.897545100015,2243.897545100015,2243.8818357000127,None,1.0,,,,,,,,,,,,,,,,,,,,,,,,nback52,1.0,2024-01-15_10h22.11.185,untitled,2023.2.3,60.01363510390888,2024-01-15 10h48.40.183444 -0500,
12.0,"[0.64, -0.4]",space,,,,,0.0,31.0,31.0,31.0,,,,,2243.897545100015,,,,,,,,,,,,,,,,,,,,,,,,,,,,,,,,,,,,,,,,,,,,,,2243.8825271000387,2243.897545100015,2243.897545100015,2244.397610299988,2244.397610299988,2246.8974039999885,2246.8974039999885,2246.881680599996,space,1.0,0.9436987999943084,None,,,,,,,,,,,,,,,,,,,,,,nback52,1.0,2024-01-15_10h22.11.185,untitled,2023.2.3,60.01363510390888,2024-01-15 10h48.40.183444 -0500,
2.0,"[0.64, 0.4]",None,,,,,0.0,32.0,32.0,32.0,,,,,2246.8974039999885,,,,,,,,,,,,,,,,,,,,,,,,,,,,,,,,,,,,,,,,,,,,,,2246.882444499992,2246.8974039999885,2246.8974039999885,2247.3976742000086,2247.3976742000086,2249.897632999986,2249.897632999986,2249.8819196000118,None,1.0,,,,,,,,,,,,,,,,,,,,,,,,nback52,1.0,2024-01-15_10h22.11.185,untitled,2023.2.3,60.01363510390888,2024-01-15 10h48.40.183444 -0500,
1.0,"[-0.64, 0.4]",None,,,,,0.0,33.0,33.0,33.0,,,,,2249.897632999986,,,,,,,,,,,,,,,,,,,,,,,,,,,,,,,,,,,,,,,,,,,,,,2249.88274500001,2249.897632999986,2249.897632999986,2250.397531500028,2250.397531500028,2252.897572099988,2252.897572099988,2252.8821984999813,None,1.0,,,,,,,,,,,,,,,,,,,,,,,,nback52,1.0,2024-01-15_10h22.11.185,untitled,2023.2.3,60.01363510390888,2024-01-15 10h48.40.183444 -0500,
7.0,"[0.3, 0]",None,,,,,0.0,34.0,34.0,34.0,,,,,2252.897572099988,,,,,,,,,,,,,,,,,,,,,,,,,,,,,,,,,,,,,,,,,,,,,,2252.8828890000004,2252.897572099988,2252.897572099988,2253.397396299988,2253.397396299988,2255.897625299985,2255.897625299985,2255.8818250999902,None,1.0,,,,,,,,,,,,,,,,,,,,,,,,nback52,1.0,2024-01-15_10h22.11.185,untitled,2023.2.3,60.01363510390888,2024-01-15 10h48.40.183444 -0500,
7.0,"[0.3, 0]",space,,,,,0.0,35.0,35.0,35.0,,,,,2255.897625299985,,,,,,,,,,,,,,,,,,,,,,,,,,,,,,,,,,,,,,,,,,,,,,2255.8826570000383,2255.897625299985,2255.897625299985,2256.3975489999866,2256.3975489999866,2258.897485600028,2258.897485600028,2258.8816061000107,space,1.0,0.6383219999843277,None,,,,,,,,,,,,,,,,,,,,,,nback52,1.0,2024-01-15_10h22.11.185,untitled,2023.2.3,60.01363510390888,2024-01-15 10h48.40.183444 -0500,
11.0,"[-0.64, -0.4]",None,,,,,0.0,36.0,36.0,36.0,,,,,2258.897485600028,,,,,,,,,,,,,,,,,,,,,,,,,,,,,,,,,,,,,,,,,,,,,,2258.882505799993,2258.897485600028,2258.897485600028,2259.3973335000337,2259.3973335000337,2261.8974754000083,2261.8974754000083,2261.8817126000067,None,1.0,,,,,,,,,,,,,,,,,,,,,,,,nback52,1.0,2024-01-15_10h22.11.185,untitled,2023.2.3,60.01363510390888,2024-01-15 10h48.40.183444 -0500,
2.0,"[0.64, 0.4]",None,,,,,0.0,37.0,37.0,37.0,,,,,2261.8974754000083,,,,,,,,,,,,,,,,,,,,,,,,,,,,,,,,,,,,,,,,,,,,,,2261.882534400036,2261.8974754000083,2261.8974754000083,2262.397321700002,2262.397321700002,2264.8973316000192,2264.8973316000192,2264.881671499985,None,1.0,,,,,,,,,,,,,,,,,,,,,,,,nback52,1.0,2024-01-15_10h22.11.185,untitled,2023.2.3,60.01363510390888,2024-01-15 10h48.40.183444 -0500,
6.0,"[-0.3, 0]",None,,,,,0.0,38.0,38.0,38.0,,,,,2264.8973316000192,,,,,,,,,,,,,,,,,,,,,,,,,,,,,,,,,,,,,,,,,,,,,,2264.8824909999967,2264.8973316000192,2264.8973316000192,2265.397349899984,2265.397349899984,2267.897156400024,2267.897156400024,2267.8811644000234,None,1.0,,,,,,,,,,,,,,,,,,,,,,,,nback52,1.0,2024-01-15_10h22.11.185,untitled,2023.2.3,60.01363510390888,2024-01-15 10h48.40.183444 -0500,
10.0,"[0, -0.2]",None,,,,,0.0,39.0,39.0,39.0,,,,,2267.897156400024,,,,,,,,,,,,,,,,,,,,,,,,,,,,,,,,,,,,,,,,,,,,,,2267.881720300007,2267.897156400024,2267.897156400024,2268.39727810002,2268.39727810002,2270.897218000028,2270.897218000028,2270.8812584999832,None,1.0,,,,,,,,,,,,,,,,,,,,,,,,nback52,1.0,2024-01-15_10h22.11.185,untitled,2023.2.3,60.01363510390888,2024-01-15 10h48.40.183444 -0500,
,,,,,,,,,,,,,,,,,,,,,,,,,,,,,,,,,,,,,,,,,,,,,,,,,,,,,,,,,,,,,,,,,,,,,,,,,2270.88169140002,2270.897218000028,2270.897218000028,2289.531680900021,space,18.62096859997837,None,,,,,,,,,,,,,,,nback52,1.0,2024-01-15_10h22.11.185,untitled,2023.2.3,60.01363510390888,2024-01-15 10h48.40.183444 -0500,
,"[0.2, 0.1]",None,,,,,,,,,0.0,0.0,0.0,0.0,2290.549349899986,,,,,,,,,,,,,,,,,,,,,,,,2289.531726300018,2289.547088099993,2290.549349899986,2290.531184700026,,,,,,,,,,,,,,,,,,,,,,,,,,,,,,,,,,,,,,2290.5473991000326,2290.549349899986,2290.549349899986,2291.0468636000296,2291.063451200025,2293.5467609000043,2293.5469636000344,None,1.0,,,,,,nback52,1.0,2024-01-15_10h22.11.185,untitled,2023.2.3,60.01363510390888,2024-01-15 10h48.40.183444 -0500,
,"[0.64, 0.4]",None,,,,,,,,,0.0,1.0,1.0,1.0,2293.5634440000285,,,,,,,,,,,,,,,,,,,,,,,,,,,,,,,,,,,,,,,,,,,,,,,,,,,,,,,,,,,,,,,,,2293.547955600021,2293.5634440000285,2293.5634440000285,2294.0468906000024,2294.0634109000093,2296.546841400035,2296.5470212000077,None,1.0,,,,,,nback52,1.0,2024-01-15_10h22.11.185,untitled,2023.2.3,60.01363510390888,2024-01-15 10h48.40.183444 -0500,
,"[-0.3, 0]",None,,,,,,,,,0.0,2.0,2.0,2.0,2296.5634240999934,,,,,,,,,,,,,,,,,,,,,,,,,,,,,,,,,,,,,,,,,,,,,,,,,,,,,,,,,,,,,,,,,2296.5477051000344,2296.5634240999934,2296.5634240999934,2297.0467909,2297.063391999982,2299.5467940000235,2299.546978200029,None,1.0,,,,,,nback52,1.0,2024-01-15_10h22.11.185,untitled,2023.2.3,60.01363510390888,2024-01-15 10h48.40.183444 -0500,
,"[0.2, -0.1]",None,,,,,,,,,0.0,3.0,3.0,3.0,2299.5633992000367,,,,,,,,,,,,,,,,,,,,,,,,,,,,,,,,,,,,,,,,,,,,,,,,,,,,,,,,,,,,,,,,,2299.5476896000328,2299.5633992000367,2299.5633992000367,2300.0465876000235,2300.0633175999974,2302.546559599985,2302.546769400011,None,1.0,,,,,,nback52,1.0,2024-01-15_10h22.11.185,untitled,2023.2.3,60.01363510390888,2024-01-15 10h48.40.183444 -0500,
,"[0, 0.2]",None,,,,,,,,,0.0,4.0,4.0,4.0,2302.5633747000247,,,,,,,,,,,,,,,,,,,,,,,,,,,,,,,,,,,,,,,,,,,,,,,,,,,,,,,,,,,,,,,,,2302.547622199985,2302.5633747000247,2302.5633747000247,2303.046490000037,2303.0633697999874,2305.546559999988,2305.5467480000225,None,1.0,,,,,,nback52,1.0,2024-01-15_10h22.11.185,untitled,2023.2.3,60.01363510390888,2024-01-15 10h48.40.183444 -0500,
,"[0.2, -0.1]",space,,,,,,,,,0.0,5.0,5.0,5.0,2305.563314700033,,,,,,,,,,,,,,,,,,,,,,,,,,,,,,,,,,,,,,,,,,,,,,,,,,,,,,,,,,,,,,,,,2305.5474821000244,2305.563314700033,2305.563314700033,2306.046660199994,2306.0632785999915,2308.546552999993,2308.546759999997,space,1.0,0.5749248000211082,None,,,,nback52,1.0,2024-01-15_10h22.11.185,untitled,2023.2.3,60.01363510390888,2024-01-15 10h48.40.183444 -0500,
,"[0, -0.2]",None,,,,,,,,,0.0,6.0,6.0,6.0,2308.563282200019,,,,,,,,,,,,,,,,,,,,,,,,,,,,,,,,,,,,,,,,,,,,,,,,,,,,,,,,,,,,,,,,,2308.548006900004,2308.563282200019,2308.563282200019,2309.046620799985,2309.063290800026,2311.546476999996,2311.546689799987,None,1.0,,,,,,nback52,1.0,2024-01-15_10h22.11.185,untitled,2023.2.3,60.01363510390888,2024-01-15 10h48.40.183444 -0500,
,"[0.64, -0.4]",None,,,,,,,,,0.0,7.0,7.0,7.0,2311.563263499993,,,,,,,,,,,,,,,,,,,,,,,,,,,,,,,,,,,,,,,,,,,,,,,,,,,,,,,,,,,,,,,,,2311.547650100023,2311.563263499993,2311.563263499993,2312.0465875000227,2312.0631474999827,2314.5464300999884,2314.546628299984,None,1.0,,,,,,nback52,1.0,2024-01-15_10h22.11.185,untitled,2023.2.3,60.01363510390888,2024-01-15 10h48.40.183444 -0500,
,"[0.3, 0]",None,,,,,,,,,0.0,8.0,8.0,8.0,2314.563071099983,,,,,,,,,,,,,,,,,,,,,,,,,,,,,,,,,,,,,,,,,,,,,,,,,,,,,,,,,,,,,,,,,2314.5474191000103,2314.563071099983,2314.563071099983,2315.046309700003,2315.063039700035,2317.546301399998,2317.5464470000006,None,1.0,,,,,,nback52,1.0,2024-01-15_10h22.11.185,untitled,2023.2.3,60.01363510390888,2024-01-15 10h48.40.183444 -0500,
,"[0.64, -0.4]",space,,,,,,,,,0.0,9.0,9.0,9.0,2317.562969700026,,,,,,,,,,,,,,,,,,,,,,,,,,,,,,,,,,,,,,,,,,,,,,,,,,,,,,,,,,,,,,,,,2317.54704720003,2317.562969700026,2317.562969700026,2318.046363600006,2318.0630402999814,2320.546432700008,2320.5466460000025,space,1.0,0.7198790999827906,None,,,,nback52,1.0,2024-01-15_10h22.11.185,untitled,2023.2.3,60.01363510390888,2024-01-15 10h48.40.183444 -0500,
,"[-0.64, 0.4]",None,,,,,,,,,0.0,10.0,10.0,10.0,2320.562959600007,,,,,,,,,,,,,,,,,,,,,,,,,,,,,,,,,,,,,,,,,,,,,,,,,,,,,,,,,,,,,,,,,2320.547590500035,2320.562959600007,2320.562959600007,2321.046329899982,2321.062999900023,2323.546317600005,2323.5465071999934,None,1.0,,,,,,nback52,1.0,2024-01-15_10h22.11.185,untitled,2023.2.3,60.01363510390888,2024-01-15 10h48.40.183444 -0500,
,"[0.2, 0.1]",None,,,,,,,,,0.0,11.0,11.0,11.0,2323.5630330999848,,,,,,,,,,,,,,,,,,,,,,,,,,,,,,,,,,,,,,,,,,,,,,,,,,,,,,,,,,,,,,,,,2323.5472304000286,2323.5630330999848,2323.5630330999848,2324.046374800033,2324.0628806999885,2326.546256100002,2326.5464465999976,None,1.0,,,,,,nback52,1.0,2024-01-15_10h22.11.185,untitled,2023.2.3,60.01363510390888,2024-01-15 10h48.40.183444 -0500,
,"[0.3, 0]",None,,,,,,,,,0.0,12.0,12.0,12.0,2326.5628727999865,,,,,,,,,,,,,,,,,,,,,,,,,,,,,,,,,,,,,,,,,,,,,,,,,,,,,,,,,,,,,,,,,2326.547165900003,2326.5628727999865,2326.5628727999865,2327.0461936999927,2327.062985900033,2329.54608260002,2329.546256600006,None,1.0,,,,,,nback52,1.0,2024-01-15_10h22.11.185,untitled,2023.2.3,60.01363510390888,2024-01-15 10h48.40.183444 -0500,
,"[0.2, 0.1]",space,,,,,,,,,0.0,13.0,13.0,13.0,2329.562769900018,,,,,,,,,,,,,,,,,,,,,,,,,,,,,,,,,,,,,,,,,,,,,,,,,,,,,,,,,,,,,,,,,2329.546964200039,2329.562769900018,2329.562769900018,2330.046107400034,2330.062770900025,2332.546130300034,2332.5463305999874,space,1.0,0.4312224000459537,None,,,,nback52,1.0,2024-01-15_10h22.11.185,untitled,2023.2.3,60.01363510390888,2024-01-15 10h48.40.183444 -0500,
,"[-0.3, 0]",None,,,,,,,,,0.0,14.0,14.0,14.0,2332.562835899997,,,,,,,,,,,,,,,,,,,,,,,,,,,,,,,,,,,,,,,,,,,,,,,,,,,,,,,,,,,,,,,,,2332.5472573000006,2332.562835899997,2332.562835899997,2333.046206900035,2333.062858499994,2335.5460632999893,2335.5462778999936,None,1.0,,,,,,nback52,1.0,2024-01-15_10h22.11.185,untitled,2023.2.3,60.01363510390888,2024-01-15 10h48.40.183444 -0500,
,"[0, 0.2]",None,,,,,,,,,0.0,15.0,15.0,15.0,2335.5628196999896,,,,,,,,,,,,,,,,,,,,,,,,,,,,,,,,,,,,,,,,,,,,,,,,,,,,,,,,,,,,,,,,,2335.5471003000275,2335.5628196999896,2335.5628196999896,2336.046147999994,2336.0627295000013,2338.5461421000077,2338.546353099984,None,1.0,,,,,,nback52,1.0,2024-01-15_10h22.11.185,untitled,2023.2.3,60.01363510390888,2024-01-15 10h48.40.183444 -0500,
,"[-0.3, 0]",space,,,,,,,,,0.0,16.0,16.0,16.0,2338.562729199999,,,,,,,,,,,,,,,,,,,,,,,,,,,,,,,,,,,,,,,,,,,,,,,,,,,,,,,,,,,,,,,,,2338.547180199996,2338.562729199999,2338.562729199999,2339.04578580003,2339.06262490002,2341.5456798000378,2341.545765399991,space,1.0,0.4762201000121422,None,,,,nback52,1.0,2024-01-15_10h22.11.185,untitled,2023.2.3,60.01363510390888,2024-01-15 10h48.40.183444 -0500,
,"[-0.64, -0.4]",None,,,,,,,,,0.0,17.0,17.0,17.0,2341.562735599989,,,,,,,,,,,,,,,,,,,,,,,,,,,,,,,,,,,,,,,,,,,,,,,,,,,,,,,,,,,,,,,,,2341.5461555999937,2341.562735599989,2341.562735599989,2342.0460620000376,2342.0625430000364,2344.5458764000214,2344.5460761000286,None,1.0,,,,,,nback52,1.0,2024-01-15_10h22.11.185,untitled,2023.2.3,60.01363510390888,2024-01-15 10h48.40.183444 -0500,
,"[-0.2, -0.1]",None,,,,,,,,,0.0,18.0,18.0,18.0,2344.562644999998,,,,,,,,,,,,,,,,,,,,,,,,,,,,,,,,,,,,,,,,,,,,,,,,,,,,,,,,,,,,,,,,,2344.546848700033,2344.562644999998,2344.562644999998,2345.045984800032,2345.0626498000347,2347.5457643999835,2347.5459459000267,None,1.0,,,,,,nback52,1.0,2024-01-15_10h22.11.185,untitled,2023.2.3,60.01363510390888,2024-01-15 10h48.40.183444 -0500,
,"[0.2, -0.1]",None,,,,,,,,,0.0,19.0,19.0,19.0,2347.5625947000226,,,,,,,,,,,,,,,,,,,,,,,,,,,,,,,,,,,,,,,,,,,,,,,,,,,,,,,,,,,,,,,,,2347.546646700008,2347.5625947000226,2347.5625947000226,2348.045953100024,2348.062567699992,2350.545818399987,2350.546016699984,None,1.0,,,,,,nback52,1.0,2024-01-15_10h22.11.185,untitled,2023.2.3,60.01363510390888,2024-01-15 10h48.40.183444 -0500,
,"[0.2, -0.1]",None,,,,,,,,,0.0,20.0,20.0,20.0,2350.5624796000197,,,,,,,,,,,,,,,,,,,,,,,,,,,,,,,,,,,,,,,,,,,,,,,,,,,,,,,,,,,,,,,,,2350.5467783000204,2350.5624796000197,2350.5624796000197,2351.045750699996,2351.062621799996,2353.545924100036,2353.546325800009,None,1.0,,,,,,nback52,1.0,2024-01-15_10h22.11.185,untitled,2023.2.3,60.01363510390888,2024-01-15 10h48.40.183444 -0500,
,"[-0.64, 0.4]",None,,,,,,,,,0.0,21.0,21.0,21.0,2353.5623769999947,,,,,,,,,,,,,,,,,,,,,,,,,,,,,,,,,,,,,,,,,,,,,,,,,,,,,,,,,,,,,,,,,2353.5471942999866,2353.5623769999947,2353.5623769999947,2354.045867500012,2354.0623970000306,2356.5457288000034,2356.54590550001,None,1.0,,,,,,nback52,1.0,2024-01-15_10h22.11.185,untitled,2023.2.3,60.01363510390888,2024-01-15 10h48.40.183444 -0500,
,"[0, 0.2]",None,,,,,,,,,0.0,22.0,22.0,22.0,2356.5624493000214,,,,,,,,,,,,,,,,,,,,,,,,,,,,,,,,,,,,,,,,,,,,,,,,,,,,,,,,,,,,,,,,,2356.5465875000227,2356.5624493000214,2356.5624493000214,2357.045676000009,2357.062338699994,2359.5456342999823,2359.5458141000126,None,1.0,,,,,,nback52,1.0,2024-01-15_10h22.11.185,untitled,2023.2.3,60.01363510390888,2024-01-15 10h48.40.183444 -0500,
,"[0.64, -0.4]",None,,,,,,,,,0.0,23.0,23.0,23.0,2359.5622013999964,,,,,,,,,,,,,,,,,,,,,,,,,,,,,,,,,,,,,,,,,,,,,,,,,,,,,,,,,,,,,,,,,2359.5465219999896,2359.5622013999964,2359.5622013999964,2360.045661900018,2360.0622052000253,2362.545737700013,2362.5459247999825,None,1.0,,,,,,nback52,1.0,2024-01-15_10h22.11.185,untitled,2023.2.3,60.01363510390888,2024-01-15 10h48.40.183444 -0500,
,"[0, 0.2]",space,,,,,,,,,0.0,24.0,24.0,24.0,2362.562218600011,,,,,,,,,,,,,,,,,,,,,,,,,,,,,,,,,,,,,,,,,,,,,,,,,,,,,,,,,,,,,,,,,2362.5466659000376,2362.562218600011,2362.562218600011,2363.045614200004,2363.0622976000304,2365.545481499983,2365.5456901,space,1.0,0.8144364999607205,None,,,,nback52,1.0,2024-01-15_10h22.11.185,untitled,2023.2.3,60.01363510390888,2024-01-15 10h48.40.183444 -0500,
,"[-0.2, 0.1]",None,,,,,,,,,0.0,25.0,25.0,25.0,2365.5622566000093,,,,,,,,,,,,,,,,,,,,,,,,,,,,,,,,,,,,,,,,,,,,,,,,,,,,,,,,,,,,,,,,,2365.546724500018,2365.5622566000093,2365.5622566000093,2366.04553990002,2366.0622933999985,2368.545409800019,2368.5455795000307,None,1.0,,,,,,nback52,1.0,2024-01-15_10h22.11.185,untitled,2023.2.3,60.01363510390888,2024-01-15 10h48.40.183444 -0500,
,"[0.3, 0]",None,,,,,,,,,0.0,26.0,26.0,26.0,2368.562097900023,,,,,,,,,,,,,,,,,,,,,,,,,,,,,,,,,,,,,,,,,,,,,,,,,,,,,,,,,,,,,,,,,2368.5462878000108,2368.562097900023,2368.562097900023,2369.045332000009,2369.062162199989,2371.54533719999,2371.545507200004,None,1.0,,,,,,nback52,1.0,2024-01-15_10h22.11.185,untitled,2023.2.3,60.01363510390888,2024-01-15 10h48.40.183444 -0500,
,"[-0.2, 0.1]",space,,,,,,,,,0.0,27.0,27.0,27.0,2371.5622091999976,,,,,,,,,,,,,,,,,,,,,,,,,,,,,,,,,,,,,,,,,,,,,,,,,,,,,,,,,,,,,,,,,2371.5462963000173,2371.5622091999976,2371.5622091999976,2372.0453735000337,2372.062155199994,2374.545532700024,2374.545748100034,space,1.0,0.544775300018955,None,,,,nback52,1.0,2024-01-15_10h22.11.185,untitled,2023.2.3,60.01363510390888,2024-01-15 10h48.40.183444 -0500,
,"[-0.2, 0.1]",None,,,,,,,,,0.0,28.0,28.0,28.0,2374.5620970000164,,,,,,,,,,,,,,,,,,,,,,,,,,,,,,,,,,,,,,,,,,,,,,,,,,,,,,,,,,,,,,,,,2374.546687700029,2374.5620970000164,2374.5620970000164,2375.045545800007,2375.0620401999918,2377.545257400023,2377.54540990002,None,1.0,,,,,,nback52,1.0,2024-01-15_10h22.11.185,untitled,2023.2.3,60.01363510390888,2024-01-15 10h48.40.183444 -0500,
,"[0.2, 0.1]",None,,,,,,,,,0.0,29.0,29.0,29.0,2377.561917599989,,,,,,,,,,,,,,,,,,,,,,,,,,,,,,,,,,,,,,,,,,,,,,,,,,,,,,,,,,,,,,,,,2377.5460328999907,2377.561917599989,2377.561917599989,2378.0452607999905,2378.0619577000034,2380.5453063999885,2380.545517700026,None,1.0,,,,,,nback52,1.0,2024-01-15_10h22.11.185,untitled,2023.2.3,60.01363510390888,2024-01-15 10h48.40.183444 -0500,
,"[-0.64, -0.4]",None,,,,,,,,,0.0,30.0,30.0,30.0,2380.562060200027,,,,,,,,,,,,,,,,,,,,,,,,,,,,,,,,,,,,,,,,,,,,,,,,,,,,,,,,,,,,,,,,,2380.546352799982,2380.562060200027,2380.562060200027,2381.045033100003,2381.0619159000344,2383.545299899997,2383.545502300025,None,1.0,,,,,,nback52,1.0,2024-01-15_10h22.11.185,untitled,2023.2.3,60.01363510390888,2024-01-15 10h48.40.183444 -0500,
,"[0, -0.2]",None,,,,,,,,,0.0,31.0,31.0,31.0,2383.5619398999843,,,,,,,,,,,,,,,,,,,,,,,,,,,,,,,,,,,,,,,,,,,,,,,,,,,,,,,,,,,,,,,,,2383.546301399998,2383.5619398999843,2383.5619398999843,2384.045375799993,2384.061946700036,2386.5452918999945,2386.5455052999896,None,1.0,,,,,,nback52,1.0,2024-01-15_10h22.11.185,untitled,2023.2.3,60.01363510390888,2024-01-15 10h48.40.183444 -0500,
,"[-0.64, -0.4]",space,,,,,,,,,0.0,32.0,32.0,32.0,2386.5619089000397,,,,,,,,,,,,,,,,,,,,,,,,,,,,,,,,,,,,,,,,,,,,,,,,,,,,,,,,,,,,,,,,,2386.546333200007,2386.5619089000397,2386.5619089000397,2387.045295900025,2387.06204769999,2389.545060000033,2389.5452681999886,space,1.0,0.6537825999548659,None,,,,nback52,1.0,2024-01-15_10h22.11.185,untitled,2023.2.3,60.01363510390888,2024-01-15 10h48.40.183444 -0500,
,"[0.64, 0.4]",None,,,,,,,,,0.0,33.0,33.0,33.0,2389.561708700028,,,,,,,,,,,,,,,,,,,,,,,,,,,,,,,,,,,,,,,,,,,,,,,,,,,,,,,,,,,,,,,,,2389.5462490000064,2389.561708700028,2389.561708700028,2390.045181300025,2390.061910199991,2392.545051000023,2392.545244000037,None,1.0,,,,,,nback52,1.0,2024-01-15_10h22.11.185,untitled,2023.2.3,60.01363510390888,2024-01-15 10h48.40.183444 -0500,
,"[-0.3, 0]",None,,,,,,,,,0.0,34.0,34.0,34.0,2392.561823000025,,,,,,,,,,,,,,,,,,,,,,,,,,,,,,,,,,,,,,,,,,,,,,,,,,,,,,,,,,,,,,,,,2392.545970899984,2392.561823000025,2392.561823000025,2393.045193500002,2393.061843800009,2395.54511549999,2395.545328300039,None,1.0,,,,,,nback52,1.0,2024-01-15_10h22.11.185,untitled,2023.2.3,60.01363510390888,2024-01-15 10h48.40.183444 -0500,
,"[0.3, 0]",None,,,,,,,,,0.0,35.0,35.0,35.0,2395.5617288000067,,,,,,,,,,,,,,,,,,,,,,,,,,,,,,,,,,,,,,,,,,,,,,,,,,,,,,,,,,,,,,,,,2395.5462187000085,2395.5617288000067,2395.5617288000067,2396.0450425000163,2396.0616650999877,2398.5450363000277,2398.5452365000383,None,1.0,,,,,,nback52,1.0,2024-01-15_10h22.11.185,untitled,2023.2.3,60.01363510390888,2024-01-15 10h48.40.183444 -0500,
,"[-0.3, 0]",space,,,,,,,,,0.0,36.0,36.0,36.0,2398.56190239999,,,,,,,,,,,,,,,,,,,,,,,,,,,,,,,,,,,,,,,,,,,,,,,,,,,,,,,,,,,,,,,,,2398.546026199998,2398.56190239999,2398.56190239999,2399.0450722000096,2399.0615128999925,2401.5447316000354,2401.544842500007,space,1.0,0.7346038000541739,None,,,,nback52,1.0,2024-01-15_10h22.11.185,untitled,2023.2.3,60.01363510390888,2024-01-15 10h48.40.183444 -0500,
,"[0, -0.2]",None,,,,,,,,,0.0,37.0,37.0,37.0,2401.5614282999886,,,,,,,,,,,,,,,,,,,,,,,,,,,,,,,,,,,,,,,,,,,,,,,,,,,,,,,,,,,,,,,,,2401.545267599984,2401.5614282999886,2401.5614282999886,2402.0449407999986,2402.0615315000177,2404.544759500015,2404.544917199993,None,1.0,,,,,,nback52,1.0,2024-01-15_10h22.11.185,untitled,2023.2.3,60.01363510390888,2024-01-15 10h48.40.183444 -0500,
,"[0.3, 0]",None,,,,,,,,,0.0,38.0,38.0,38.0,2404.561503899982,,,,,,,,,,,,,,,,,,,,,,,,,,,,,,,,,,,,,,,,,,,,,,,,,,,,,,,,,,,,,,,,,2404.5455206999904,2404.561503899982,2404.561503899982,2405.0448807000066,2405.0617244000314,2407.5448691000347,2407.545058000018,None,1.0,,,,,,nback52,1.0,2024-01-15_10h22.11.185,untitled,2023.2.3,60.01363510390888,2024-01-15 10h48.40.183444 -0500,
,"[0.2, 0.1]",None,,,,,,,,,0.0,39.0,39.0,39.0,2407.561641399981,,,,,,,,,,,,,,,,,,,,,,,,,,,,,,,,,,,,,,,,,,,,,,,,,,,,,,,,,,,,,,,,,2407.545790700009,2407.561641399981,2407.561641399981,2408.044912800018,2408.0615709000267,2410.544830000028,2410.545011200011,None,1.0,,,,,,nback52,1.0,2024-01-15_10h22.11.185,untitled,2023.2.3,60.01363510390888,2024-01-15 10h48.40.183444 -0500,
,,,,,,,,,,,,,,,,,,,,,,,,,,,,,,,,,,,,,,,,,,,,,,,,,,,,,,,,,,,,,,,,,,,,,,,,,,,,,,,,,,,,,,,,,,,2410.545501800021,2410.5614669999923,2413.545093299996,,,,,,,,
