square,location,corrAns,trials_0.thisRepN,trials_0.thisTrialN,trials_0.thisN,trials_0.thisIndex,trials_1.thisRepN,trials_1.thisTrialN,trials_1.thisN,trials_1.thisIndex,trials_2.thisRepN,trials_2.thisTrialN,trials_2.thisN,trials_2.thisIndex,thisRow.t,notes,Instructions.started,instructions.started,key_resp.started,inst_sq11.started,Instructions.stopped,key_resp.keys,key_resp.rt,key_resp.duration,All.started,sq_1.started,sq_2.started,sq_3.started,sq_4.started,sq_5.started,sq_6.started,sq_7.started,sq_8.started,sq_9.started,sq_10.started,sq_11.started,sq_12.started,All.stopped,Fixation.started,fixation_3.started,fixation_3.stopped,Fixation.stopped,N_back_0_Trial.started,target_square_0.started,response_0.started,fixation_0.started,target_square_0.stopped,fixation_0.stopped,N_back_0_Trial.stopped,response_0.keys,response_0.corr,response_0.rt,response_0.duration,Instructions_1.started,instructions_1.started,key_resp_1.started,Instructions_1.stopped,key_resp_1.keys,key_resp_1.rt,key_resp_1.duration,N_back_1_Trial.started,target_square_1.started,response_1.started,target_square_1.stopped,fixation_1.started,fixation_1.stopped,response_1.stopped,N_back_1_Trial.stopped,response_1.keys,response_1.corr,response_1.rt,response_1.duration,Instructions_2.started,instructions_2.started,key_resp_2.started,Instructions_2.stopped,key_resp_2.keys,key_resp_2.rt,key_resp_2.duration,N_back_2_trials.started,target_square_2.started,response_2.started,target_square_2.stopped,fixation_2.started,fixation_2.stopped,response_2.stopped,N_back_2_trials.stopped,response_2.keys,response_2.corr,response_2.rt,response_2.duration,End.started,thank_you.started,End.stopped,participant,session,date,expName,psychopyVersion,frameRate,expStart,
,,,,,,,,,,,,,,,,,0.0012570999097079039,0.0035844999365508556,0.0035844999365508556,0.0035844999365508556,2007.7644179000054,space,2007.7526297001168,None,,,,,,,,,,,,,,,,,,,,,,,,,,,,,,,,,,,,,,,,,,,,,,,,,,,,,,,,,,,,,,,,,,,,,,,nback79,001,2024-01-31_17h54.13.301,untitled,2023.2.3,59.96990710883875,2024-01-31 18h12.03.154800 -0500,
6,"[-0.3, 0]",None,0,0,0,0,,,,,,,,,2009.7724001999013,,,,,,,,,,2007.7644450999796,2007.7801332999952,2007.7801332999952,2007.7801332999952,2007.7801332999952,2007.7801332999952,2007.7801332999952,2007.7801332999952,2007.7801332999952,2007.7801332999952,2007.7801332999952,2007.7801332999952,2007.7801332999952,2008.7472288999707,2008.7472395999357,2008.7634709000122,2009.7724001999013,2009.7473071999848,2009.770747100003,2009.7724001999013,2009.7724001999013,2010.246609200025,2010.280078199925,2012.7467696999665,2012.7636508999858,None,1,,,,,,,,,,,,,,,,,,,,,,,,,,,,,,,,,,,,,,,,,,,,nback79,001,2024-01-31_17h54.13.301,untitled,2023.2.3,59.96990710883875,2024-01-31 18h12.03.154800 -0500,
10,"[0, -0.2]",None,0,1,1,1,,,,,,,,,2012.7800165999215,,,,,,,,,,,,,,,,,,,,,,,,,,,,2012.7646164998878,2012.7800165999215,2012.7800165999215,2013.2467277999967,2013.2800439998973,2015.746679800097,2015.7635278000962,None,1,,,,,,,,,,,,,,,,,,,,,,,,,,,,,,,,,,,,,,,,,,,,nback79,001,2024-01-31_17h54.13.301,untitled,2023.2.3,59.96990710883875,2024-01-31 18h12.03.154800 -0500,
11,"[-0.64, -0.4]",space,0,2,2,2,,,,,,,,,2015.7799837999046,,,,,,,,,,,,,,,,,,,,,,,,,,,,2015.7642274999525,2015.7799837999046,2015.7799837999046,2016.2465977000538,2016.280063400045,2018.7467314999085,2018.763609000016,space,1,0.513464700197801,None,,,,,,,,,,,,,,,,,,,,,,,,,,,,,,,,,,,,,,,,,,nback79,001,2024-01-31_17h54.13.301,untitled,2023.2.3,59.96990710883875,2024-01-31 18h12.03.154800 -0500,
12,"[0.64, -0.4]",None,0,3,3,3,,,,,,,,,2018.779930199962,,,,,,,,,,,,,,,,,,,,,,,,,,,,2018.7644499000162,2018.779930199962,2018.779930199962,2019.2464546998963,2019.2799529000185,2021.7464910999406,2021.7636064998806,None,1,,,,,,,,,,,,,,,,,,,,,,,,,,,,,,,,,,,,,,,,,,,,nback79,001,2024-01-31_17h54.13.301,untitled,2023.2.3,59.96990710883875,2024-01-31 18h12.03.154800 -0500,
1,"[-0.64, 0.4]",None,0,4,4,4,,,,,,,,,2021.7799889999442,,,,,,,,,,,,,,,,,,,,,,,,,,,,2021.7640809000004,2021.7799889999442,2021.7799889999442,2022.2466138999444,2022.2799742000643,2024.7465989999473,2024.7635095999576,None,1,,,,,,,,,,,,,,,,,,,,,,,,,,,,,,,,,,,,,,,,,,,,nback79,001,2024-01-31_17h54.13.301,untitled,2023.2.3,59.96990710883875,2024-01-31 18h12.03.154800 -0500,
1,"[-0.64, 0.4]",None,0,5,5,5,,,,,,,,,2024.7798399000894,,,,,,,,,,,,,,,,,,,,,,,,,,,,2024.764225400053,2024.7798399000894,2024.7798399000894,2025.2465742998756,2025.2798810999375,2027.7463805999141,2027.763418900082,None,1,,,,,,,,,,,,,,,,,,,,,,,,,,,,,,,,,,,,,,,,,,,,nback79,001,2024-01-31_17h54.13.301,untitled,2023.2.3,59.96990710883875,2024-01-31 18h12.03.154800 -0500,
4,"[-0.2, 0.1]",None,0,6,6,6,,,,,,,,,2027.7798174999189,,,,,,,,,,,,,,,,,,,,,,,,,,,,2027.7641708999872,2027.7798174999189,2027.7798174999189,2028.2463978999294,2028.2798456999008,2030.7464680999983,2030.7632508000825,None,1,,,,,,,,,,,,,,,,,,,,,,,,,,,,,,,,,,,,,,,,,,,,nback79,001,2024-01-31_17h54.13.301,untitled,2023.2.3,59.96990710883875,2024-01-31 18h12.03.154800 -0500,
5,"[0.2, 0.1]",None,0,7,7,7,,,,,,,,,2030.7797028000932,,,,,,,,,,,,,,,,,,,,,,,,,,,,2030.7639347999357,2030.7797028000932,2030.7797028000932,2031.2465637000278,2031.2798862000927,2033.7465437999927,2033.7634195000865,None,1,,,,,,,,,,,,,,,,,,,,,,,,,,,,,,,,,,,,,,,,,,,,nback79,001,2024-01-31_17h54.13.301,untitled,2023.2.3,59.96990710883875,2024-01-31 18h12.03.154800 -0500,
11,"[-0.64, -0.4]",space,0,8,8,8,,,,,,,,,2033.7798452000134,,,,,,,,,,,,,,,,,,,,,,,,,,,,2033.7641616999172,2033.7798452000134,2033.7798452000134,2034.2463150999974,2034.2797657998744,2036.7463237999473,2036.7632480000611,space,1,0.44843579991720617,None,,,,,,,,,,,,,,,,,,,,,,,,,,,,,,,,,,,,,,,,,,nback79,001,2024-01-31_17h54.13.301,untitled,2023.2.3,59.96990710883875,2024-01-31 18h12.03.154800 -0500,
9,"[0.2, -0.1]",None,0,9,9,9,,,,,,,,,2036.7797177999746,,,,,,,,,,,,,,,,,,,,,,,,,,,,2036.7641801999416,2036.7797177999746,2036.7797177999746,2037.2628542000894,2037.2795728000347,2039.7628989999648,2039.7630644999444,None,1,,,,,,,,,,,,,,,,,,,,,,,,,,,,,,,,,,,,,,,,,,,,nback79,001,2024-01-31_17h54.13.301,untitled,2023.2.3,59.96990710883875,2024-01-31 18h12.03.154800 -0500,
8,"[-0.2, -0.1]",None,0,10,10,10,,,,,,,,,2039.7796702999622,,,,,,,,,,,,,,,,,,,,,,,,,,,,2039.7636782999616,2039.7796702999622,2039.7796702999622,2040.2462386998814,2040.2797034999821,2042.7462520999834,2042.7630010999274,None,1,,,,,,,,,,,,,,,,,,,,,,,,,,,,,,,,,,,,,,,,,,,,nback79,001,2024-01-31_17h54.13.301,untitled,2023.2.3,59.96990710883875,2024-01-31 18h12.03.154800 -0500,
9,"[0.2, -0.1]",None,0,11,11,11,,,,,,,,,2042.7796597999986,,,,,,,,,,,,,,,,,,,,,,,,,,,,2042.7637096999679,2042.7796597999986,2042.7796597999986,2043.2462349999696,2043.27953849989,2045.7462162999436,2045.7630690000951,None,1,,,,,,,,,,,,,,,,,,,,,,,,,,,,,,,,,,,,,,,,,,,,nback79,001,2024-01-31_17h54.13.301,untitled,2023.2.3,59.96990710883875,2024-01-31 18h12.03.154800 -0500,
6,"[-0.3, 0]",None,0,12,12,12,,,,,,,,,2045.7795069999993,,,,,,,,,,,,,,,,,,,,,,,,,,,,2045.763859000057,2045.7795069999993,2045.7795069999993,2046.2460276000202,2046.2794596999884,2048.746021399973,2048.7630233000964,None,1,,,,,,,,,,,,,,,,,,,,,,,,,,,,,,,,,,,,,,,,,,,,nback79,001,2024-01-31_17h54.13.301,untitled,2023.2.3,59.96990710883875,2024-01-31 18h12.03.154800 -0500,
9,"[0.2, -0.1]",None,0,13,13,13,,,,,,,,,2048.779411100084,,,,,,,,,,,,,,,,,,,,,,,,,,,,2048.763770800084,2048.779411100084,2048.779411100084,2049.2628216999583,2049.2794154998846,2051.762752499897,2051.762949900003,None,1,,,,,,,,,,,,,,,,,,,,,,,,,,,,,,,,,,,,,,,,,,,,nback79,001,2024-01-31_17h54.13.301,untitled,2023.2.3,59.96990710883875,2024-01-31 18h12.03.154800 -0500,
7,"[0.3, 0]",None,0,14,14,14,,,,,,,,,2051.7793040999677,,,,,,,,,,,,,,,,,,,,,,,,,,,,2051.7636249000207,2051.7793040999677,2051.7793040999677,2052.2627856000327,2052.279327499913,2054.7626286998857,2054.762765499996,None,1,,,,,,,,,,,,,,,,,,,,,,,,,,,,,,,,,,,,,,,,,,,,nback79,001,2024-01-31_17h54.13.301,untitled,2023.2.3,59.96990710883875,2024-01-31 18h12.03.154800 -0500,
2,"[0.64, 0.4]",None,0,15,15,15,,,,,,,,,2054.7793467000592,,,,,,,,,,,,,,,,,,,,,,,,,,,,2054.763329599984,2054.7793467000592,2054.7793467000592,2055.2627461999655,2055.279387699906,2057.7626982000656,2057.7629013000987,None,1,,,,,,,,,,,,,,,,,,,,,,,,,,,,,,,,,,,,,,,,,,,,nback79,001,2024-01-31_17h54.13.301,untitled,2023.2.3,59.96990710883875,2024-01-31 18h12.03.154800 -0500,
2,"[0.64, 0.4]",None,0,16,16,16,,,,,,,,,2057.7794172998983,,,,,,,,,,,,,,,,,,,,,,,,,,,,2057.7637064999435,2057.7794172998983,2057.7794172998983,2058.2625901999418,2058.279228700092,2060.7628534000833,2060.7630441999063,None,1,,,,,,,,,,,,,,,,,,,,,,,,,,,,,,,,,,,,,,,,,,,,nback79,001,2024-01-31_17h54.13.301,untitled,2023.2.3,59.96990710883875,2024-01-31 18h12.03.154800 -0500,
11,"[-0.64, -0.4]",space,0,17,17,17,,,,,,,,,2060.779150400078,,,,,,,,,,,,,,,,,,,,,,,,,,,,2060.763902900042,2060.779150400078,2060.779150400078,2061.2626767000183,2061.279322199989,2063.7625039000995,2063.7626515999436,space,1,0.43668599985539913,None,,,,,,,,,,,,,,,,,,,,,,,,,,,,,,,,,,,,,,,,,,nback79,001,2024-01-31_17h54.13.301,untitled,2023.2.3,59.96990710883875,2024-01-31 18h12.03.154800 -0500,
11,"[-0.64, -0.4]",space,0,18,18,18,,,,,,,,,2063.7790731999557,,,,,,,,,,,,,,,,,,,,,,,,,,,,2063.76343000005,2063.7790731999557,2063.7790731999557,2064.26256809989,2064.279193100054,2066.762463199906,2066.762609800091,space,1,0.6353784999810159,None,,,,,,,,,,,,,,,,,,,,,,,,,,,,,,,,,,,,,,,,,,nback79,001,2024-01-31_17h54.13.301,untitled,2023.2.3,59.96990710883875,2024-01-31 18h12.03.154800 -0500,
7,"[0.3, 0]",None,0,19,19,19,,,,,,,,,2066.7790940999985,,,,,,,,,,,,,,,,,,,,,,,,,,,,2066.7633042000234,2066.7790940999985,2066.7790940999985,2067.2624152998906,2067.279242299963,2069.762360200053,2069.762491500005,None,1,,,,,,,,,,,,,,,,,,,,,,,,,,,,,,,,,,,,,,,,,,,,nback79,001,2024-01-31_17h54.13.301,untitled,2023.2.3,59.96990710883875,2024-01-31 18h12.03.154800 -0500,
3,"[0, 0.2]",None,0,20,20,20,,,,,,,,,2069.779077799991,,,,,,,,,,,,,,,,,,,,,,,,,,,,2069.763118600007,2069.779077799991,2069.779077799991,2070.262606800068,2070.2792579000816,2072.762429599883,2072.762596699875,None,1,,,,,,,,,,,,,,,,,,,,,,,,,,,,,,,,,,,,,,,,,,,,nback79,001,2024-01-31_17h54.13.301,untitled,2023.2.3,59.96990710883875,2024-01-31 18h12.03.154800 -0500,
10,"[0, -0.2]",None,0,21,21,21,,,,,,,,,2072.7791589000262,,,,,,,,,,,,,,,,,,,,,,,,,,,,2072.7631798000075,2072.7791589000262,2072.7791589000262,2073.2624347999226,2073.2790317998733,2075.762493300019,2075.762693800032,None,1,,,,,,,,,,,,,,,,,,,,,,,,,,,,,,,,,,,,,,,,,,,,nback79,001,2024-01-31_17h54.13.301,untitled,2023.2.3,59.96990710883875,2024-01-31 18h12.03.154800 -0500,
1,"[-0.64, 0.4]",None,0,22,22,22,,,,,,,,,2075.7789582000114,,,,,,,,,,,,,,,,,,,,,,,,,,,,2075.7633187999018,2075.7789582000114,2075.7789582000114,2076.2623954999726,2076.27897069999,2078.762412399985,2078.762594799977,None,1,,,,,,,,,,,,,,,,,,,,,,,,,,,,,,,,,,,,,,,,,,,,nback79,001,2024-01-31_17h54.13.301,untitled,2023.2.3,59.96990710883875,2024-01-31 18h12.03.154800 -0500,
2,"[0.64, 0.4]",None,0,23,23,23,,,,,,,,,2078.778984100092,,,,,,,,,,,,,,,,,,,,,,,,,,,,2078.7632269999012,2078.778984100092,2078.778984100092,2079.2623980999924,2079.278940499993,2081.762231600005,2081.762378399959,None,1,,,,,,,,,,,,,,,,,,,,,,,,,,,,,,,,,,,,,,,,,,,,nback79,001,2024-01-31_17h54.13.301,untitled,2023.2.3,59.96990710883875,2024-01-31 18h12.03.154800 -0500,
6,"[-0.3, 0]",None,0,24,24,24,,,,,,,,,2081.7788646998815,,,,,,,,,,,,,,,,,,,,,,,,,,,,2081.7630968999583,2081.7788646998815,2081.7788646998815,2082.262199799996,2082.278823300032,2084.762172299903,2084.7623252000194,None,1,,,,,,,,,,,,,,,,,,,,,,,,,,,,,,,,,,,,,,,,,,,,nback79,001,2024-01-31_17h54.13.301,untitled,2023.2.3,59.96990710883875,2024-01-31 18h12.03.154800 -0500,
3,"[0, 0.2]",None,0,25,25,25,,,,,,,,,2084.7788344,,,,,,,,,,,,,,,,,,,,,,,,,,,,2084.762983799912,2084.7788344,2084.7788344,2085.2623220998794,2085.278831399977,2087.76215710002,2087.7623006999493,None,1,,,,,,,,,,,,,,,,,,,,,,,,,,,,,,,,,,,,,,,,,,,,nback79,001,2024-01-31_17h54.13.301,untitled,2023.2.3,59.96990710883875,2024-01-31 18h12.03.154800 -0500,
11,"[-0.64, -0.4]",space,0,26,26,26,,,,,,,,,2087.7786806998774,,,,,,,,,,,,,,,,,,,,,,,,,,,,2087.7628528000787,2087.7786806998774,2087.7786806998774,2088.26212339988,2088.278685099911,2090.7622163998894,2090.7623805000912,space,1,0.4418166000396013,None,,,,,,,,,,,,,,,,,,,,,,,,,,,,,,,,,,,,,,,,,,nback79,001,2024-01-31_17h54.13.301,untitled,2023.2.3,59.96990710883875,2024-01-31 18h12.03.154800 -0500,
1,"[-0.64, 0.4]",None,0,27,27,27,,,,,,,,,2090.7786520998925,,,,,,,,,,,,,,,,,,,,,,,,,,,,2090.7631707000546,2090.7786520998925,2090.7786520998925,2091.2621277999133,2091.278853799915,2093.762036399916,2093.7621931000613,None,1,,,,,,,,,,,,,,,,,,,,,,,,,,,,,,,,,,,,,,,,,,,,nback79,001,2024-01-31_17h54.13.301,untitled,2023.2.3,59.96990710883875,2024-01-31 18h12.03.154800 -0500,
3,"[0, 0.2]",None,0,28,28,28,,,,,,,,,2093.7786063998938,,,,,,,,,,,,,,,,,,,,,,,,,,,,2093.7628691000864,2093.7786063998938,2093.7786063998938,2094.262052499922,2094.2786226999015,2096.76189110009,2096.7620216999203,None,1,,,,,,,,,,,,,,,,,,,,,,,,,,,,,,,,,,,,,,,,,,,,nback79,001,2024-01-31_17h54.13.301,untitled,2023.2.3,59.96990710883875,2024-01-31 18h12.03.154800 -0500,
9,"[0.2, -0.1]",None,0,29,29,29,,,,,,,,,2096.7785853999667,,,,,,,,,,,,,,,,,,,,,,,,,,,,2096.7625510999933,2096.7785853999667,2096.7785853999667,2097.261877299985,2097.2785539999604,2099.762042599963,2099.7622648999095,None,1,,,,,,,,,,,,,,,,,,,,,,,,,,,,,,,,,,,,,,,,,,,,nback79,001,2024-01-31_17h54.13.301,untitled,2023.2.3,59.96990710883875,2024-01-31 18h12.03.154800 -0500,
8,"[-0.2, -0.1]",None,0,30,30,30,,,,,,,,,2099.778670199914,,,,,,,,,,,,,,,,,,,,,,,,,,,,2099.7631969000213,2099.778670199914,2099.778670199914,2100.261842899956,2100.278485100018,2102.7618048998993,2102.761957800016,None,1,,,,,,,,,,,,,,,,,,,,,,,,,,,,,,,,,,,,,,,,,,,,nback79,001,2024-01-31_17h54.13.301,untitled,2023.2.3,59.96990710883875,2024-01-31 18h12.03.154800 -0500,
12,"[0.64, -0.4]",None,0,31,31,31,,,,,,,,,2102.778540600091,,,,,,,,,,,,,,,,,,,,,,,,,,,,2102.7626016000286,2102.778540600091,2102.778540600091,2103.261893699877,2103.278585900087,2105.761748400051,2105.7619008000474,None,1,,,,,,,,,,,,,,,,,,,,,,,,,,,,,,,,,,,,,,,,,,,,nback79,001,2024-01-31_17h54.13.301,untitled,2023.2.3,59.96990710883875,2024-01-31 18h12.03.154800 -0500,
9,"[0.2, -0.1]",None,0,32,32,32,,,,,,,,,2105.7785382999573,,,,,,,,,,,,,,,,,,,,,,,,,,,,2105.762480699923,2105.7785382999573,2105.7785382999573,2106.261935800081,2106.27861690009,2108.761660899967,2108.761801699875,None,1,,,,,,,,,,,,,,,,,,,,,,,,,,,,,,,,,,,,,,,,,,,,nback79,001,2024-01-31_17h54.13.301,untitled,2023.2.3,59.96990710883875,2024-01-31 18h12.03.154800 -0500,
11,"[-0.64, -0.4]",space,0,33,33,33,,,,,,,,,2108.7783703999594,,,,,,,,,,,,,,,,,,,,,,,,,,,,2108.7623729000334,2108.7783703999594,2108.7783703999594,2109.2616691999137,2109.278350000037,2111.7617571998853,2111.761916300049,space,1,0.3338744998909533,None,,,,,,,,,,,,,,,,,,,,,,,,,,,,,,,,,,,,,,,,,,nback79,001,2024-01-31_17h54.13.301,untitled,2023.2.3,59.96990710883875,2024-01-31 18h12.03.154800 -0500,
7,"[0.3, 0]",None,0,34,34,34,,,,,,,,,2111.7783236000687,,,,,,,,,,,,,,,,,,,,,,,,,,,,2111.7627640999854,2111.7783236000687,2111.7783236000687,2112.2617454999126,2112.2783085999545,2114.761636100011,2114.7617641999386,None,1,,,,,,,,,,,,,,,,,,,,,,,,,,,,,,,,,,,,,,,,,,,,nback79,001,2024-01-31_17h54.13.301,untitled,2023.2.3,59.96990710883875,2024-01-31 18h12.03.154800 -0500,
11,"[-0.64, -0.4]",space,0,35,35,35,,,,,,,,,2114.778326699976,,,,,,,,,,,,,,,,,,,,,,,,,,,,2114.762382599991,2114.778326699976,2114.778326699976,2115.2616489999928,2115.2782449000515,2117.7617035000585,2117.7618656998966,space,1,0.37712499988265336,None,,,,,,,,,,,,,,,,,,,,,,,,,,,,,,,,,,,,,,,,,,nback79,001,2024-01-31_17h54.13.301,untitled,2023.2.3,59.96990710883875,2024-01-31 18h12.03.154800 -0500,
4,"[-0.2, 0.1]",None,0,36,36,36,,,,,,,,,2117.7781521999277,,,,,,,,,,,,,,,,,,,,,,,,,,,,2117.7627038999926,2117.7781521999277,2117.7781521999277,2118.2615412001032,2118.27818439994,2120.7618007001,2120.761998800095,None,1,,,,,,,,,,,,,,,,,,,,,,,,,,,,,,,,,,,,,,,,,,,,nback79,001,2024-01-31_17h54.13.301,untitled,2023.2.3,59.96990710883875,2024-01-31 18h12.03.154800 -0500,
5,"[0.2, 0.1]",None,0,37,37,37,,,,,,,,,2120.778337399941,,,,,,,,,,,,,,,,,,,,,,,,,,,,2120.7627411999274,2120.778337399941,2120.778337399941,2121.2616647998802,2121.278461799957,2123.7614031999838,2123.7615497000515,None,1,,,,,,,,,,,,,,,,,,,,,,,,,,,,,,,,,,,,,,,,,,,,nback79,001,2024-01-31_17h54.13.301,untitled,2023.2.3,59.96990710883875,2024-01-31 18h12.03.154800 -0500,
6,"[-0.3, 0]",None,0,38,38,38,,,,,,,,,2123.778234800091,,,,,,,,,,,,,,,,,,,,,,,,,,,,2123.7620906000957,2123.778234800091,2123.778234800091,2124.2615183999296,2124.2780742000323,2126.761335799936,2126.7614800999872,None,1,,,,,,,,,,,,,,,,,,,,,,,,,,,,,,,,,,,,,,,,,,,,nback79,001,2024-01-31_17h54.13.301,untitled,2023.2.3,59.96990710883875,2024-01-31 18h12.03.154800 -0500,
11,"[-0.64, -0.4]",space,0,39,39,39,,,,,,,,,2126.7781962999143,,,,,,,,,,,,,,,,,,,,,,,,,,,,2126.7620683999266,2126.7781962999143,2126.7781962999143,2127.2615012000315,2127.278049600078,2129.761444099946,2129.7616741000675,space,1,0.33732030005194247,None,,,,,,,,,,,,,,,,,,,,,,,,,,,,,,,,,,,,,,,,,,nback79,001,2024-01-31_17h54.13.301,untitled,2023.2.3,59.96990710883875,2024-01-31 18h12.03.154800 -0500,
,,,,,,,,,,,,,,,,,,,,,,,,,,,,,,,,,,,,,,,,,,,,,,,,,,,,,,2129.7622982000466,2129.778080200078,2129.778080200078,2176.7618350998964,space,46.9731930999551,None,,,,,,,,,,,,,,,,,,,,,,,,,,,,,,,,,,,nback79,001,2024-01-31_17h54.13.301,untitled,2023.2.3,59.96990710883875,2024-01-31 18h12.03.154800 -0500,
10,"[0, -0.2]",None,,,,,0,0,0,0,,,,,2177.7771971998736,,,,,,,,,,,,,,,,,,,,,,,,2176.761881100014,2176.7771153999493,2177.7771971998736,2177.761281199986,,,,,,,,,,,,,,,,,,,2177.774679899914,2177.7771971998736,2177.7771971998736,2178.2772615998983,2178.2772615998983,2180.7772001998965,2180.7772001998965,2180.7610164000653,None,1,,,,,,,,,,,,,,,,,,,,,,,,,nback79,001,2024-01-31_17h54.13.301,untitled,2023.2.3,59.96990710883875,2024-01-31 18h12.03.154800 -0500,
5,"[0.2, 0.1]",None,,,,,0,1,1,1,,,,,2180.7772001998965,,,,,,,,,,,,,,,,,,,,,,,,,,,,,,,,,,,,,,,,,,,,,,2180.761708599981,2180.7772001998965,2180.7772001998965,2181.277334699873,2181.277334699873,2183.777411099989,2183.777411099989,2183.7612423999235,None,1,,,,,,,,,,,,,,,,,,,,,,,,,nback79,001,2024-01-31_17h54.13.301,untitled,2023.2.3,59.96990710883875,2024-01-31 18h12.03.154800 -0500,
6,"[-0.3, 0]",None,,,,,0,2,2,2,,,,,2183.777411099989,,,,,,,,,,,,,,,,,,,,,,,,,,,,,,,,,,,,,,,,,,,,,,2183.761853700038,2183.777411099989,2183.777411099989,2184.277193899965,2184.277193899965,2186.7769754999317,2186.7769754999317,2186.7609727000818,None,1,,,,,,,,,,,,,,,,,,,,,,,,,nback79,001,2024-01-31_17h54.13.301,untitled,2023.2.3,59.96990710883875,2024-01-31 18h12.03.154800 -0500,
6,"[-0.3, 0]",space,,,,,0,3,3,3,,,,,2186.7769754999317,,,,,,,,,,,,,,,,,,,,,,,,,,,,,,,,,,,,,,,,,,,,,,2186.76158829988,2186.7769754999317,2186.7769754999317,2187.277005800046,2187.277005800046,2189.776925300015,2189.776925300015,2189.7608439000323,None,0,,,,,,,,,,,,,,,,,,,,,,,,,nback79,001,2024-01-31_17h54.13.301,untitled,2023.2.3,59.96990710883875,2024-01-31 18h12.03.154800 -0500,
12,"[0.64, -0.4]",None,,,,,0,4,4,4,,,,,2189.776925300015,,,,,,,,,,,,,,,,,,,,,,,,,,,,,,,,,,,,,,,,,,,,,,2189.761426999932,2189.776925300015,2189.776925300015,2190.2772262000944,2190.2772262000944,2192.777055100072,2192.777055100072,2192.7606915999204,None,1,,,,,,,,,,,,,,,,,,,,,,,,,nback79,001,2024-01-31_17h54.13.301,untitled,2023.2.3,59.96990710883875,2024-01-31 18h12.03.154800 -0500,
10,"[0, -0.2]",None,,,,,0,5,5,5,,,,,2192.777055100072,,,,,,,,,,,,,,,,,,,,,,,,,,,,,,,,,,,,,,,,,,,,,,2192.761194600025,2192.777055100072,2192.777055100072,2193.277031400008,2193.277031400008,2195.7769889000338,2195.7769889000338,2195.7606999999844,None,1,,,,,,,,,,,,,,,,,,,,,,,,,nback79,001,2024-01-31_17h54.13.301,untitled,2023.2.3,59.96990710883875,2024-01-31 18h12.03.154800 -0500,
2,"[0.64, 0.4]",None,,,,,0,6,6,6,,,,,2195.7769889000338,,,,,,,,,,,,,,,,,,,,,,,,,,,,,,,,,,,,,,,,,,,,,,2195.7612542000134,2195.7769889000338,2195.7769889000338,2196.2768258999567,2196.2768258999567,2198.776806599926,2198.776806599926,2198.7608650000766,None,1,,,,,,,,,,,,,,,,,,,,,,,,,nback79,001,2024-01-31_17h54.13.301,untitled,2023.2.3,59.96990710883875,2024-01-31 18h12.03.154800 -0500,
9,"[0.2, -0.1]",None,,,,,0,7,7,7,,,,,2198.776806599926,,,,,,,,,,,,,,,,,,,,,,,,,,,,,,,,,,,,,,,,,,,,,,2198.7614949999843,2198.776806599926,2198.776806599926,2199.2769486999605,2199.2769486999605,2201.7767487000674,2201.7767487000674,2201.760778099997,None,1,,,,,,,,,,,,,,,,,,,,,,,,,nback79,001,2024-01-31_17h54.13.301,untitled,2023.2.3,59.96990710883875,2024-01-31 18h12.03.154800 -0500,
9,"[0.2, -0.1]",space,,,,,0,8,8,8,,,,,2201.7767487000674,,,,,,,,,,,,,,,,,,,,,,,,,,,,,,,,,,,,,,,,,,,,,,2201.7613373999484,2201.7767487000674,2201.7767487000674,2202.2767358000856,2202.2767358000856,2204.7770843000617,2204.7770843000617,2204.7607007999904,space,1,0.3188096999656409,None,,,,,,,,,,,,,,,,,,,,,,,nback79,001,2024-01-31_17h54.13.301,untitled,2023.2.3,59.96990710883875,2024-01-31 18h12.03.154800 -0500,
6,"[-0.3, 0]",None,,,,,0,9,9,9,,,,,2204.7770843000617,,,,,,,,,,,,,,,,,,,,,,,,,,,,,,,,,,,,,,,,,,,,,,2204.7615255001,2204.7770843000617,2204.7770843000617,2205.2766799998935,2205.2766799998935,2207.7766575000715,2207.7766575000715,2207.760332700098,None,1,,,,,,,,,,,,,,,,,,,,,,,,,nback79,001,2024-01-31_17h54.13.301,untitled,2023.2.3,59.96990710883875,2024-01-31 18h12.03.154800 -0500,
11,"[-0.64, -0.4]",None,,,,,0,10,10,10,,,,,2207.7766575000715,,,,,,,,,,,,,,,,,,,,,,,,,,,,,,,,,,,,,,,,,,,,,,2207.760792899877,2207.7766575000715,2207.7766575000715,2208.276701499941,2208.276701499941,2210.776706200093,2210.776706200093,2210.7604306000285,None,1,,,,,,,,,,,,,,,,,,,,,,,,,nback79,001,2024-01-31_17h54.13.301,untitled,2023.2.3,59.96990710883875,2024-01-31 18h12.03.154800 -0500,
11,"[-0.64, -0.4]",space,,,,,0,11,11,11,,,,,2210.776706200093,,,,,,,,,,,,,,,,,,,,,,,,,,,,,,,,,,,,,,,,,,,,,,2210.760973199969,2210.776706200093,2210.776706200093,2211.276880200021,2211.276880200021,2213.776512200013,2213.776512200013,2213.7602572999895,space,1,0.5569154999684542,None,,,,,,,,,,,,,,,,,,,,,,,nback79,001,2024-01-31_17h54.13.301,untitled,2023.2.3,59.96990710883875,2024-01-31 18h12.03.154800 -0500,
4,"[-0.2, 0.1]",None,,,,,0,12,12,12,,,,,2213.776512200013,,,,,,,,,,,,,,,,,,,,,,,,,,,,,,,,,,,,,,,,,,,,,,2213.7606283000205,2213.776512200013,2213.776512200013,2214.276482899906,2214.276482899906,2216.776492499979,2216.776492499979,2216.7605133999605,None,1,,,,,,,,,,,,,,,,,,,,,,,,,nback79,001,2024-01-31_17h54.13.301,untitled,2023.2.3,59.96990710883875,2024-01-31 18h12.03.154800 -0500,
3,"[0, 0.2]",None,,,,,0,13,13,13,,,,,2216.776492499979,,,,,,,,,,,,,,,,,,,,,,,,,,,,,,,,,,,,,,,,,,,,,,2216.76103579998,2216.776492499979,2216.776492499979,2217.276664200006,2217.276664200006,2219.776555699995,2219.776555699995,2219.760403299937,None,1,,,,,,,,,,,,,,,,,,,,,,,,,nback79,001,2024-01-31_17h54.13.301,untitled,2023.2.3,59.96990710883875,2024-01-31 18h12.03.154800 -0500,
3,"[0, 0.2]",space,,,,,0,14,14,14,,,,,2219.776555699995,,,,,,,,,,,,,,,,,,,,,,,,,,,,,,,,,,,,,,,,,,,,,,2219.761058599921,2219.776555699995,2219.776555699995,2220.2763664000668,2220.2763664000668,2222.7763443998992,2222.7763443998992,2222.760325900046,space,1,0.3364641999360174,None,,,,,,,,,,,,,,,,,,,,,,,nback79,001,2024-01-31_17h54.13.301,untitled,2023.2.3,59.96990710883875,2024-01-31 18h12.03.154800 -0500,
8,"[-0.2, -0.1]",None,,,,,0,15,15,15,,,,,2222.7763443998992,,,,,,,,,,,,,,,,,,,,,,,,,,,,,,,,,,,,,,,,,,,,,,2222.7609625998884,2222.7763443998992,2222.7763443998992,2223.2764953000005,2223.2764953000005,2225.776536700083,2225.776536700083,2225.760552600026,None,1,,,,,,,,,,,,,,,,,,,,,,,,,nback79,001,2024-01-31_17h54.13.301,untitled,2023.2.3,59.96990710883875,2024-01-31 18h12.03.154800 -0500,
1,"[-0.64, 0.4]",None,,,,,0,16,16,16,,,,,2225.776536700083,,,,,,,,,,,,,,,,,,,,,,,,,,,,,,,,,,,,,,,,,,,,,,2225.7612546000164,2225.776536700083,2225.776536700083,2226.276293300092,2226.276293300092,2228.7762605999596,2228.7762605999596,2228.7602764000185,None,1,,,,,,,,,,,,,,,,,,,,,,,,,nback79,001,2024-01-31_17h54.13.301,untitled,2023.2.3,59.96990710883875,2024-01-31 18h12.03.154800 -0500,
2,"[0.64, 0.4]",None,,,,,0,17,17,17,,,,,2228.7762605999596,,,,,,,,,,,,,,,,,,,,,,,,,,,,,,,,,,,,,,,,,,,,,,2228.760738099925,2228.7762605999596,2228.7762605999596,2229.2763823999558,2229.2763823999558,2231.776277600089,2231.776277600089,2231.760106399888,None,1,,,,,,,,,,,,,,,,,,,,,,,,,nback79,001,2024-01-31_17h54.13.301,untitled,2023.2.3,59.96990710883875,2024-01-31 18h12.03.154800 -0500,
4,"[-0.2, 0.1]",None,,,,,0,18,18,18,,,,,2231.776277600089,,,,,,,,,,,,,,,,,,,,,,,,,,,,,,,,,,,,,,,,,,,,,,2231.760647499934,2231.776277600089,2231.776277600089,2232.27629119996,2232.27629119996,2234.7763094999827,2234.7763094999827,2234.760079199914,None,1,,,,,,,,,,,,,,,,,,,,,,,,,nback79,001,2024-01-31_17h54.13.301,untitled,2023.2.3,59.96990710883875,2024-01-31 18h12.03.154800 -0500,
4,"[-0.2, 0.1]",space,,,,,0,19,19,19,,,,,2234.7763094999827,,,,,,,,,,,,,,,,,,,,,,,,,,,,,,,,,,,,,,,,,,,,,,2234.7606470000464,2234.7763094999827,2234.7763094999827,2235.2762641001027,2235.2762641001027,2237.7761146998964,2237.7761146998964,2237.7600310000125,space,1,0.3172743998002261,None,,,,,,,,,,,,,,,,,,,,,,,nback79,001,2024-01-31_17h54.13.301,untitled,2023.2.3,59.96990710883875,2024-01-31 18h12.03.154800 -0500,
8,"[-0.2, -0.1]",None,,,,,0,20,20,20,,,,,2237.7761146998964,,,,,,,,,,,,,,,,,,,,,,,,,,,,,,,,,,,,,,,,,,,,,,2237.760656300001,2237.7761146998964,2237.7761146998964,2238.2762613999657,2238.2762613999657,2240.7760582000483,2240.7760582000483,2240.7599325000774,None,1,,,,,,,,,,,,,,,,,,,,,,,,,nback79,001,2024-01-31_17h54.13.301,untitled,2023.2.3,59.96990710883875,2024-01-31 18h12.03.154800 -0500,
5,"[0.2, 0.1]",None,,,,,0,21,21,21,,,,,2240.7760582000483,,,,,,,,,,,,,,,,,,,,,,,,,,,,,,,,,,,,,,,,,,,,,,2240.760576599976,2240.7760582000483,2240.7760582000483,2241.276215000078,2241.276215000078,2243.7760576000437,2243.7760576000437,2243.7597419999074,None,1,,,,,,,,,,,,,,,,,,,,,,,,,nback79,001,2024-01-31_17h54.13.301,untitled,2023.2.3,59.96990710883875,2024-01-31 18h12.03.154800 -0500,
5,"[0.2, 0.1]",space,,,,,0,22,22,22,,,,,2243.7760576000437,,,,,,,,,,,,,,,,,,,,,,,,,,,,,,,,,,,,,,,,,,,,,,2243.760296799941,2243.7760576000437,2243.7760576000437,2244.2760143999476,2244.2760143999476,2246.776094699977,2246.776094699977,2246.760154800024,space,1,0.3208546000532806,None,,,,,,,,,,,,,,,,,,,,,,,nback79,001,2024-01-31_17h54.13.301,untitled,2023.2.3,59.96990710883875,2024-01-31 18h12.03.154800 -0500,
1,"[-0.64, 0.4]",None,,,,,0,23,23,23,,,,,2246.776094699977,,,,,,,,,,,,,,,,,,,,,,,,,,,,,,,,,,,,,,,,,,,,,,2246.760964700021,2246.776094699977,2246.776094699977,2247.276008500019,2247.276008500019,2249.7759048000444,2249.7759048000444,2249.75955060008,None,1,,,,,,,,,,,,,,,,,,,,,,,,,nback79,001,2024-01-31_17h54.13.301,untitled,2023.2.3,59.96990710883875,2024-01-31 18h12.03.154800 -0500,
3,"[0, 0.2]",None,,,,,0,24,24,24,,,,,2249.7759048000444,,,,,,,,,,,,,,,,,,,,,,,,,,,,,,,,,,,,,,,,,,,,,,2249.7598955000285,2249.7759048000444,2249.7759048000444,2250.276040100027,2250.276040100027,2252.775888999924,2252.775888999924,2252.759659100091,None,1,,,,,,,,,,,,,,,,,,,,,,,,,nback79,001,2024-01-31_17h54.13.301,untitled,2023.2.3,59.96990710883875,2024-01-31 18h12.03.154800 -0500,
6,"[-0.3, 0]",None,,,,,0,25,25,25,,,,,2252.775888999924,,,,,,,,,,,,,,,,,,,,,,,,,,,,,,,,,,,,,,,,,,,,,,2252.760233900044,2252.775888999924,2252.775888999924,2253.2758281999268,2253.2758281999268,2255.77593220002,2255.77593220002,2255.7598423999734,None,1,,,,,,,,,,,,,,,,,,,,,,,,,nback79,001,2024-01-31_17h54.13.301,untitled,2023.2.3,59.96990710883875,2024-01-31 18h12.03.154800 -0500,
1,"[-0.64, 0.4]",None,,,,,0,26,26,26,,,,,2255.77593220002,,,,,,,,,,,,,,,,,,,,,,,,,,,,,,,,,,,,,,,,,,,,,,2255.760471699992,2255.77593220002,2255.77593220002,2256.2759833999444,2256.2759833999444,2258.775804999983,2258.775804999983,2258.759673200082,None,1,,,,,,,,,,,,,,,,,,,,,,,,,nback79,001,2024-01-31_17h54.13.301,untitled,2023.2.3,59.96990710883875,2024-01-31 18h12.03.154800 -0500,
1,"[-0.64, 0.4]",space,,,,,0,27,27,27,,,,,2258.775804999983,,,,,,,,,,,,,,,,,,,,,,,,,,,,,,,,,,,,,,,,,,,,,,2258.760306299897,2258.775804999983,2258.775804999983,2259.2758432999253,2259.2758432999253,2261.775616900064,2261.775616900064,2261.7594943000004,space,1,0.3100149999372661,None,,,,,,,,,,,,,,,,,,,,,,,nback79,001,2024-01-31_17h54.13.301,untitled,2023.2.3,59.96990710883875,2024-01-31 18h12.03.154800 -0500,
1,"[-0.64, 0.4]",space,,,,,0,28,28,28,,,,,2261.775616900064,,,,,,,,,,,,,,,,,,,,,,,,,,,,,,,,,,,,,,,,,,,,,,2261.7599023000803,2261.775616900064,2261.775616900064,2262.275788600091,2262.275788600091,2264.775590199977,2264.775590199977,2264.759525500005,None,0,,,,,,,,,,,,,,,,,,,,,,,,,nback79,001,2024-01-31_17h54.13.301,untitled,2023.2.3,59.96990710883875,2024-01-31 18h12.03.154800 -0500,
3,"[0, 0.2]",None,,,,,0,29,29,29,,,,,2264.775590199977,,,,,,,,,,,,,,,,,,,,,,,,,,,,,,,,,,,,,,,,,,,,,,2264.760074299993,2264.775590199977,2264.775590199977,2265.275559599977,2265.275559599977,2267.775863799965,2267.775863799965,2267.760012200102,None,1,,,,,,,,,,,,,,,,,,,,,,,,,nback79,001,2024-01-31_17h54.13.301,untitled,2023.2.3,59.96990710883875,2024-01-31 18h12.03.154800 -0500,
12,"[0.64, -0.4]",None,,,,,0,30,30,30,,,,,2267.775863799965,,,,,,,,,,,,,,,,,,,,,,,,,,,,,,,,,,,,,,,,,,,,,,2267.7607660999056,2267.775863799965,2267.775863799965,2268.275607699994,2268.275607699994,2270.7756040000822,2270.7756040000822,2270.759529199917,None,1,,,,,,,,,,,,,,,,,,,,,,,,,nback79,001,2024-01-31_17h54.13.301,untitled,2023.2.3,59.96990710883875,2024-01-31 18h12.03.154800 -0500,
12,"[0.64, -0.4]",space,,,,,0,31,31,31,,,,,2270.7756040000822,,,,,,,,,,,,,,,,,,,,,,,,,,,,,,,,,,,,,,,,,,,,,,2270.760119300103,2270.7756040000822,2270.7756040000822,2271.275607000105,2271.275607000105,2273.775444400031,2273.775444400031,2273.759547200054,space,1,0.5130062999669462,None,,,,,,,,,,,,,,,,,,,,,,,nback79,001,2024-01-31_17h54.13.301,untitled,2023.2.3,59.96990710883875,2024-01-31 18h12.03.154800 -0500,
2,"[0.64, 0.4]",None,,,,,0,32,32,32,,,,,2273.775444400031,,,,,,,,,,,,,,,,,,,,,,,,,,,,,,,,,,,,,,,,,,,,,,2273.7602069999557,2273.775444400031,2273.775444400031,2274.275541299954,2274.275541299954,2276.775439799996,2276.775439799996,2276.7593141999096,None,1,,,,,,,,,,,,,,,,,,,,,,,,,nback79,001,2024-01-31_17h54.13.301,untitled,2023.2.3,59.96990710883875,2024-01-31 18h12.03.154800 -0500,
1,"[-0.64, 0.4]",None,,,,,0,33,33,33,,,,,2276.775439799996,,,,,,,,,,,,,,,,,,,,,,,,,,,,,,,,,,,,,,,,,,,,,,2276.759908299893,2276.775439799996,2276.775439799996,2277.27565700002,2277.27565700002,2279.7753415000625,2279.7753415000625,2279.7592869999353,None,1,,,,,,,,,,,,,,,,,,,,,,,,,nback79,001,2024-01-31_17h54.13.301,untitled,2023.2.3,59.96990710883875,2024-01-31 18h12.03.154800 -0500,
7,"[0.3, 0]",None,,,,,0,34,34,34,,,,,2279.7753415000625,,,,,,,,,,,,,,,,,,,,,,,,,,,,,,,,,,,,,,,,,,,,,,2279.759819699917,2279.7753415000625,2279.7753415000625,2280.2754096998833,2280.2754096998833,2282.7752954000607,2282.7752954000607,2282.7592374000233,None,1,,,,,,,,,,,,,,,,,,,,,,,,,nback79,001,2024-01-31_17h54.13.301,untitled,2023.2.3,59.96990710883875,2024-01-31 18h12.03.154800 -0500,
7,"[0.3, 0]",space,,,,,0,35,35,35,,,,,2282.7752954000607,,,,,,,,,,,,,,,,,,,,,,,,,,,,,,,,,,,,,,,,,,,,,,2282.7597298999317,2282.7752954000607,2282.7752954000607,2283.2753306999803,2283.2753306999803,2285.7753494000062,2285.7753494000062,2285.7591748998966,space,1,0.45488710002973676,None,,,,,,,,,,,,,,,,,,,,,,,nback79,001,2024-01-31_17h54.13.301,untitled,2023.2.3,59.96990710883875,2024-01-31 18h12.03.154800 -0500,
11,"[-0.64, -0.4]",None,,,,,0,36,36,36,,,,,2285.7753494000062,,,,,,,,,,,,,,,,,,,,,,,,,,,,,,,,,,,,,,,,,,,,,,2285.759826600086,2285.7753494000062,2285.7753494000062,2286.2752366000786,2286.2752366000786,2288.775300899986,2288.775300899986,2288.759671299951,None,1,,,,,,,,,,,,,,,,,,,,,,,,,nback79,001,2024-01-31_17h54.13.301,untitled,2023.2.3,59.96990710883875,2024-01-31 18h12.03.154800 -0500,
2,"[0.64, 0.4]",None,,,,,0,37,37,37,,,,,2288.775300899986,,,,,,,,,,,,,,,,,,,,,,,,,,,,,,,,,,,,,,,,,,,,,,2288.7603515000083,2288.775300899986,2288.775300899986,2289.2751344998833,2289.2751344998833,2291.7751273000613,2291.7751273000613,2291.758960600011,None,1,,,,,,,,,,,,,,,,,,,,,,,,,nback79,001,2024-01-31_17h54.13.301,untitled,2023.2.3,59.96990710883875,2024-01-31 18h12.03.154800 -0500,
6,"[-0.3, 0]",None,,,,,0,38,38,38,,,,,2291.7751273000613,,,,,,,,,,,,,,,,,,,,,,,,,,,,,,,,,,,,,,,,,,,,,,2291.7594198998995,2291.7751273000613,2291.7751273000613,2292.2752582998946,2292.2752582998946,2294.7752231999766,2294.7752231999766,2294.7589416999836,None,1,,,,,,,,,,,,,,,,,,,,,,,,,nback79,001,2024-01-31_17h54.13.301,untitled,2023.2.3,59.96990710883875,2024-01-31 18h12.03.154800 -0500,
10,"[0, -0.2]",None,,,,,0,39,39,39,,,,,2294.7752231999766,,,,,,,,,,,,,,,,,,,,,,,,,,,,,,,,,,,,,,,,,,,,,,2294.759477799991,2294.7752231999766,2294.7752231999766,2295.275075699901,2295.275075699901,2297.7752727998886,2297.7752727998886,2297.7589722000994,None,1,,,,,,,,,,,,,,,,,,,,,,,,,nback79,001,2024-01-31_17h54.13.301,untitled,2023.2.3,59.96990710883875,2024-01-31 18h12.03.154800 -0500,
,,,,,,,,,,,,,,,,,,,,,,,,,,,,,,,,,,,,,,,,,,,,,,,,,,,,,,,,,,,,,,,,,,,,,,,,,2297.7593251999933,2297.7752727998886,2297.7752727998886,2333.975512200035,space,36.19796529994346,None,,,,,,,,,,,,,,,,nback79,001,2024-01-31_17h54.13.301,untitled,2023.2.3,59.96990710883875,2024-01-31 18h12.03.154800 -0500,
,"[0.2, 0.1]",None,,,,,,,,,0,0,0,0,2334.991349400021,,,,,,,,,,,,,,,,,,,,,,,,2333.975544200046,2333.9909856999293,2334.991349400021,2334.9751462999266,,,,,,,,,,,,,,,,,,,,,,,,,,,,,,,,,,,,,,2334.989287599921,2334.991349400021,2334.991349400021,2335.4910687000956,2335.4910687000956,2337.991089500021,2337.991089500021,2337.974867899902,None,1,,,,,,nback79,001,2024-01-31_17h54.13.301,untitled,2023.2.3,59.96990710883875,2024-01-31 18h12.03.154800 -0500,
,"[0.64, 0.4]",None,,,,,,,,,0,1,1,1,2337.991089500021,,,,,,,,,,,,,,,,,,,,,,,,,,,,,,,,,,,,,,,,,,,,,,,,,,,,,,,,,,,,,,,,,2337.975456400076,2337.991089500021,2337.991089500021,2338.490992099978,2338.4743989999406,2340.974294600077,2340.9908117998857,2340.974862900097,None,1,,,,,,nback79,001,2024-01-31_17h54.13.301,untitled,2023.2.3,59.96990710883875,2024-01-31 18h12.03.154800 -0500,
,"[-0.3, 0]",None,,,,,,,,,0,2,2,2,2340.9908117998857,,,,,,,,,,,,,,,,,,,,,,,,,,,,,,,,,,,,,,,,,,,,,,,,,,,,,,,,,,,,,,,,,2340.975416000001,2340.9908117998857,2340.9908117998857,2341.4910476000514,2341.4910476000514,2343.990990600083,2343.990990600083,2343.974769399967,None,1,,,,,,nback79,001,2024-01-31_17h54.13.301,untitled,2023.2.3,59.96990710883875,2024-01-31 18h12.03.154800 -0500,
,"[0.2, -0.1]",None,,,,,,,,,0,3,3,3,2343.990990600083,,,,,,,,,,,,,,,,,,,,,,,,,,,,,,,,,,,,,,,,,,,,,,,,,,,,,,,,,,,,,,,,,2343.975078899879,2343.990990600083,2343.990990600083,2344.4907269999385,2344.4907269999385,2346.990760500077,2346.990760500077,2346.974670100026,None,1,,,,,,nback79,001,2024-01-31_17h54.13.301,untitled,2023.2.3,59.96990710883875,2024-01-31 18h12.03.154800 -0500,
,"[0, 0.2]",None,,,,,,,,,0,4,4,4,2346.990760500077,,,,,,,,,,,,,,,,,,,,,,,,,,,,,,,,,,,,,,,,,,,,,,,,,,,,,,,,,,,,,,,,,2346.9751665999647,2346.990760500077,2346.990760500077,2347.4921909999102,2347.4921909999102,,2349.990831400035,2349.9909727999475,None,1,,,,,,nback79,001,2024-01-31_17h54.13.301,untitled,2023.2.3,59.96990710883875,2024-01-31 18h12.03.154800 -0500,
,"[0.2, -0.1]",space,,,,,,,,,0,5,5,5,2350.0075207999907,,,,,,,,,,,,,,,,,,,,,,,,,,,,,,,,,,,,,,,,,,,,,,,,,,,,,,,,,,,,,,,,,2349.991491999943,2350.0075207999907,2350.0075207999907,2350.5077515998855,2350.490910900058,2352.9907873000484,,2352.9909351000097,None,0,,,,,,nback79,001,2024-01-31_17h54.13.301,untitled,2023.2.3,59.96990710883875,2024-01-31 18h12.03.154800 -0500,
,"[0, -0.2]",None,,,,,,,,,0,6,6,6,2353.007491199998,,,,,,,,,,,,,,,,,,,,,,,,,,,,,,,,,,,,,,,,,,,,,,,,,,,,,,,,,,,,,,,,,2352.9915132999886,2353.007491199998,2353.007491199998,2353.5073545998894,2353.4905654999893,2355.9905238999054,,2355.9906651000492,None,1,,,,,,nback79,001,2024-01-31_17h54.13.301,untitled,2023.2.3,59.96990710883875,2024-01-31 18h12.03.154800 -0500,
,"[0.64, -0.4]",None,,,,,,,,,0,7,7,7,2356.007508199895,,,,,,,,,,,,,,,,,,,,,,,,,,,,,,,,,,,,,,,,,,,,,,,,,,,,,,,,,,,,,,,,,2355.991280300077,2356.007508199895,2356.007508199895,2356.5074966000393,2356.4905971998814,2358.990791300079,,2358.9909663000144,None,1,,,,,,nback79,001,2024-01-31_17h54.13.301,untitled,2023.2.3,59.96990710883875,2024-01-31 18h12.03.154800 -0500,
,"[0.3, 0]",None,,,,,,,,,0,8,8,8,2359.00733459997,,,,,,,,,,,,,,,,,,,,,,,,,,,,,,,,,,,,,,,,,,,,,,,,,,,,,,,,,,,,,,,,,2358.991574200103,2359.00733459997,2359.00733459997,2359.5073382998817,2359.490599399898,2361.9905777999666,,2361.990700399969,None,1,,,,,,nback79,001,2024-01-31_17h54.13.301,untitled,2023.2.3,59.96990710883875,2024-01-31 18h12.03.154800 -0500,
,"[0.64, -0.4]",space,,,,,,,,,0,9,9,9,2362.007363300072,,,,,,,,,,,,,,,,,,,,,,,,,,,,,,,,,,,,,,,,,,,,,,,,,,,,,,,,,,,,,,,,,2361.991278300062,2362.007363300072,2362.007363300072,2362.507252200041,2362.4906224999577,2364.9905248000287,,2364.9906486999243,space,1,1.1298937001265585,None,,,,nback79,001,2024-01-31_17h54.13.301,untitled,2023.2.3,59.96990710883875,2024-01-31 18h12.03.154800 -0500,
,"[-0.64, 0.4]",None,,,,,,,,,0,10,10,10,2365.0071463000495,,,,,,,,,,,,,,,,,,,,,,,,,,,,,,,,,,,,,,,,,,,,,,,,,,,,,,,,,,,,,,,,,2364.991217199946,2365.0071463000495,2365.0071463000495,2365.507190800039,2365.490562299965,2367.990519199986,,2367.9906752000097,None,1,,,,,,nback79,001,2024-01-31_17h54.13.301,untitled,2023.2.3,59.96990710883875,2024-01-31 18h12.03.154800 -0500,
,"[0.2, 0.1]",None,,,,,,,,,0,11,11,11,2368.007149500074,,,,,,,,,,,,,,,,,,,,,,,,,,,,,,,,,,,,,,,,,,,,,,,,,,,,,,,,,,,,,,,,,2367.991397399921,2368.007149500074,2368.007149500074,2368.5071711000055,2368.4904187000357,2370.9902933998965,,2370.990453199949,None,1,,,,,,nback79,001,2024-01-31_17h54.13.301,untitled,2023.2.3,59.96990710883875,2024-01-31 18h12.03.154800 -0500,
,"[0.3, 0]",None,,,,,,,,,0,12,12,12,2371.0072961999103,,,,,,,,,,,,,,,,,,,,,,,,,,,,,,,,,,,,,,,,,,,,,,,,,,,,,,,,,,,,,,,,,2370.9911599000916,2371.0072961999103,2371.0072961999103,2371.507026999956,2371.490381400101,2373.990312400041,,2373.990460800007,None,1,,,,,,nback79,001,2024-01-31_17h54.13.301,untitled,2023.2.3,59.96990710883875,2024-01-31 18h12.03.154800 -0500,
,"[0.2, 0.1]",space,,,,,,,,,0,13,13,13,2374.0071050000843,,,,,,,,,,,,,,,,,,,,,,,,,,,,,,,,,,,,,,,,,,,,,,,,,,,,,,,,,,,,,,,,,2373.9910917999223,2374.0071050000843,2374.0071050000843,2374.5069645999465,2374.4903565000277,2376.9904400000814,,2376.9905884999316,None,0,,,,,,nback79,001,2024-01-31_17h54.13.301,untitled,2023.2.3,59.96990710883875,2024-01-31 18h12.03.154800 -0500,
,"[-0.3, 0]",None,,,,,,,,,0,14,14,14,2377.007002600003,,,,,,,,,,,,,,,,,,,,,,,,,,,,,,,,,,,,,,,,,,,,,,,,,,,,,,,,,,,,,,,,,2376.991198600037,2377.007002600003,2377.007002600003,2377.506961399922,2377.4902832000516,2379.9902633000165,,2379.9904074999504,None,1,,,,,,nback79,001,2024-01-31_17h54.13.301,untitled,2023.2.3,59.96990710883875,2024-01-31 18h12.03.154800 -0500,
,"[0, 0.2]",None,,,,,,,,,0,15,15,15,2380.0070418000687,,,,,,,,,,,,,,,,,,,,,,,,,,,,,,,,,,,,,,,,,,,,,,,,,,,,,,,,,,,,,,,,,2379.990936700022,2380.0070418000687,2380.0070418000687,2380.506860200083,2380.490226800088,2382.9902903998736,,2382.9905097999144,None,1,,,,,,nback79,001,2024-01-31_17h54.13.301,untitled,2023.2.3,59.96990710883875,2024-01-31 18h12.03.154800 -0500,
,"[-0.3, 0]",space,,,,,,,,,0,16,16,16,2383.006989700021,,,,,,,,,,,,,,,,,,,,,,,,,,,,,,,,,,,,,,,,,,,,,,,,,,,,,,,,,,,,,,,,,2382.9915765998885,2383.006989700021,2383.006989700021,2383.506836999906,2383.490200900007,2385.9901570999064,,2385.990323100006,space,1,0.39685610006563365,None,,,,nback79,001,2024-01-31_17h54.13.301,untitled,2023.2.3,59.96990710883875,2024-01-31 18h12.03.154800 -0500,
,"[-0.64, -0.4]",None,,,,,,,,,0,17,17,17,2386.006950400071,,,,,,,,,,,,,,,,,,,,,,,,,,,,,,,,,,,,,,,,,,,,,,,,,,,,,,,,,,,,,,,,,2385.991019200068,2386.006950400071,2386.006950400071,2386.506927700015,2386.490301199956,2388.9900070999283,,2388.990170399891,None,1,,,,,,nback79,001,2024-01-31_17h54.13.301,untitled,2023.2.3,59.96990710883875,2024-01-31 18h12.03.154800 -0500,
,"[-0.2, -0.1]",None,,,,,,,,,0,18,18,18,2389.006980000064,,,,,,,,,,,,,,,,,,,,,,,,,,,,,,,,,,,,,,,,,,,,,,,,,,,,,,,,,,,,,,,,,2388.9908656000625,2389.006980000064,2389.006980000064,2389.5067932000384,2389.4901312999427,2391.990036800038,,2391.9901375998743,None,1,,,,,,nback79,001,2024-01-31_17h54.13.301,untitled,2023.2.3,59.96990710883875,2024-01-31 18h12.03.154800 -0500,
,"[0.2, -0.1]",None,,,,,,,,,0,19,19,19,2392.006767899962,,,,,,,,,,,,,,,,,,,,,,,,,,,,,,,,,,,,,,,,,,,,,,,,,,,,,,,,,,,,,,,,,2391.9906518999487,2392.006767899962,2392.006767899962,2392.506830800092,2392.48998990003,2394.9898896000814,,2394.9900430000853,None,1,,,,,,nback79,001,2024-01-31_17h54.13.301,untitled,2023.2.3,59.96990710883875,2024-01-31 18h12.03.154800 -0500,
,"[0.2, -0.1]",None,,,,,,,,,0,20,20,20,2395.0068069000263,,,,,,,,,,,,,,,,,,,,,,,,,,,,,,,,,,,,,,,,,,,,,,,,,,,,,,,,,,,,,,,,,2394.990703899879,2395.0068069000263,2395.0068069000263,2395.506727699889,2395.4901372999884,2397.990092099877,,2397.9902582999784,None,1,,,,,,nback79,001,2024-01-31_17h54.13.301,untitled,2023.2.3,59.96990710883875,2024-01-31 18h12.03.154800 -0500,
,"[-0.64, 0.4]",None,,,,,,,,,0,21,21,21,2398.0066871999297,,,,,,,,,,,,,,,,,,,,,,,,,,,,,,,,,,,,,,,,,,,,,,,,,,,,,,,,,,,,,,,,,2397.9908541000914,2398.0066871999297,2398.0066871999297,2398.5068316999823,2398.489982099971,2400.989826899953,,2400.989985199878,None,1,,,,,,nback79,001,2024-01-31_17h54.13.301,untitled,2023.2.3,59.96990710883875,2024-01-31 18h12.03.154800 -0500,
,"[0, 0.2]",None,,,,,,,,,0,22,22,22,2401.0066879000515,,,,,,,,,,,,,,,,,,,,,,,,,,,,,,,,,,,,,,,,,,,,,,,,,,,,,,,,,,,,,,,,,2400.99063939997,2401.0066879000515,2401.0066879000515,2401.5066043999977,2401.4897789000534,2403.989839100046,,2403.9899617999326,None,1,,,,,,nback79,001,2024-01-31_17h54.13.301,untitled,2023.2.3,59.96990710883875,2024-01-31 18h12.03.154800 -0500,
,"[0.64, -0.4]",None,,,,,,,,,0,23,23,23,2404.006504500052,,,,,,,,,,,,,,,,,,,,,,,,,,,,,,,,,,,,,,,,,,,,,,,,,,,,,,,,,,,,,,,,,2403.9905685998965,2404.006504500052,2404.006504500052,2404.5066478999797,2404.4898347000126,2406.989836799912,,2406.98997720005,None,1,,,,,,nback79,001,2024-01-31_17h54.13.301,untitled,2023.2.3,59.96990710883875,2024-01-31 18h12.03.154800 -0500,
,"[0, 0.2]",space,,,,,,,,,0,24,24,24,2407.0064342000987,,,,,,,,,,,,,,,,,,,,,,,,,,,,,,,,,,,,,,,,,,,,,,,,,,,,,,,,,,,,,,,,,2406.990559600061,2407.0064342000987,2407.0064342000987,2407.506465999875,2407.489892799873,2409.9898731999565,,2409.9900195000228,None,0,,,,,,nback79,001,2024-01-31_17h54.13.301,untitled,2023.2.3,59.96990710883875,2024-01-31 18h12.03.154800 -0500,
,"[-0.2, 0.1]",None,,,,,,,,,0,25,25,25,2410.0066164999735,,,,,,,,,,,,,,,,,,,,,,,,,,,,,,,,,,,,,,,,,,,,,,,,,,,,,,,,,,,,,,,,,2409.990597399883,2410.0066164999735,2410.0066164999735,2410.506413999945,2410.48974739993,2412.9897183000576,,2412.9898665999062,None,1,,,,,,nback79,001,2024-01-31_17h54.13.301,untitled,2023.2.3,59.96990710883875,2024-01-31 18h12.03.154800 -0500,
,"[0.3, 0]",None,,,,,,,,,0,26,26,26,2413.0064038001,,,,,,,,,,,,,,,,,,,,,,,,,,,,,,,,,,,,,,,,,,,,,,,,,,,,,,,,,,,,,,,,,2412.990480999928,2413.0064038001,2413.0064038001,2413.5066547000315,2413.4896621000953,2415.9896919000894,,2415.9898500000127,None,1,,,,,,nback79,001,2024-01-31_17h54.13.301,untitled,2023.2.3,59.96990710883875,2024-01-31 18h12.03.154800 -0500,
,"[-0.2, 0.1]",space,,,,,,,,,0,27,27,27,2416.0062961999793,,,,,,,,,,,,,,,,,,,,,,,,,,,,,,,,,,,,,,,,,,,,,,,,,,,,,,,,,,,,,,,,,2415.9905685998965,2416.0062961999793,2416.0062961999793,2416.5063755998854,2416.4895911000203,2418.9897082999814,,2418.9898842999246,None,0,,,,,,nback79,001,2024-01-31_17h54.13.301,untitled,2023.2.3,59.96990710883875,2024-01-31 18h12.03.154800 -0500,
,"[-0.2, 0.1]",None,,,,,,,,,0,28,28,28,2419.006385500077,,,,,,,,,,,,,,,,,,,,,,,,,,,,,,,,,,,,,,,,,,,,,,,,,,,,,,,,,,,,,,,,,2418.9906484000385,2419.006385500077,2419.006385500077,2419.5062825998757,2419.489582200069,2421.9893777999096,,2421.98950590007,None,1,,,,,,nback79,001,2024-01-31_17h54.13.301,untitled,2023.2.3,59.96990710883875,2024-01-31 18h12.03.154800 -0500,
,"[0.2, 0.1]",None,,,,,,,,,0,29,29,29,2422.0063344000373,,,,,,,,,,,,,,,,,,,,,,,,,,,,,,,,,,,,,,,,,,,,,,,,,,,,,,,,,,,,,,,,,2421.990093600005,2422.0063344000373,2422.0063344000373,2422.5061939998996,2422.4895301000215,2424.989616099978,,2424.9897749999072,None,1,,,,,,nback79,001,2024-01-31_17h54.13.301,untitled,2023.2.3,59.96990710883875,2024-01-31 18h12.03.154800 -0500,
,"[-0.64, -0.4]",None,,,,,,,,,0,30,30,30,2425.0061450998764,,,,,,,,,,,,,,,,,,,,,,,,,,,,,,,,,,,,,,,,,,,,,,,,,,,,,,,,,,,,,,,,,2424.9904738999903,2425.0061450998764,2425.0061450998764,2425.5062251999043,2425.489471399924,2427.989430699963,,2427.989574600011,None,1,,,,,,nback79,001,2024-01-31_17h54.13.301,untitled,2023.2.3,59.96990710883875,2024-01-31 18h12.03.154800 -0500,
,"[0, -0.2]",None,,,,,,,,,0,31,31,31,2428.0062023999635,,,,,,,,,,,,,,,,,,,,,,,,,,,,,,,,,,,,,,,,,,,,,,,,,,,,,,,,,,,,,,,,,2427.990164299961,2428.0062023999635,2428.0062023999635,2428.506117800018,2428.4895585998893,2430.9892988000065,,2430.98945689993,None,1,,,,,,nback79,001,2024-01-31_17h54.13.301,untitled,2023.2.3,59.96990710883875,2024-01-31 18h12.03.154800 -0500,
,"[-0.64, -0.4]",space,,,,,,,,,0,32,32,32,2431.006166399922,,,,,,,,,,,,,,,,,,,,,,,,,,,,,,,,,,,,,,,,,,,,,,,,,,,,,,,,,,,,,,,,,2430.9901344000828,2431.006166399922,2431.006166399922,2431.506405299995,2431.489280699985,2433.9893290000036,,2433.9894658999983,space,1,0.4190595999825746,None,,,,nback79,001,2024-01-31_17h54.13.301,untitled,2023.2.3,59.96990710883875,2024-01-31 18h12.03.154800 -0500,
,"[0.64, 0.4]",None,,,,,,,,,0,33,33,33,2434.0061375000514,,,,,,,,,,,,,,,,,,,,,,,,,,,,,,,,,,,,,,,,,,,,,,,,,,,,,,,,,,,,,,,,,2433.990162800066,2434.0061375000514,2434.0061375000514,2434.506012900034,2434.489158600103,2436.9893008000217,,2436.989429600071,None,1,,,,,,nback79,001,2024-01-31_17h54.13.301,untitled,2023.2.3,59.96990710883875,2024-01-31 18h12.03.154800 -0500,
,"[-0.3, 0]",None,,,,,,,,,0,34,34,34,2437.00599580002,,,,,,,,,,,,,,,,,,,,,,,,,,,,,,,,,,,,,,,,,,,,,,,,,,,,,,,,,,,,,,,,,2436.9900457998738,2437.00599580002,2437.00599580002,2437.506081300089,2437.489198599942,2439.9890439000446,,2439.989160799887,None,1,,,,,,nback79,001,2024-01-31_17h54.13.301,untitled,2023.2.3,59.96990710883875,2024-01-31 18h12.03.154800 -0500,
,"[0.3, 0]",None,,,,,,,,,0,35,35,35,2440.005889999913,,,,,,,,,,,,,,,,,,,,,,,,,,,,,,,,,,,,,,,,,,,,,,,,,,,,,,,,,,,,,,,,,2439.9897503000684,2440.005889999913,2440.005889999913,2440.505997200031,2440.489197100047,2442.989149299916,,2442.9893133000005,None,1,,,,,,nback79,001,2024-01-31_17h54.13.301,untitled,2023.2.3,59.96990710883875,2024-01-31 18h12.03.154800 -0500,
,"[-0.3, 0]",space,,,,,,,,,0,36,36,36,2443.005831599934,,,,,,,,,,,,,,,,,,,,,,,,,,,,,,,,,,,,,,,,,,,,,,,,,,,,,,,,,,,,,,,,,2442.9899877000134,2443.005831599934,2443.005831599934,2443.5059988999274,2443.4890864999034,2445.9890036999714,,2445.9891611000057,space,1,0.7320849001407623,None,,,,nback79,001,2024-01-31_17h54.13.301,untitled,2023.2.3,59.96990710883875,2024-01-31 18h12.03.154800 -0500,
,"[0, -0.2]",None,,,,,,,,,0,37,37,37,2446.005963699892,,,,,,,,,,,,,,,,,,,,,,,,,,,,,,,,,,,,,,,,,,,,,,,,,,,,,,,,,,,,,,,,,2445.989888299955,2446.005963699892,2446.005963699892,2446.5057757000905,2446.48900089995,2448.9891129001044,,2448.9892738999333,None,1,,,,,,nback79,001,2024-01-31_17h54.13.301,untitled,2023.2.3,59.96990710883875,2024-01-31 18h12.03.154800 -0500,
,"[0.3, 0]",None,,,,,,,,,0,38,38,38,2449.005753699923,,,,,,,,,,,,,,,,,,,,,,,,,,,,,,,,,,,,,,,,,,,,,,,,,,,,,,,,,,,,,,,,,2448.9900014998857,2449.005753699923,2449.005753699923,2449.5059549999423,2449.488977599889,2451.989026800031,,2451.989178299904,None,1,,,,,,nback79,001,2024-01-31_17h54.13.301,untitled,2023.2.3,59.96990710883875,2024-01-31 18h12.03.154800 -0500,
,"[0.2, 0.1]",None,,,,,,,,,0,39,39,39,2452.005786099937,,,,,,,,,,,,,,,,,,,,,,,,,,,,,,,,,,,,,,,,,,,,,,,,,,,,,,,,,,,,,,,,,2451.989795099944,2452.005786099937,2452.005786099937,2452.5058228001,2452.4889815999195,2454.988933800021,,2454.9890217999928,None,1,,,,,,nback79,001,2024-01-31_17h54.13.301,untitled,2023.2.3,59.96990710883875,2024-01-31 18h12.03.154800 -0500,
,,,,,,,,,,,,,,,,,,,,,,,,,,,,,,,,,,,,,,,,,,,,,,,,,,,,,,,,,,,,,,,,,,,,,,,,,,,,,,,,,,,,,,,,,,,,2454.9892392999027,2455.005942400079,2457.988987599965,,,,,,,,
