square,location,corrAns,trials_0.thisRepN,trials_0.thisTrialN,trials_0.thisN,trials_0.thisIndex,trials_1.thisRepN,trials_1.thisTrialN,trials_1.thisN,trials_1.thisIndex,trials_2.thisRepN,trials_2.thisTrialN,trials_2.thisN,trials_2.thisIndex,thisRow.t,notes,Instructions.started,instructions.started,key_resp.started,inst_sq11.started,Instructions.stopped,key_resp.keys,key_resp.rt,key_resp.duration,All.started,sq_1.started,sq_2.started,sq_3.started,sq_4.started,sq_5.started,sq_6.started,sq_7.started,sq_8.started,sq_9.started,sq_10.started,sq_11.started,sq_12.started,All.stopped,Fixation.started,fixation_3.started,fixation_3.stopped,Fixation.stopped,N_back_0_Trial.started,target_square_0.started,response_0.started,fixation_0.started,target_square_0.stopped,fixation_0.stopped,response_0.stopped,N_back_0_Trial.stopped,response_0.keys,response_0.corr,response_0.rt,response_0.duration,Instructions_1.started,instructions_1.started,key_resp_1.started,Instructions_1.stopped,key_resp_1.keys,key_resp_1.rt,key_resp_1.duration,N_back_1_Trial.started,target_square_1.started,response_1.started,target_square_1.stopped,fixation_1.started,fixation_1.stopped,response_1.stopped,N_back_1_Trial.stopped,response_1.keys,response_1.corr,response_1.rt,response_1.duration,Instructions_2.started,instructions_2.started,key_resp_2.started,Instructions_2.stopped,key_resp_2.keys,key_resp_2.rt,key_resp_2.duration,N_back_2_trials.started,target_square_2.started,response_2.started,target_square_2.stopped,fixation_2.started,fixation_2.stopped,response_2.stopped,N_back_2_trials.stopped,response_2.keys,response_2.corr,response_2.rt,response_2.duration,End.started,thank_you.started,thank_you.stopped,End.stopped,participant,session,date,expName,psychopyVersion,frameRate,expStart,
,,,,,,,,,,,,,,,,,0.0012215000024298206,0.003905799996573478,0.003905799996573478,0.003905799996573478,1312.0288535,space,1312.0087551000033,None,,,,,,,,,,,,,,,,,,,,,,,,,,,,,,,,,,,,,,,,,,,,,,,,,,,,,,,,,,,,,,,,,,,,,,,,,nback81,001,2024-02-02_14h04.10.928,untitled,2023.2.3,60.004884394615374,2024-02-02 14h17.30.733988 -0500,
6,"[-0.3, 0]",None,0,0,0,0,,,,,,,,,1314.044147099994,,,,,,,,,,1312.028883699997,1312.0442067999975,1312.0442067999975,1312.0442067999975,1312.0442067999975,1312.0442067999975,1312.0442067999975,1312.0442067999975,1312.0442067999975,1312.0442067999975,1312.0442067999975,1312.0442067999975,1312.0442067999975,1313.0279812999943,1313.0279940000037,1313.0441208999982,1314.044147099994,1314.027952400007,1314.038179199997,1314.044147099994,1314.044147099994,1314.527487600004,1314.5443169000064,1317.0274403999938,1317.0441280999949,1317.0278254000004,None,1,,,,,,,,,,,,,,,,,,,,,,,,,,,,,,,,,,,,,,,,,,,,,nback81,001,2024-02-02_14h04.10.928,untitled,2023.2.3,60.004884394615374,2024-02-02 14h17.30.733988 -0500,
10,"[0, -0.2]",None,0,1,1,1,,,,,,,,,1317.0441280999949,,,,,,,,,,,,,,,,,,,,,,,,,,,,1317.0283182999992,1317.0441280999949,1317.0441280999949,1317.5274437000044,1317.544107499998,1320.0274600999983,1320.0441043000028,1320.0280135999928,None,1,,,,,,,,,,,,,,,,,,,,,,,,,,,,,,,,,,,,,,,,,,,,,nback81,001,2024-02-02_14h04.10.928,untitled,2023.2.3,60.004884394615374,2024-02-02 14h17.30.733988 -0500,
11,"[-0.64, -0.4]",space,0,2,2,2,,,,,,,,,1320.0441043000028,,,,,,,,,,,,,,,,,,,,,,,,,,,,1320.0284109000058,1320.0441043000028,1320.0441043000028,1320.5274377000023,1320.5441714000044,1323.0273547999968,1323.0440742999926,1323.0277751999965,space,1,0.40458200000284705,None,,,,,,,,,,,,,,,,,,,,,,,,,,,,,,,,,,,,,,,,,,,nback81,001,2024-02-02_14h04.10.928,untitled,2023.2.3,60.004884394615374,2024-02-02 14h17.30.733988 -0500,
12,"[0.64, -0.4]",None,0,3,3,3,,,,,,,,,1323.0440742999926,,,,,,,,,,,,,,,,,,,,,,,,,,,,1323.0285577000031,1323.0440742999926,1323.0440742999926,1323.5273408000066,1323.5440923999995,1326.0273691000039,1326.0439849999966,1326.0278059999982,None,1,,,,,,,,,,,,,,,,,,,,,,,,,,,,,,,,,,,,,,,,,,,,,nback81,001,2024-02-02_14h04.10.928,untitled,2023.2.3,60.004884394615374,2024-02-02 14h17.30.733988 -0500,
1,"[-0.64, 0.4]",None,0,4,4,4,,,,,,,,,1326.0439849999966,,,,,,,,,,,,,,,,,,,,,,,,,,,,1326.0281182000035,1326.0439849999966,1326.0439849999966,1326.5273891999968,1326.5439678999974,1329.0273301999987,1329.0439496000035,1329.0277262000018,None,1,,,,,,,,,,,,,,,,,,,,,,,,,,,,,,,,,,,,,,,,,,,,,nback81,001,2024-02-02_14h04.10.928,untitled,2023.2.3,60.004884394615374,2024-02-02 14h17.30.733988 -0500,
1,"[-0.64, 0.4]",None,0,5,5,5,,,,,,,,,1329.0439496000035,,,,,,,,,,,,,,,,,,,,,,,,,,,,1329.0280839000043,1329.0439496000035,1329.0439496000035,1329.527274699998,1329.5439328000066,1332.0271856000036,1332.043822000007,1332.0276351999928,None,1,,,,,,,,,,,,,,,,,,,,,,,,,,,,,,,,,,,,,,,,,,,,,nback81,001,2024-02-02_14h04.10.928,untitled,2023.2.3,60.004884394615374,2024-02-02 14h17.30.733988 -0500,
4,"[-0.2, 0.1]",None,0,6,6,6,,,,,,,,,1332.043822000007,,,,,,,,,,,,,,,,,,,,,,,,,,,,1332.0279643999966,1332.043822000007,1332.043822000007,1332.527312899998,1332.543822599997,1335.027222100005,1335.0438280999952,1335.027734999996,None,1,,,,,,,,,,,,,,,,,,,,,,,,,,,,,,,,,,,,,,,,,,,,,nback81,001,2024-02-02_14h04.10.928,untitled,2023.2.3,60.004884394615374,2024-02-02 14h17.30.733988 -0500,
5,"[0.2, 0.1]",None,0,7,7,7,,,,,,,,,1335.0438280999952,,,,,,,,,,,,,,,,,,,,,,,,,,,,1335.0280590000039,1335.0438280999952,1335.0438280999952,1335.5272647999955,1335.5438218000054,1338.0270924999932,1338.0438130999974,1338.0275526000041,None,1,,,,,,,,,,,,,,,,,,,,,,,,,,,,,,,,,,,,,,,,,,,,,nback81,001,2024-02-02_14h04.10.928,untitled,2023.2.3,60.004884394615374,2024-02-02 14h17.30.733988 -0500,
11,"[-0.64, -0.4]",space,0,8,8,8,,,,,,,,,1338.0438130999974,,,,,,,,,,,,,,,,,,,,,,,,,,,,1338.0278881999984,1338.0438130999974,1338.0438130999974,1338.5271478000068,1338.5437454000057,1341.0270977000037,1341.043728100005,1341.0276344000013,space,1,0.6701402000035159,None,,,,,,,,,,,,,,,,,,,,,,,,,,,,,,,,,,,,,,,,,,,nback81,001,2024-02-02_14h04.10.928,untitled,2023.2.3,60.004884394615374,2024-02-02 14h17.30.733988 -0500,
9,"[0.2, -0.1]",None,0,9,9,9,,,,,,,,,1341.043728100005,,,,,,,,,,,,,,,,,,,,,,,,,,,,1341.0282076000003,1341.043728100005,1341.043728100005,1341.5272203000059,1341.5437251999974,1344.026974399996,1344.043695100001,1344.02751,None,1,,,,,,,,,,,,,,,,,,,,,,,,,,,,,,,,,,,,,,,,,,,,,nback81,001,2024-02-02_14h04.10.928,untitled,2023.2.3,60.004884394615374,2024-02-02 14h17.30.733988 -0500,
8,"[-0.2, -0.1]",None,0,10,10,10,,,,,,,,,1344.043695100001,,,,,,,,,,,,,,,,,,,,,,,,,,,,1344.0280102999968,1344.043695100001,1344.043695100001,1344.5270584999962,1344.5437935999944,1347.0270057000016,1347.0436865999945,1347.027543300006,None,1,,,,,,,,,,,,,,,,,,,,,,,,,,,,,,,,,,,,,,,,,,,,,nback81,001,2024-02-02_14h04.10.928,untitled,2023.2.3,60.004884394615374,2024-02-02 14h17.30.733988 -0500,
9,"[0.2, -0.1]",None,0,11,11,11,,,,,,,,,1347.0436865999945,,,,,,,,,,,,,,,,,,,,,,,,,,,,1347.027889799996,1347.0436865999945,1347.0436865999945,1347.5436850999977,1347.5436850999977,1350.0435788000032,1350.0435788000032,1350.0274527000001,None,1,,,,,,,,,,,,,,,,,,,,,,,,,,,,,,,,,,,,,,,,,,,,,nback81,001,2024-02-02_14h04.10.928,untitled,2023.2.3,60.004884394615374,2024-02-02 14h17.30.733988 -0500,
6,"[-0.3, 0]",None,0,12,12,12,,,,,,,,,1350.0435788000032,,,,,,,,,,,,,,,,,,,,,,,,,,,,1350.0278362999961,1350.0435788000032,1350.0435788000032,1350.5435843000014,1350.5435843000014,1353.0435774999933,1353.0435774999933,1353.0273530999984,None,1,,,,,,,,,,,,,,,,,,,,,,,,,,,,,,,,,,,,,,,,,,,,,nback81,001,2024-02-02_14h04.10.928,untitled,2023.2.3,60.004884394615374,2024-02-02 14h17.30.733988 -0500,
9,"[0.2, -0.1]",None,0,13,13,13,,,,,,,,,1353.0435774999933,,,,,,,,,,,,,,,,,,,,,,,,,,,,1353.0277821000054,1353.0435774999933,1353.0435774999933,1353.543493300007,1353.543493300007,1356.0434746999963,1356.0434746999963,1356.0276883000042,None,1,,,,,,,,,,,,,,,,,,,,,,,,,,,,,,,,,,,,,,,,,,,,,nback81,001,2024-02-02_14h04.10.928,untitled,2023.2.3,60.004884394615374,2024-02-02 14h17.30.733988 -0500,
7,"[0.3, 0]",None,0,14,14,14,,,,,,,,,1356.0434746999963,,,,,,,,,,,,,,,,,,,,,,,,,,,,1356.0280499999935,1356.0434746999963,1356.0434746999963,1356.5270875999995,1356.5437336000032,1359.0267370999936,1359.0434821999952,1359.0271954000054,None,1,,,,,,,,,,,,,,,,,,,,,,,,,,,,,,,,,,,,,,,,,,,,,nback81,001,2024-02-02_14h04.10.928,untitled,2023.2.3,60.004884394615374,2024-02-02 14h17.30.733988 -0500,
2,"[0.64, 0.4]",None,0,15,15,15,,,,,,,,,1359.0434821999952,,,,,,,,,,,,,,,,,,,,,,,,,,,,1359.027557399997,1359.0434821999952,1359.0434821999952,1359.543529100003,1359.543529100003,1362.0434220000025,1362.0434220000025,1362.0271360000042,None,1,,,,,,,,,,,,,,,,,,,,,,,,,,,,,,,,,,,,,,,,,,,,,nback81,001,2024-02-02_14h04.10.928,untitled,2023.2.3,60.004884394615374,2024-02-02 14h17.30.733988 -0500,
2,"[0.64, 0.4]",None,0,16,16,16,,,,,,,,,1362.0434220000025,,,,,,,,,,,,,,,,,,,,,,,,,,,,1362.0275538999995,1362.0434220000025,1362.0434220000025,1362.5433760000014,1362.5433760000014,1365.0432445000042,1365.0432445000042,1365.0270127999975,None,1,,,,,,,,,,,,,,,,,,,,,,,,,,,,,,,,,,,,,,,,,,,,,nback81,001,2024-02-02_14h04.10.928,untitled,2023.2.3,60.004884394615374,2024-02-02 14h17.30.733988 -0500,
11,"[-0.64, -0.4]",space,0,17,17,17,,,,,,,,,1365.0432445000042,,,,,,,,,,,,,,,,,,,,,,,,,,,,1365.0273599999928,1365.0432445000042,1365.0432445000042,1365.5433807999943,1365.5433807999943,1368.0432435999974,1368.0432435999974,1368.0275529000064,space,1,0.49825450000935234,None,,,,,,,,,,,,,,,,,,,,,,,,,,,,,,,,,,,,,,,,,,,nback81,001,2024-02-02_14h04.10.928,untitled,2023.2.3,60.004884394615374,2024-02-02 14h17.30.733988 -0500,
11,"[-0.64, -0.4]",space,0,18,18,18,,,,,,,,,1368.0432435999974,,,,,,,,,,,,,,,,,,,,,,,,,,,,1368.0279498000018,1368.0432435999974,1368.0432435999974,1368.5434479999967,1368.5434479999967,1371.0432620000065,1371.0432620000065,1371.0268992000056,space,1,0.5031274999928428,None,,,,,,,,,,,,,,,,,,,,,,,,,,,,,,,,,,,,,,,,,,,nback81,001,2024-02-02_14h04.10.928,untitled,2023.2.3,60.004884394615374,2024-02-02 14h17.30.733988 -0500,
7,"[0.3, 0]",None,0,19,19,19,,,,,,,,,1371.0432620000065,,,,,,,,,,,,,,,,,,,,,,,,,,,,1371.027289000005,1371.0432620000065,1371.0432620000065,1371.5433359000017,1371.5433359000017,1374.0432019,1374.0432019,1374.0269410000037,None,1,,,,,,,,,,,,,,,,,,,,,,,,,,,,,,,,,,,,,,,,,,,,,nback81,001,2024-02-02_14h04.10.928,untitled,2023.2.3,60.004884394615374,2024-02-02 14h17.30.733988 -0500,
3,"[0, 0.2]",None,0,20,20,20,,,,,,,,,1374.0432019,,,,,,,,,,,,,,,,,,,,,,,,,,,,1374.0272550999944,1374.0432019,1374.0432019,1374.5431725999952,1374.5431725999952,1377.0432580000052,1377.0432580000052,1377.0269507000048,None,1,,,,,,,,,,,,,,,,,,,,,,,,,,,,,,,,,,,,,,,,,,,,,nback81,001,2024-02-02_14h04.10.928,untitled,2023.2.3,60.004884394615374,2024-02-02 14h17.30.733988 -0500,
10,"[0, -0.2]",None,0,21,21,21,,,,,,,,,1377.0432580000052,,,,,,,,,,,,,,,,,,,,,,,,,,,,1377.027319899993,1377.0432580000052,1377.0432580000052,1377.5432577000029,1377.5432577000029,1380.043081900003,1380.043081900003,1380.0270393999963,None,1,,,,,,,,,,,,,,,,,,,,,,,,,,,,,,,,,,,,,,,,,,,,,nback81,001,2024-02-02_14h04.10.928,untitled,2023.2.3,60.004884394615374,2024-02-02 14h17.30.733988 -0500,
1,"[-0.64, 0.4]",None,0,22,22,22,,,,,,,,,1380.043081900003,,,,,,,,,,,,,,,,,,,,,,,,,,,,1380.0274232999946,1380.043081900003,1380.043081900003,1380.5431124000024,1380.5431124000024,1383.0430536000058,1383.0430536000058,1383.0269421999983,None,1,,,,,,,,,,,,,,,,,,,,,,,,,,,,,,,,,,,,,,,,,,,,,nback81,001,2024-02-02_14h04.10.928,untitled,2023.2.3,60.004884394615374,2024-02-02 14h17.30.733988 -0500,
2,"[0.64, 0.4]",None,0,23,23,23,,,,,,,,,1383.0430536000058,,,,,,,,,,,,,,,,,,,,,,,,,,,,1383.0274363000062,1383.0430536000058,1383.0430536000058,1383.5431007000007,1383.5431007000007,1386.0429776999954,1386.0429776999954,1386.0268941999966,None,1,,,,,,,,,,,,,,,,,,,,,,,,,,,,,,,,,,,,,,,,,,,,,nback81,001,2024-02-02_14h04.10.928,untitled,2023.2.3,60.004884394615374,2024-02-02 14h17.30.733988 -0500,
6,"[-0.3, 0]",None,0,24,24,24,,,,,,,,,1386.0429776999954,,,,,,,,,,,,,,,,,,,,,,,,,,,,1386.0272395000065,1386.0429776999954,1386.0429776999954,1386.5429641999945,1386.5429641999945,1389.0429906999925,1389.0429906999925,1389.0271871000004,None,1,,,,,,,,,,,,,,,,,,,,,,,,,,,,,,,,,,,,,,,,,,,,,nback81,001,2024-02-02_14h04.10.928,untitled,2023.2.3,60.004884394615374,2024-02-02 14h17.30.733988 -0500,
3,"[0, 0.2]",None,0,25,25,25,,,,,,,,,1389.0429906999925,,,,,,,,,,,,,,,,,,,,,,,,,,,,1389.0275156999996,1389.0429906999925,1389.0429906999925,1389.5429134000005,1389.5429134000005,1392.0429467000067,1392.0429467000067,1392.0267099000048,None,1,,,,,,,,,,,,,,,,,,,,,,,,,,,,,,,,,,,,,,,,,,,,,nback81,001,2024-02-02_14h04.10.928,untitled,2023.2.3,60.004884394615374,2024-02-02 14h17.30.733988 -0500,
11,"[-0.64, -0.4]",space,0,26,26,26,,,,,,,,,1392.0429467000067,,,,,,,,,,,,,,,,,,,,,,,,,,,,1392.027059,1392.0429467000067,1392.0429467000067,1392.5429189999995,1392.5429189999995,1395.0428303999943,1395.0428303999943,1395.0265552000055,space,1,0.4066205999988597,None,,,,,,,,,,,,,,,,,,,,,,,,,,,,,,,,,,,,,,,,,,,nback81,001,2024-02-02_14h04.10.928,untitled,2023.2.3,60.004884394615374,2024-02-02 14h17.30.733988 -0500,
1,"[-0.64, 0.4]",None,0,27,27,27,,,,,,,,,1395.0428303999943,,,,,,,,,,,,,,,,,,,,,,,,,,,,1395.026993899999,1395.0428303999943,1395.0428303999943,1395.543037299998,1395.543037299998,1398.042860799993,1398.042860799993,1398.0268260000012,None,1,,,,,,,,,,,,,,,,,,,,,,,,,,,,,,,,,,,,,,,,,,,,,nback81,001,2024-02-02_14h04.10.928,untitled,2023.2.3,60.004884394615374,2024-02-02 14h17.30.733988 -0500,
3,"[0, 0.2]",None,0,28,28,28,,,,,,,,,1398.042860799993,,,,,,,,,,,,,,,,,,,,,,,,,,,,1398.027437800003,1398.042860799993,1398.042860799993,1398.5427505999978,1398.5427505999978,1401.0427051000006,1401.0427051000006,1401.0265065999993,None,1,,,,,,,,,,,,,,,,,,,,,,,,,,,,,,,,,,,,,,,,,,,,,nback81,001,2024-02-02_14h04.10.928,untitled,2023.2.3,60.004884394615374,2024-02-02 14h17.30.733988 -0500,
9,"[0.2, -0.1]",None,0,29,29,29,,,,,,,,,1401.0427051000006,,,,,,,,,,,,,,,,,,,,,,,,,,,,1401.0268903999968,1401.0427051000006,1401.0427051000006,1401.5427391999983,1401.5427391999983,1404.0427782000042,1404.0427782000042,1404.0264213000046,None,1,,,,,,,,,,,,,,,,,,,,,,,,,,,,,,,,,,,,,,,,,,,,,nback81,001,2024-02-02_14h04.10.928,untitled,2023.2.3,60.004884394615374,2024-02-02 14h17.30.733988 -0500,
8,"[-0.2, -0.1]",None,0,30,30,30,,,,,,,,,1404.0427782000042,,,,,,,,,,,,,,,,,,,,,,,,,,,,1404.0267392999958,1404.0427782000042,1404.0427782000042,1404.542670099996,1404.542670099996,1407.042594300001,1407.042594300001,1407.026492200006,None,1,,,,,,,,,,,,,,,,,,,,,,,,,,,,,,,,,,,,,,,,,,,,,nback81,001,2024-02-02_14h04.10.928,untitled,2023.2.3,60.004884394615374,2024-02-02 14h17.30.733988 -0500,
12,"[0.64, -0.4]",None,0,31,31,31,,,,,,,,,1407.042594300001,,,,,,,,,,,,,,,,,,,,,,,,,,,,1407.0268401000067,1407.042594300001,1407.042594300001,1407.5426502000046,1407.5426502000046,1410.0425675000006,1410.0425675000006,1410.026375500005,None,1,,,,,,,,,,,,,,,,,,,,,,,,,,,,,,,,,,,,,,,,,,,,,nback81,001,2024-02-02_14h04.10.928,untitled,2023.2.3,60.004884394615374,2024-02-02 14h17.30.733988 -0500,
9,"[0.2, -0.1]",None,0,32,32,32,,,,,,,,,1410.0425675000006,,,,,,,,,,,,,,,,,,,,,,,,,,,,1410.0267234000057,1410.0425675000006,1410.0425675000006,1410.5426066999935,1410.5426066999935,1413.042551000006,1413.042551000006,1413.026297000004,None,1,,,,,,,,,,,,,,,,,,,,,,,,,,,,,,,,,,,,,,,,,,,,,nback81,001,2024-02-02_14h04.10.928,untitled,2023.2.3,60.004884394615374,2024-02-02 14h17.30.733988 -0500,
11,"[-0.64, -0.4]",space,0,33,33,33,,,,,,,,,1413.042551000006,,,,,,,,,,,,,,,,,,,,,,,,,,,,1413.0266283999954,1413.042551000006,1413.042551000006,1413.5424712999957,1413.5424712999957,1416.0424337000004,1416.0424337000004,1416.0261893999996,space,1,0.4202707999938866,None,,,,,,,,,,,,,,,,,,,,,,,,,,,,,,,,,,,,,,,,,,,nback81,001,2024-02-02_14h04.10.928,untitled,2023.2.3,60.004884394615374,2024-02-02 14h17.30.733988 -0500,
7,"[0.3, 0]",None,0,34,34,34,,,,,,,,,1416.0424337000004,,,,,,,,,,,,,,,,,,,,,,,,,,,,1416.0266483000014,1416.0424337000004,1416.0424337000004,1416.5425793000031,1416.5425793000031,1419.0425340999936,1419.0425340999936,1419.0262856000045,None,1,,,,,,,,,,,,,,,,,,,,,,,,,,,,,,,,,,,,,,,,,,,,,nback81,001,2024-02-02_14h04.10.928,untitled,2023.2.3,60.004884394615374,2024-02-02 14h17.30.733988 -0500,
11,"[-0.64, -0.4]",space,0,35,35,35,,,,,,,,,1419.0425340999936,,,,,,,,,,,,,,,,,,,,,,,,,,,,1419.0266396999941,1419.0425340999936,1419.0425340999936,1419.5425078999979,1419.5425078999979,1422.042361300002,1422.042361300002,1422.0264196000062,space,1,0.5076087000052212,None,,,,,,,,,,,,,,,,,,,,,,,,,,,,,,,,,,,,,,,,,,,nback81,001,2024-02-02_14h04.10.928,untitled,2023.2.3,60.004884394615374,2024-02-02 14h17.30.733988 -0500,
4,"[-0.2, 0.1]",None,0,36,36,36,,,,,,,,,1422.042361300002,,,,,,,,,,,,,,,,,,,,,,,,,,,,1422.0268332999985,1422.042361300002,1422.042361300002,1422.5424695999973,1422.5424695999973,1425.0422554999968,1425.0422554999968,1425.026070699998,None,1,,,,,,,,,,,,,,,,,,,,,,,,,,,,,,,,,,,,,,,,,,,,,nback81,001,2024-02-02_14h04.10.928,untitled,2023.2.3,60.004884394615374,2024-02-02 14h17.30.733988 -0500,
5,"[0.2, 0.1]",None,0,37,37,37,,,,,,,,,1425.0422554999968,,,,,,,,,,,,,,,,,,,,,,,,,,,,1425.0263957999996,1425.0422554999968,1425.0422554999968,1425.5424054000032,1425.5424054000032,1428.0422895999945,1428.0422895999945,1428.026121300005,None,1,,,,,,,,,,,,,,,,,,,,,,,,,,,,,,,,,,,,,,,,,,,,,nback81,001,2024-02-02_14h04.10.928,untitled,2023.2.3,60.004884394615374,2024-02-02 14h17.30.733988 -0500,
6,"[-0.3, 0]",None,0,38,38,38,,,,,,,,,1428.0422895999945,,,,,,,,,,,,,,,,,,,,,,,,,,,,1428.0264740999992,1428.0422895999945,1428.0422895999945,1428.5423717999947,1428.5423717999947,1431.0421845999954,1431.0421845999954,1431.0260782999976,None,1,,,,,,,,,,,,,,,,,,,,,,,,,,,,,,,,,,,,,,,,,,,,,nback81,001,2024-02-02_14h04.10.928,untitled,2023.2.3,60.004884394615374,2024-02-02 14h17.30.733988 -0500,
11,"[-0.64, -0.4]",space,0,39,39,39,,,,,,,,,1431.0421845999954,,,,,,,,,,,,,,,,,,,,,,,,,,,,1431.0263984000048,1431.0421845999954,1431.0421845999954,1431.5422505000024,1431.5422505000024,1434.0422973999957,1434.0422973999957,1434.0262327999953,space,1,0.5413341999956174,None,,,,,,,,,,,,,,,,,,,,,,,,,,,,,,,,,,,,,,,,,,,nback81,001,2024-02-02_14h04.10.928,untitled,2023.2.3,60.004884394615374,2024-02-02 14h17.30.733988 -0500,
,,,,,,,,,,,,,,,,,,,,,,,,,,,,,,,,,,,,,,,,,,,,,,,,,,,,,,,1434.0265798000037,1434.0422973999957,1434.0422973999957,1449.8429730000062,space,15.792035199992824,None,,,,,,,,,,,,,,,,,,,,,,,,,,,,,,,,,,,,nback81,001,2024-02-02_14h04.10.928,untitled,2023.2.3,60.004884394615374,2024-02-02 14h17.30.733988 -0500,
10,"[0, -0.2]",None,,,,,0,0,0,0,,,,,1450.8584902000002,,,,,,,,,,,,,,,,,,,,,,,,1449.8429934000014,1449.858699599994,1450.8584902000002,1450.8426024999935,,,,,,,,,,,,,,,,,,,,1450.8506751999957,1450.8584902000002,1450.8584902000002,1451.3585409999941,1451.3585409999941,1453.858371800001,1453.858371800001,1453.8422873999953,None,1,,,,,,,,,,,,,,,,,,,,,,,,,,nback81,001,2024-02-02_14h04.10.928,untitled,2023.2.3,60.004884394615374,2024-02-02 14h17.30.733988 -0500,
5,"[0.2, 0.1]",None,,,,,0,1,1,1,,,,,1453.858371800001,,,,,,,,,,,,,,,,,,,,,,,,,,,,,,,,,,,,,,,,,,,,,,,1453.8428445000027,1453.858371800001,1453.858371800001,1454.358659999998,1454.358659999998,1456.8584506000043,1456.8584506000043,1456.842431099998,None,1,,,,,,,,,,,,,,,,,,,,,,,,,,nback81,001,2024-02-02_14h04.10.928,untitled,2023.2.3,60.004884394615374,2024-02-02 14h17.30.733988 -0500,
6,"[-0.3, 0]",None,,,,,0,2,2,2,,,,,1456.8584506000043,,,,,,,,,,,,,,,,,,,,,,,,,,,,,,,,,,,,,,,,,,,,,,,1456.8427558999974,1456.8584506000043,1456.8584506000043,1457.3583739000023,1457.3583739000023,1459.8583171000064,1459.8583171000064,1459.8422194000013,None,1,,,,,,,,,,,,,,,,,,,,,,,,,,nback81,001,2024-02-02_14h04.10.928,untitled,2023.2.3,60.004884394615374,2024-02-02 14h17.30.733988 -0500,
6,"[-0.3, 0]",space,,,,,0,3,3,3,,,,,1459.8583171000064,,,,,,,,,,,,,,,,,,,,,,,,,,,,,,,,,,,,,,,,,,,,,,,1459.8425865000027,1459.8583171000064,1459.8583171000064,1460.3584239000047,1460.3584239000047,1462.8583910000016,1462.8583910000016,1462.8422924000042,space,1,0.6059174000110943,None,,,,,,,,,,,,,,,,,,,,,,,,nback81,001,2024-02-02_14h04.10.928,untitled,2023.2.3,60.004884394615374,2024-02-02 14h17.30.733988 -0500,
12,"[0.64, -0.4]",None,,,,,0,4,4,4,,,,,1462.8583910000016,,,,,,,,,,,,,,,,,,,,,,,,,,,,,,,,,,,,,,,,,,,,,,,1462.8428172999993,1462.8583910000016,1462.8583910000016,1463.358428099993,1463.358428099993,1465.858203900003,1465.858203900003,1465.8422449999925,None,1,,,,,,,,,,,,,,,,,,,,,,,,,,nback81,001,2024-02-02_14h04.10.928,untitled,2023.2.3,60.004884394615374,2024-02-02 14h17.30.733988 -0500,
10,"[0, -0.2]",None,,,,,0,5,5,5,,,,,1465.858203900003,,,,,,,,,,,,,,,,,,,,,,,,,,,,,,,,,,,,,,,,,,,,,,,1465.8428641000064,1465.858203900003,1465.858203900003,1466.358141100005,1466.358141100005,1468.8582911999983,1468.8582911999983,1468.8421896999935,None,1,,,,,,,,,,,,,,,,,,,,,,,,,,nback81,001,2024-02-02_14h04.10.928,untitled,2023.2.3,60.004884394615374,2024-02-02 14h17.30.733988 -0500,
2,"[0.64, 0.4]",None,,,,,0,6,6,6,,,,,1468.8582911999983,,,,,,,,,,,,,,,,,,,,,,,,,,,,,,,,,,,,,,,,,,,,,,,1468.842562699996,1468.8582911999983,1468.8582911999983,1469.3581683999946,1469.3581683999946,1471.8581186999945,1471.8581186999945,1471.842075099994,None,1,,,,,,,,,,,,,,,,,,,,,,,,,,nback81,001,2024-02-02_14h04.10.928,untitled,2023.2.3,60.004884394615374,2024-02-02 14h17.30.733988 -0500,
9,"[0.2, -0.1]",None,,,,,0,7,7,7,,,,,1471.8581186999945,,,,,,,,,,,,,,,,,,,,,,,,,,,,,,,,,,,,,,,,,,,,,,,1471.8425999000028,1471.8581186999945,1471.8581186999945,1472.358215100001,1472.358215100001,1474.858064,1474.858064,1474.8420054000017,None,1,,,,,,,,,,,,,,,,,,,,,,,,,,nback81,001,2024-02-02_14h04.10.928,untitled,2023.2.3,60.004884394615374,2024-02-02 14h17.30.733988 -0500,
9,"[0.2, -0.1]",space,,,,,0,8,8,8,,,,,1474.858064,,,,,,,,,,,,,,,,,,,,,,,,,,,,,,,,,,,,,,,,,,,,,,,1474.8425678000058,1474.858064,1474.858064,1475.3581017999968,1475.3581017999968,1477.8580743000057,1477.8580743000057,1477.8418212999968,space,1,0.6101535999914631,None,,,,,,,,,,,,,,,,,,,,,,,,nback81,001,2024-02-02_14h04.10.928,untitled,2023.2.3,60.004884394615374,2024-02-02 14h17.30.733988 -0500,
6,"[-0.3, 0]",None,,,,,0,9,9,9,,,,,1477.8580743000057,,,,,,,,,,,,,,,,,,,,,,,,,,,,,,,,,,,,,,,,,,,,,,,1477.8422072999965,1477.8580743000057,1477.8580743000057,1478.3581115999987,1478.3581115999987,1480.8580455000047,1480.8580455000047,1480.8420759,None,1,,,,,,,,,,,,,,,,,,,,,,,,,,nback81,001,2024-02-02_14h04.10.928,untitled,2023.2.3,60.004884394615374,2024-02-02 14h17.30.733988 -0500,
11,"[-0.64, -0.4]",None,,,,,0,10,10,10,,,,,1480.8580455000047,,,,,,,,,,,,,,,,,,,,,,,,,,,,,,,,,,,,,,,,,,,,,,,1480.8424079999968,1480.8580455000047,1480.8580455000047,1481.357944400006,1481.357944400006,1483.858074200005,1483.858074200005,1483.8418507000024,None,1,,,,,,,,,,,,,,,,,,,,,,,,,,nback81,001,2024-02-02_14h04.10.928,untitled,2023.2.3,60.004884394615374,2024-02-02 14h17.30.733988 -0500,
11,"[-0.64, -0.4]",space,,,,,0,11,11,11,,,,,1483.858074200005,,,,,,,,,,,,,,,,,,,,,,,,,,,,,,,,,,,,,,,,,,,,,,,1483.842200900006,1483.858074200005,1483.858074200005,1484.3579972000007,1484.3579972000007,1486.8579301999998,1486.8579301999998,1486.8417641999986,space,1,0.4288406000123359,None,,,,,,,,,,,,,,,,,,,,,,,,nback81,001,2024-02-02_14h04.10.928,untitled,2023.2.3,60.004884394615374,2024-02-02 14h17.30.733988 -0500,
4,"[-0.2, 0.1]",None,,,,,0,12,12,12,,,,,1486.8579301999998,,,,,,,,,,,,,,,,,,,,,,,,,,,,,,,,,,,,,,,,,,,,,,,1486.8421780000062,1486.8579301999998,1486.8579301999998,1487.3580148000037,1487.3580148000037,1489.857918900001,1489.857918900001,1489.8416441000008,None,1,,,,,,,,,,,,,,,,,,,,,,,,,,nback81,001,2024-02-02_14h04.10.928,untitled,2023.2.3,60.004884394615374,2024-02-02 14h17.30.733988 -0500,
3,"[0, 0.2]",None,,,,,0,13,13,13,,,,,1489.857918900001,,,,,,,,,,,,,,,,,,,,,,,,,,,,,,,,,,,,,,,,,,,,,,,1489.8419686999987,1489.857918900001,1489.857918900001,1490.357927799996,1490.357927799996,1492.8576379000006,1492.8576379000006,1492.8415986000036,None,1,,,,,,,,,,,,,,,,,,,,,,,,,,nback81,001,2024-02-02_14h04.10.928,untitled,2023.2.3,60.004884394615374,2024-02-02 14h17.30.733988 -0500,
3,"[0, 0.2]",space,,,,,0,14,14,14,,,,,1492.8576379000006,,,,,,,,,,,,,,,,,,,,,,,,,,,,,,,,,,,,,,,,,,,,,,,1492.841905399997,1492.8576379000006,1492.8576379000006,1493.3578202000062,1493.3578202000062,1495.8576522999938,1495.8576522999938,1495.8416089999955,space,1,0.5378570000029868,None,,,,,,,,,,,,,,,,,,,,,,,,nback81,001,2024-02-02_14h04.10.928,untitled,2023.2.3,60.004884394615374,2024-02-02 14h17.30.733988 -0500,
8,"[-0.2, -0.1]",None,,,,,0,15,15,15,,,,,1495.8576522999938,,,,,,,,,,,,,,,,,,,,,,,,,,,,,,,,,,,,,,,,,,,,,,,1495.842013100002,1495.8576522999938,1495.8576522999938,1496.357703600006,1496.357703600006,1498.8576452999987,1498.8576452999987,1498.8415086000023,None,1,,,,,,,,,,,,,,,,,,,,,,,,,,nback81,001,2024-02-02_14h04.10.928,untitled,2023.2.3,60.004884394615374,2024-02-02 14h17.30.733988 -0500,
1,"[-0.64, 0.4]",None,,,,,0,16,16,16,,,,,1498.8576452999987,,,,,,,,,,,,,,,,,,,,,,,,,,,,,,,,,,,,,,,,,,,,,,,1498.8418472000048,1498.8576452999987,1498.8576452999987,1499.3576862000045,1499.3576862000045,1501.8576998000062,1501.8576998000062,1501.8415379999933,None,1,,,,,,,,,,,,,,,,,,,,,,,,,,nback81,001,2024-02-02_14h04.10.928,untitled,2023.2.3,60.004884394615374,2024-02-02 14h17.30.733988 -0500,
2,"[0.64, 0.4]",None,,,,,0,17,17,17,,,,,1501.8576998000062,,,,,,,,,,,,,,,,,,,,,,,,,,,,,,,,,,,,,,,,,,,,,,,1501.8418474000064,1501.8576998000062,1501.8576998000062,1502.357763699998,1502.357763699998,1504.8575458999985,1504.8575458999985,1504.8413041000022,None,1,,,,,,,,,,,,,,,,,,,,,,,,,,nback81,001,2024-02-02_14h04.10.928,untitled,2023.2.3,60.004884394615374,2024-02-02 14h17.30.733988 -0500,
4,"[-0.2, 0.1]",None,,,,,0,18,18,18,,,,,1504.8575458999985,,,,,,,,,,,,,,,,,,,,,,,,,,,,,,,,,,,,,,,,,,,,,,,1504.8417585999996,1504.8575458999985,1504.8575458999985,1505.357486199995,1505.357486199995,1507.8575102000032,1507.8575102000032,1507.8416223999957,None,1,,,,,,,,,,,,,,,,,,,,,,,,,,nback81,001,2024-02-02_14h04.10.928,untitled,2023.2.3,60.004884394615374,2024-02-02 14h17.30.733988 -0500,
4,"[-0.2, 0.1]",space,,,,,0,19,19,19,,,,,1507.8575102000032,,,,,,,,,,,,,,,,,,,,,,,,,,,,,,,,,,,,,,,,,,,,,,,1507.8419439999998,1507.8575102000032,1507.8575102000032,1508.3575706999982,1508.3575706999982,1510.8576083999942,1510.8576083999942,1510.8415033000056,space,1,0.4532872999989195,None,,,,,,,,,,,,,,,,,,,,,,,,nback81,001,2024-02-02_14h04.10.928,untitled,2023.2.3,60.004884394615374,2024-02-02 14h17.30.733988 -0500,
8,"[-0.2, -0.1]",None,,,,,0,20,20,20,,,,,1510.8576083999942,,,,,,,,,,,,,,,,,,,,,,,,,,,,,,,,,,,,,,,,,,,,,,,1510.842253499999,1510.8576083999942,1510.8576083999942,1511.3575595000002,1511.3575595000002,1513.8574683000043,1513.8574683000043,1513.8413865000039,None,1,,,,,,,,,,,,,,,,,,,,,,,,,,nback81,001,2024-02-02_14h04.10.928,untitled,2023.2.3,60.004884394615374,2024-02-02 14h17.30.733988 -0500,
5,"[0.2, 0.1]",None,,,,,0,21,21,21,,,,,1513.8574683000043,,,,,,,,,,,,,,,,,,,,,,,,,,,,,,,,,,,,,,,,,,,,,,,1513.8417539999937,1513.8574683000043,1513.8574683000043,1514.357575300004,1514.357575300004,1516.857377799999,1516.857377799999,1516.8413865000039,None,1,,,,,,,,,,,,,,,,,,,,,,,,,,nback81,001,2024-02-02_14h04.10.928,untitled,2023.2.3,60.004884394615374,2024-02-02 14h17.30.733988 -0500,
5,"[0.2, 0.1]",space,,,,,0,22,22,22,,,,,1516.857377799999,,,,,,,,,,,,,,,,,,,,,,,,,,,,,,,,,,,,,,,,,,,,,,,1516.8417040000058,1516.857377799999,1516.857377799999,1517.3575122000038,1517.3575122000038,1519.8574334000004,1519.8574334000004,1519.8412396000058,space,1,0.5284664000064367,None,,,,,,,,,,,,,,,,,,,,,,,,nback81,001,2024-02-02_14h04.10.928,untitled,2023.2.3,60.004884394615374,2024-02-02 14h17.30.733988 -0500,
1,"[-0.64, 0.4]",None,,,,,0,23,23,23,,,,,1519.8574334000004,,,,,,,,,,,,,,,,,,,,,,,,,,,,,,,,,,,,,,,,,,,,,,,1519.8416666999983,1519.8574334000004,1519.8574334000004,1520.3573096000036,1520.3573096000036,1522.8573384000047,1522.8573384000047,1522.8409498999972,None,1,,,,,,,,,,,,,,,,,,,,,,,,,,nback81,001,2024-02-02_14h04.10.928,untitled,2023.2.3,60.004884394615374,2024-02-02 14h17.30.733988 -0500,
3,"[0, 0.2]",None,,,,,0,24,24,24,,,,,1522.8573384000047,,,,,,,,,,,,,,,,,,,,,,,,,,,,,,,,,,,,,,,,,,,,,,,1522.8412965000025,1522.8573384000047,1522.8573384000047,1523.3573031999986,1523.3573031999986,1525.8571762999927,1525.8571762999927,1525.8410216000048,None,1,,,,,,,,,,,,,,,,,,,,,,,,,,nback81,001,2024-02-02_14h04.10.928,untitled,2023.2.3,60.004884394615374,2024-02-02 14h17.30.733988 -0500,
6,"[-0.3, 0]",None,,,,,0,25,25,25,,,,,1525.8571762999927,,,,,,,,,,,,,,,,,,,,,,,,,,,,,,,,,,,,,,,,,,,,,,,1525.841350600007,1525.8571762999927,1525.8571762999927,1526.3574259000015,1526.3574259000015,1528.857078800007,1528.857078800007,1528.840985799994,None,1,,,,,,,,,,,,,,,,,,,,,,,,,,nback81,001,2024-02-02_14h04.10.928,untitled,2023.2.3,60.004884394615374,2024-02-02 14h17.30.733988 -0500,
1,"[-0.64, 0.4]",None,,,,,0,26,26,26,,,,,1528.857078800007,,,,,,,,,,,,,,,,,,,,,,,,,,,,,,,,,,,,,,,,,,,,,,,1528.8413854999962,1528.857078800007,1528.857078800007,1529.3571437000064,1529.3571437000064,1531.857130000004,1531.857130000004,1531.8409907000023,None,1,,,,,,,,,,,,,,,,,,,,,,,,,,nback81,001,2024-02-02_14h04.10.928,untitled,2023.2.3,60.004884394615374,2024-02-02 14h17.30.733988 -0500,
1,"[-0.64, 0.4]",space,,,,,0,27,27,27,,,,,1531.857130000004,,,,,,,,,,,,,,,,,,,,,,,,,,,,,,,,,,,,,,,,,,,,,,,1531.8413531999977,1531.857130000004,1531.857130000004,1532.3570327000052,1532.3570327000052,1534.857124400005,1534.857124400005,1534.8411291999946,space,1,0.43634230000316165,None,,,,,,,,,,,,,,,,,,,,,,,,nback81,001,2024-02-02_14h04.10.928,untitled,2023.2.3,60.004884394615374,2024-02-02 14h17.30.733988 -0500,
1,"[-0.64, 0.4]",space,,,,,0,28,28,28,,,,,1534.857124400005,,,,,,,,,,,,,,,,,,,,,,,,,,,,,,,,,,,,,,,,,,,,,,,1534.8415565000032,1534.857124400005,1534.857124400005,1535.3570203999989,1535.3570203999989,1537.8570284000016,1537.8570284000016,1537.8409133999958,space,1,0.9015151000057813,None,,,,,,,,,,,,,,,,,,,,,,,,nback81,001,2024-02-02_14h04.10.928,untitled,2023.2.3,60.004884394615374,2024-02-02 14h17.30.733988 -0500,
3,"[0, 0.2]",None,,,,,0,29,29,29,,,,,1537.8570284000016,,,,,,,,,,,,,,,,,,,,,,,,,,,,,,,,,,,,,,,,,,,,,,,1537.841308899995,1537.8570284000016,1537.8570284000016,1538.3570285000023,1538.3570285000023,1540.8569258000061,1540.8569258000061,1540.8409459999966,None,1,,,,,,,,,,,,,,,,,,,,,,,,,,nback81,001,2024-02-02_14h04.10.928,untitled,2023.2.3,60.004884394615374,2024-02-02 14h17.30.733988 -0500,
12,"[0.64, -0.4]",None,,,,,0,30,30,30,,,,,1540.8569258000061,,,,,,,,,,,,,,,,,,,,,,,,,,,,,,,,,,,,,,,,,,,,,,,1540.841307099996,1540.8569258000061,1540.8569258000061,1541.3568814000027,1541.3568814000027,1543.8570187000005,1543.8570187000005,1543.8408720000007,None,1,,,,,,,,,,,,,,,,,,,,,,,,,,nback81,001,2024-02-02_14h04.10.928,untitled,2023.2.3,60.004884394615374,2024-02-02 14h17.30.733988 -0500,
12,"[0.64, -0.4]",space,,,,,0,31,31,31,,,,,1543.8570187000005,,,,,,,,,,,,,,,,,,,,,,,,,,,,,,,,,,,,,,,,,,,,,,,1543.8412587000057,1543.8570187000005,1543.8570187000005,1544.3569807000022,1544.3569807000022,1546.8568792000005,1546.8568792000005,1546.840658999994,space,1,0.7543546999950195,None,,,,,,,,,,,,,,,,,,,,,,,,nback81,001,2024-02-02_14h04.10.928,untitled,2023.2.3,60.004884394615374,2024-02-02 14h17.30.733988 -0500,
2,"[0.64, 0.4]",None,,,,,0,32,32,32,,,,,1546.8568792000005,,,,,,,,,,,,,,,,,,,,,,,,,,,,,,,,,,,,,,,,,,,,,,,1546.841066699999,1546.8568792000005,1546.8568792000005,1547.3569197000033,1547.3569197000033,1549.8570227000018,1549.8570227000018,1549.8407289000024,None,1,,,,,,,,,,,,,,,,,,,,,,,,,,nback81,001,2024-02-02_14h04.10.928,untitled,2023.2.3,60.004884394615374,2024-02-02 14h17.30.733988 -0500,
1,"[-0.64, 0.4]",None,,,,,0,33,33,33,,,,,1549.8570227000018,,,,,,,,,,,,,,,,,,,,,,,,,,,,,,,,,,,,,,,,,,,,,,,1549.8410486999928,1549.8570227000018,1549.8570227000018,1550.356751600004,1550.356751600004,1552.8568815000035,1552.8568815000035,1552.840700300003,None,1,,,,,,,,,,,,,,,,,,,,,,,,,,nback81,001,2024-02-02_14h04.10.928,untitled,2023.2.3,60.004884394615374,2024-02-02 14h17.30.733988 -0500,
7,"[0.3, 0]",None,,,,,0,34,34,34,,,,,1552.8568815000035,,,,,,,,,,,,,,,,,,,,,,,,,,,,,,,,,,,,,,,,,,,,,,,1552.8412365999975,1552.8568815000035,1552.8568815000035,1553.3566979000025,1553.3566979000025,1555.8567203999992,1555.8567203999992,1555.840595600006,None,1,,,,,,,,,,,,,,,,,,,,,,,,,,nback81,001,2024-02-02_14h04.10.928,untitled,2023.2.3,60.004884394615374,2024-02-02 14h17.30.733988 -0500,
7,"[0.3, 0]",space,,,,,0,35,35,35,,,,,1555.8567203999992,,,,,,,,,,,,,,,,,,,,,,,,,,,,,,,,,,,,,,,,,,,,,,,1555.8409869000025,1555.8567203999992,1555.8567203999992,1556.356666000007,1556.356666000007,1558.856736200003,1558.856736200003,1558.8407955000002,space,1,0.7779195000039181,None,,,,,,,,,,,,,,,,,,,,,,,,nback81,001,2024-02-02_14h04.10.928,untitled,2023.2.3,60.004884394615374,2024-02-02 14h17.30.733988 -0500,
11,"[-0.64, -0.4]",None,,,,,0,36,36,36,,,,,1558.856736200003,,,,,,,,,,,,,,,,,,,,,,,,,,,,,,,,,,,,,,,,,,,,,,,1558.8412506000022,1558.856736200003,1558.856736200003,1559.3568945000006,1559.3568945000006,1561.8567719999992,1561.8567719999992,1561.8407275999925,None,1,,,,,,,,,,,,,,,,,,,,,,,,,,nback81,001,2024-02-02_14h04.10.928,untitled,2023.2.3,60.004884394615374,2024-02-02 14h17.30.733988 -0500,
2,"[0.64, 0.4]",None,,,,,0,37,37,37,,,,,1561.8567719999992,,,,,,,,,,,,,,,,,,,,,,,,,,,,,,,,,,,,,,,,,,,,,,,1561.8410868000065,1561.8567719999992,1561.8567719999992,1562.3565417999926,1562.3565417999926,1564.8568074000068,1564.8568074000068,1564.8406069000048,None,1,,,,,,,,,,,,,,,,,,,,,,,,,,nback81,001,2024-02-02_14h04.10.928,untitled,2023.2.3,60.004884394615374,2024-02-02 14h17.30.733988 -0500,
6,"[-0.3, 0]",None,,,,,0,38,38,38,,,,,1564.8568074000068,,,,,,,,,,,,,,,,,,,,,,,,,,,,,,,,,,,,,,,,,,,,,,,1564.8410988999967,1564.8568074000068,1564.8568074000068,1565.3566587999958,1565.3566587999958,1567.8565533999936,1567.8565533999936,1567.8403931999928,None,1,,,,,,,,,,,,,,,,,,,,,,,,,,nback81,001,2024-02-02_14h04.10.928,untitled,2023.2.3,60.004884394615374,2024-02-02 14h17.30.733988 -0500,
10,"[0, -0.2]",None,,,,,0,39,39,39,,,,,1567.8565533999936,,,,,,,,,,,,,,,,,,,,,,,,,,,,,,,,,,,,,,,,,,,,,,,1567.8409029000031,1567.8565533999936,1567.8565533999936,1568.3566587999958,1568.3566587999958,1570.8567412999982,1570.8567412999982,1570.8402371999982,None,1,,,,,,,,,,,,,,,,,,,,,,,,,,nback81,001,2024-02-02_14h04.10.928,untitled,2023.2.3,60.004884394615374,2024-02-02 14h17.30.733988 -0500,
,,,,,,,,,,,,,,,,,,,,,,,,,,,,,,,,,,,,,,,,,,,,,,,,,,,,,,,,,,,,,,,,,,,,,,,,,,1570.8404838999995,1570.8567412999982,1570.8567412999982,1580.6408170000068,space,9.775971800001571,None,,,,,,,,,,,,,,,,,nback81,001,2024-02-02_14h04.10.928,untitled,2023.2.3,60.004884394615374,2024-02-02 14h17.30.733988 -0500,
,"[0.2, 0.1]",None,,,,,,,,,0,0,0,0,1581.6564911000023,,,,,,,,,,,,,,,,,,,,,,,,1580.640847600007,1580.656321500006,1581.6564911000023,1581.6405028000008,,,,,,,,,,,,,,,,,,,,,,,,,,,,,,,,,,,,,,,1581.6468194000045,1581.6564911000023,1581.6564911000023,1582.1566280999978,1582.1566280999978,1584.6565089000069,1584.6565089000069,1584.6401621999976,None,1,,,,,,,nback81,001,2024-02-02_14h04.10.928,untitled,2023.2.3,60.004884394615374,2024-02-02 14h17.30.733988 -0500,
,"[0.64, 0.4]",None,,,,,,,,,0,1,1,1,1584.6565089000069,,,,,,,,,,,,,,,,,,,,,,,,,,,,,,,,,,,,,,,,,,,,,,,,,,,,,,,,,,,,,,,,,,1584.6405499999964,1584.6565089000069,1584.6565089000069,1585.156301199997,1585.156301199997,1587.656199399993,1587.656199399993,1587.6402780000062,None,1,,,,,,,nback81,001,2024-02-02_14h04.10.928,untitled,2023.2.3,60.004884394615374,2024-02-02 14h17.30.733988 -0500,
,"[-0.3, 0]",None,,,,,,,,,0,2,2,2,1587.656199399993,,,,,,,,,,,,,,,,,,,,,,,,,,,,,,,,,,,,,,,,,,,,,,,,,,,,,,,,,,,,,,,,,,1587.6406256000046,1587.656199399993,1587.656199399993,1588.1561359000043,1588.1561359000043,1590.6561628000054,1590.6561628000054,1590.640081000005,None,1,,,,,,,nback81,001,2024-02-02_14h04.10.928,untitled,2023.2.3,60.004884394615374,2024-02-02 14h17.30.733988 -0500,
,"[0.2, -0.1]",None,,,,,,,,,0,3,3,3,1590.6561628000054,,,,,,,,,,,,,,,,,,,,,,,,,,,,,,,,,,,,,,,,,,,,,,,,,,,,,,,,,,,,,,,,,,1590.6403982000047,1590.6561628000054,1590.6561628000054,1591.1561954000063,1591.1561954000063,1593.6561419000063,1593.6561419000063,1593.640173199994,None,1,,,,,,,nback81,001,2024-02-02_14h04.10.928,untitled,2023.2.3,60.004884394615374,2024-02-02 14h17.30.733988 -0500,
,"[0, 0.2]",None,,,,,,,,,0,4,4,4,1593.6561419000063,,,,,,,,,,,,,,,,,,,,,,,,,,,,,,,,,,,,,,,,,,,,,,,,,,,,,,,,,,,,,,,,,,1593.640538000007,1593.6561419000063,1593.6561419000063,1594.156270099993,1594.156270099993,1596.6561002999952,1596.6561002999952,1596.6400418999983,None,1,,,,,,,nback81,001,2024-02-02_14h04.10.928,untitled,2023.2.3,60.004884394615374,2024-02-02 14h17.30.733988 -0500,
,"[0.2, -0.1]",space,,,,,,,,,0,5,5,5,1596.6561002999952,,,,,,,,,,,,,,,,,,,,,,,,,,,,,,,,,,,,,,,,,,,,,,,,,,,,,,,,,,,,,,,,,,1596.6404267000034,1596.6561002999952,1596.6561002999952,1597.156061200003,1597.156061200003,1599.656051500002,1599.656051500002,1599.6401025999949,space,1,0.8940956000005826,None,,,,,nback81,001,2024-02-02_14h04.10.928,untitled,2023.2.3,60.004884394615374,2024-02-02 14h17.30.733988 -0500,
,"[0, -0.2]",None,,,,,,,,,0,6,6,6,1599.656051500002,,,,,,,,,,,,,,,,,,,,,,,,,,,,,,,,,,,,,,,,,,,,,,,,,,,,,,,,,,,,,,,,,,1599.640776900007,1599.656051500002,1599.656051500002,1600.1560246000008,1600.1560246000008,1602.6559345999995,1602.6559345999995,1602.6400176000025,None,1,,,,,,,nback81,001,2024-02-02_14h04.10.928,untitled,2023.2.3,60.004884394615374,2024-02-02 14h17.30.733988 -0500,
,"[0.64, -0.4]",None,,,,,,,,,0,7,7,7,1602.6559345999995,,,,,,,,,,,,,,,,,,,,,,,,,,,,,,,,,,,,,,,,,,,,,,,,,,,,,,,,,,,,,,,,,,1602.6403243999957,1602.6559345999995,1602.6559345999995,1603.1562378999952,1603.1562378999952,1605.6559941000014,1605.6559941000014,1605.6397271000023,None,1,,,,,,,nback81,001,2024-02-02_14h04.10.928,untitled,2023.2.3,60.004884394615374,2024-02-02 14h17.30.733988 -0500,
,"[0.3, 0]",None,,,,,,,,,0,8,8,8,1605.6559941000014,,,,,,,,,,,,,,,,,,,,,,,,,,,,,,,,,,,,,,,,,,,,,,,,,,,,,,,,,,,,,,,,,,1605.6400706999993,1605.6559941000014,1605.6559941000014,1606.1560295999952,1606.1560295999952,1608.6558847999986,1608.6558847999986,1608.6397148999968,None,1,,,,,,,nback81,001,2024-02-02_14h04.10.928,untitled,2023.2.3,60.004884394615374,2024-02-02 14h17.30.733988 -0500,
,"[0.64, -0.4]",space,,,,,,,,,0,9,9,9,1608.6558847999986,,,,,,,,,,,,,,,,,,,,,,,,,,,,,,,,,,,,,,,,,,,,,,,,,,,,,,,,,,,,,,,,,,1608.6400981000043,1608.6558847999986,1608.6558847999986,1609.1558779000043,1609.1558779000043,1611.6558102999988,1611.6558102999988,1611.639860700001,space,1,0.4977632999944035,None,,,,,nback81,001,2024-02-02_14h04.10.928,untitled,2023.2.3,60.004884394615374,2024-02-02 14h17.30.733988 -0500,
,"[-0.64, 0.4]",None,,,,,,,,,0,10,10,10,1611.6558102999988,,,,,,,,,,,,,,,,,,,,,,,,,,,,,,,,,,,,,,,,,,,,,,,,,,,,,,,,,,,,,,,,,,1611.6405481999973,1611.6558102999988,1611.6558102999988,1612.1557874999999,1612.1557874999999,1614.655858099999,1614.655858099999,1614.6396684000065,None,1,,,,,,,nback81,001,2024-02-02_14h04.10.928,untitled,2023.2.3,60.004884394615374,2024-02-02 14h17.30.733988 -0500,
,"[0.2, 0.1]",None,,,,,,,,,0,11,11,11,1614.655858099999,,,,,,,,,,,,,,,,,,,,,,,,,,,,,,,,,,,,,,,,,,,,,,,,,,,,,,,,,,,,,,,,,,1614.6400188999978,1614.655858099999,1614.655858099999,1615.1556941000017,1615.1556941000017,1617.6557064999943,1617.6557064999943,1617.6397045000049,None,1,,,,,,,nback81,001,2024-02-02_14h04.10.928,untitled,2023.2.3,60.004884394615374,2024-02-02 14h17.30.733988 -0500,
,"[0.3, 0]",None,,,,,,,,,0,12,12,12,1617.6557064999943,,,,,,,,,,,,,,,,,,,,,,,,,,,,,,,,,,,,,,,,,,,,,,,,,,,,,,,,,,,,,,,,,,1617.6402979999984,1617.6557064999943,1617.6557064999943,1618.1557563999959,1618.1557563999959,1620.6557336999977,1620.6557336999977,1620.6396875000064,None,1,,,,,,,nback81,001,2024-02-02_14h04.10.928,untitled,2023.2.3,60.004884394615374,2024-02-02 14h17.30.733988 -0500,
,"[0.2, 0.1]",space,,,,,,,,,0,13,13,13,1620.6557336999977,,,,,,,,,,,,,,,,,,,,,,,,,,,,,,,,,,,,,,,,,,,,,,,,,,,,,,,,,,,,,,,,,,1620.6402053000056,1620.6557336999977,1620.6557336999977,1621.1556298000069,1621.1556298000069,1623.6556775000063,1623.6556775000063,1623.6395763000037,space,1,0.9028942000004463,None,,,,,nback81,001,2024-02-02_14h04.10.928,untitled,2023.2.3,60.004884394615374,2024-02-02 14h17.30.733988 -0500,
,"[-0.3, 0]",None,,,,,,,,,0,14,14,14,1623.6556775000063,,,,,,,,,,,,,,,,,,,,,,,,,,,,,,,,,,,,,,,,,,,,,,,,,,,,,,,,,,,,,,,,,,1623.6399513999932,1623.6556775000063,1623.6556775000063,1624.1555997999967,1624.1555997999967,1626.6555942999985,1626.6555942999985,1626.6396782999946,None,1,,,,,,,nback81,001,2024-02-02_14h04.10.928,untitled,2023.2.3,60.004884394615374,2024-02-02 14h17.30.733988 -0500,
,"[0, 0.2]",None,,,,,,,,,0,15,15,15,1626.6555942999985,,,,,,,,,,,,,,,,,,,,,,,,,,,,,,,,,,,,,,,,,,,,,,,,,,,,,,,,,,,,,,,,,,1626.640026699999,1626.6555942999985,1626.6555942999985,1627.1554559999931,1627.1554559999931,1629.6555595999962,1629.6555595999962,1629.6392980999954,None,1,,,,,,,nback81,001,2024-02-02_14h04.10.928,untitled,2023.2.3,60.004884394615374,2024-02-02 14h17.30.733988 -0500,
,"[-0.3, 0]",space,,,,,,,,,0,16,16,16,1629.6555595999962,,,,,,,,,,,,,,,,,,,,,,,,,,,,,,,,,,,,,,,,,,,,,,,,,,,,,,,,,,,,,,,,,,1629.6396246999939,1629.6555595999962,1629.6555595999962,1630.1555157999974,1630.1555157999974,1632.6556012999936,1632.6556012999936,1632.6391762999992,space,1,0.9518506000022171,None,,,,,nback81,001,2024-02-02_14h04.10.928,untitled,2023.2.3,60.004884394615374,2024-02-02 14h17.30.733988 -0500,
,"[-0.64, -0.4]",None,,,,,,,,,0,17,17,17,1632.6556012999936,,,,,,,,,,,,,,,,,,,,,,,,,,,,,,,,,,,,,,,,,,,,,,,,,,,,,,,,,,,,,,,,,,1632.6395712999947,1632.6556012999936,1632.6556012999936,1633.1553191999992,1633.1553191999992,1635.6553409000044,1635.6553409000044,1635.6393529000052,None,1,,,,,,,nback81,001,2024-02-02_14h04.10.928,untitled,2023.2.3,60.004884394615374,2024-02-02 14h17.30.733988 -0500,
,"[-0.2, -0.1]",None,,,,,,,,,0,18,18,18,1635.6553409000044,,,,,,,,,,,,,,,,,,,,,,,,,,,,,,,,,,,,,,,,,,,,,,,,,,,,,,,,,,,,,,,,,,1635.6397141000052,1635.6553409000044,1635.6553409000044,1636.1555623000022,1636.1555623000022,1638.6553140000033,1638.6553140000033,1638.6393277000025,None,1,,,,,,,nback81,001,2024-02-02_14h04.10.928,untitled,2023.2.3,60.004884394615374,2024-02-02 14h17.30.733988 -0500,
,"[0.2, -0.1]",None,,,,,,,,,0,19,19,19,1638.6553140000033,,,,,,,,,,,,,,,,,,,,,,,,,,,,,,,,,,,,,,,,,,,,,,,,,,,,,,,,,,,,,,,,,,1638.6397498000006,1638.6553140000033,1638.6553140000033,1639.1555798000045,1639.1555798000045,1641.6552418000065,1641.6552418000065,1641.639146600006,None,1,,,,,,,nback81,001,2024-02-02_14h04.10.928,untitled,2023.2.3,60.004884394615374,2024-02-02 14h17.30.733988 -0500,
,"[0.2, -0.1]",None,,,,,,,,,0,20,20,20,1641.6552418000065,,,,,,,,,,,,,,,,,,,,,,,,,,,,,,,,,,,,,,,,,,,,,,,,,,,,,,,,,,,,,,,,,,1641.6394561000052,1641.6552418000065,1641.6552418000065,1642.1553303999972,1642.1553303999972,1644.6553125000064,1644.6553125000064,1644.639148400005,None,1,,,,,,,nback81,001,2024-02-02_14h04.10.928,untitled,2023.2.3,60.004884394615374,2024-02-02 14h17.30.733988 -0500,
,"[-0.64, 0.4]",None,,,,,,,,,0,21,21,21,1644.6553125000064,,,,,,,,,,,,,,,,,,,,,,,,,,,,,,,,,,,,,,,,,,,,,,,,,,,,,,,,,,,,,,,,,,1644.6394528999954,1644.6553125000064,1644.6553125000064,1645.1551535000035,1645.1551535000035,1647.6552326999954,1647.6552326999954,1647.6391862000019,None,1,,,,,,,nback81,001,2024-02-02_14h04.10.928,untitled,2023.2.3,60.004884394615374,2024-02-02 14h17.30.733988 -0500,
,"[0, 0.2]",None,,,,,,,,,0,22,22,22,1647.6552326999954,,,,,,,,,,,,,,,,,,,,,,,,,,,,,,,,,,,,,,,,,,,,,,,,,,,,,,,,,,,,,,,,,,1647.6396030000033,1647.6552326999954,1647.6552326999954,1648.1552771999995,1648.1552771999995,1650.6552061999973,1650.6552061999973,1650.6392011999997,None,1,,,,,,,nback81,001,2024-02-02_14h04.10.928,untitled,2023.2.3,60.004884394615374,2024-02-02 14h17.30.733988 -0500,
,"[0.64, -0.4]",None,,,,,,,,,0,23,23,23,1650.6552061999973,,,,,,,,,,,,,,,,,,,,,,,,,,,,,,,,,,,,,,,,,,,,,,,,,,,,,,,,,,,,,,,,,,1650.6397459,1650.6552061999973,1650.6552061999973,1651.1552480999962,1651.1552480999962,1653.6550968999945,1653.6550968999945,1653.6389111000026,None,1,,,,,,,nback81,001,2024-02-02_14h04.10.928,untitled,2023.2.3,60.004884394615374,2024-02-02 14h17.30.733988 -0500,
,"[0, 0.2]",space,,,,,,,,,0,24,24,24,1653.6550968999945,,,,,,,,,,,,,,,,,,,,,,,,,,,,,,,,,,,,,,,,,,,,,,,,,,,,,,,,,,,,,,,,,,1653.6393045000004,1653.6550968999945,1653.6550968999945,1654.155021300001,1654.155021300001,1656.6550990999967,1656.6550990999967,1656.6389449999988,None,0,,,,,,,nback81,001,2024-02-02_14h04.10.928,untitled,2023.2.3,60.004884394615374,2024-02-02 14h17.30.733988 -0500,
,"[-0.2, 0.1]",None,,,,,,,,,0,25,25,25,1656.6550990999967,,,,,,,,,,,,,,,,,,,,,,,,,,,,,,,,,,,,,,,,,,,,,,,,,,,,,,,,,,,,,,,,,,1656.6393289999978,1656.6550990999967,1656.6550990999967,1657.1550532999972,1657.1550532999972,1659.6552380999929,1659.6552380999929,1659.6388550999982,None,1,,,,,,,nback81,001,2024-02-02_14h04.10.928,untitled,2023.2.3,60.004884394615374,2024-02-02 14h17.30.733988 -0500,
,"[0.3, 0]",None,,,,,,,,,0,26,26,26,1659.6552380999929,,,,,,,,,,,,,,,,,,,,,,,,,,,,,,,,,,,,,,,,,,,,,,,,,,,,,,,,,,,,,,,,,,1659.639187599998,1659.6552380999929,1659.6552380999929,1660.1550773000054,1660.1550773000054,1662.6549247999938,1662.6549247999938,1662.6389409999974,None,1,,,,,,,nback81,001,2024-02-02_14h04.10.928,untitled,2023.2.3,60.004884394615374,2024-02-02 14h17.30.733988 -0500,
,"[-0.2, 0.1]",space,,,,,,,,,0,27,27,27,1662.6549247999938,,,,,,,,,,,,,,,,,,,,,,,,,,,,,,,,,,,,,,,,,,,,,,,,,,,,,,,,,,,,,,,,,,1662.639292199994,1662.6549247999938,1662.6549247999938,1663.154857600006,1663.154857600006,1665.6548851999978,1665.6548851999978,1665.6391065000062,space,1,0.667385100008687,None,,,,,nback81,001,2024-02-02_14h04.10.928,untitled,2023.2.3,60.004884394615374,2024-02-02 14h17.30.733988 -0500,
,"[-0.2, 0.1]",None,,,,,,,,,0,28,28,28,1665.6548851999978,,,,,,,,,,,,,,,,,,,,,,,,,,,,,,,,,,,,,,,,,,,,,,,,,,,,,,,,,,,,,,,,,,1665.6394986999949,1665.6548851999978,1665.6548851999978,1666.154915799998,1666.154915799998,1668.6550386000017,1668.6550386000017,1668.6387214999995,None,1,,,,,,,nback81,001,2024-02-02_14h04.10.928,untitled,2023.2.3,60.004884394615374,2024-02-02 14h17.30.733988 -0500,
,"[0.2, 0.1]",None,,,,,,,,,0,29,29,29,1668.6550386000017,,,,,,,,,,,,,,,,,,,,,,,,,,,,,,,,,,,,,,,,,,,,,,,,,,,,,,,,,,,,,,,,,,1668.6390645999927,1668.6550386000017,1668.6550386000017,1669.1548189000023,1669.1548189000023,1671.6548567999998,1671.6548567999998,1671.6386345000064,None,1,,,,,,,nback81,001,2024-02-02_14h04.10.928,untitled,2023.2.3,60.004884394615374,2024-02-02 14h17.30.733988 -0500,
,"[-0.64, -0.4]",None,,,,,,,,,0,30,30,30,1671.6548567999998,,,,,,,,,,,,,,,,,,,,,,,,,,,,,,,,,,,,,,,,,,,,,,,,,,,,,,,,,,,,,,,,,,1671.638980799995,1671.6548567999998,1671.6548567999998,1672.1548772999959,1672.1548772999959,1674.6547715000052,1674.6547715000052,1674.6386080999946,None,1,,,,,,,nback81,001,2024-02-02_14h04.10.928,untitled,2023.2.3,60.004884394615374,2024-02-02 14h17.30.733988 -0500,
,"[0, -0.2]",None,,,,,,,,,0,31,31,31,1674.6547715000052,,,,,,,,,,,,,,,,,,,,,,,,,,,,,,,,,,,,,,,,,,,,,,,,,,,,,,,,,,,,,,,,,,1674.6390045000007,1674.6547715000052,1674.6547715000052,1675.154798100004,1675.154798100004,1677.654771100002,1677.654771100002,1677.6384667999955,None,1,,,,,,,nback81,001,2024-02-02_14h04.10.928,untitled,2023.2.3,60.004884394615374,2024-02-02 14h17.30.733988 -0500,
,"[-0.64, -0.4]",space,,,,,,,,,0,32,32,32,1677.654771100002,,,,,,,,,,,,,,,,,,,,,,,,,,,,,,,,,,,,,,,,,,,,,,,,,,,,,,,,,,,,,,,,,,1677.6388359999983,1677.654771100002,1677.654771100002,1678.1548047999968,1678.1548047999968,1680.6546297000023,1680.6546297000023,1680.638367499996,space,1,0.8359197999961907,None,,,,,nback81,001,2024-02-02_14h04.10.928,untitled,2023.2.3,60.004884394615374,2024-02-02 14h17.30.733988 -0500,
,"[0.64, 0.4]",None,,,,,,,,,0,33,33,33,1680.6546297000023,,,,,,,,,,,,,,,,,,,,,,,,,,,,,,,,,,,,,,,,,,,,,,,,,,,,,,,,,,,,,,,,,,1680.638783699993,1680.6546297000023,1680.6546297000023,1681.1546624000039,1681.1546624000039,1683.6546166000044,1683.6546166000044,1683.6386820000043,None,1,,,,,,,nback81,001,2024-02-02_14h04.10.928,untitled,2023.2.3,60.004884394615374,2024-02-02 14h17.30.733988 -0500,
,"[-0.3, 0]",None,,,,,,,,,0,34,34,34,1683.6546166000044,,,,,,,,,,,,,,,,,,,,,,,,,,,,,,,,,,,,,,,,,,,,,,,,,,,,,,,,,,,,,,,,,,1683.6392336999997,1683.6546166000044,1683.6546166000044,1684.1546647000068,1684.1546647000068,1686.654540500007,1686.654540500007,1686.6385110999981,None,1,,,,,,,nback81,001,2024-02-02_14h04.10.928,untitled,2023.2.3,60.004884394615374,2024-02-02 14h17.30.733988 -0500,
,"[0.3, 0]",None,,,,,,,,,0,35,35,35,1686.654540500007,,,,,,,,,,,,,,,,,,,,,,,,,,,,,,,,,,,,,,,,,,,,,,,,,,,,,,,,,,,,,,,,,,1686.6391464000044,1686.654540500007,1686.654540500007,1687.1544958000013,1687.1544958000013,1689.6544786000013,1689.6544786000013,1689.6384674,None,1,,,,,,,nback81,001,2024-02-02_14h04.10.928,untitled,2023.2.3,60.004884394615374,2024-02-02 14h17.30.733988 -0500,
,"[-0.3, 0]",space,,,,,,,,,0,36,36,36,1689.6544786000013,,,,,,,,,,,,,,,,,,,,,,,,,,,,,,,,,,,,,,,,,,,,,,,,,,,,,,,,,,,,,,,,,,1689.6388611000002,1689.6544786000013,1689.6544786000013,1690.1544645999966,1690.1544645999966,1692.6544701999956,1692.6544701999956,1692.638268900002,space,1,0.720226300007198,None,,,,,nback81,001,2024-02-02_14h04.10.928,untitled,2023.2.3,60.004884394615374,2024-02-02 14h17.30.733988 -0500,
,"[0, -0.2]",None,,,,,,,,,0,37,37,37,1692.6544701999956,,,,,,,,,,,,,,,,,,,,,,,,,,,,,,,,,,,,,,,,,,,,,,,,,,,,,,,,,,,,,,,,,,1692.638638599994,1692.6544701999956,1692.6544701999956,1693.1545198999956,1693.1545198999956,1695.6544682999956,1695.6544682999956,1695.6383645000024,None,1,,,,,,,nback81,001,2024-02-02_14h04.10.928,untitled,2023.2.3,60.004884394615374,2024-02-02 14h17.30.733988 -0500,
,"[0.3, 0]",None,,,,,,,,,0,38,38,38,1695.6544682999956,,,,,,,,,,,,,,,,,,,,,,,,,,,,,,,,,,,,,,,,,,,,,,,,,,,,,,,,,,,,,,,,,,1695.6388568999973,1695.6544682999956,1695.6544682999956,1696.1544352000055,1696.1544352000055,1698.6544304999989,1698.6544304999989,1698.6384281000064,space,0,1.567922300004284,None,,,,,nback81,001,2024-02-02_14h04.10.928,untitled,2023.2.3,60.004884394615374,2024-02-02 14h17.30.733988 -0500,
,"[0.2, 0.1]",None,,,,,,,,,0,39,39,39,1698.6544304999989,,,,,,,,,,,,,,,,,,,,,,,,,,,,,,,,,,,,,,,,,,,,,,,,,,,,,,,,,,,,,,,,,,1698.638822599998,1698.6544304999989,1698.6544304999989,1699.1543971999927,1699.1543971999927,1701.654547500002,1701.654547500002,1701.6381425,None,1,,,,,,,nback81,001,2024-02-02_14h04.10.928,untitled,2023.2.3,60.004884394615374,2024-02-02 14h17.30.733988 -0500,
,,,,,,,,,,,,,,,,,,,,,,,,,,,,,,,,,,,,,,,,,,,,,,,,,,,,,,,,,,,,,,,,,,,,,,,,,,,,,,,,,,,,,,,,,,,,,1701.638410200001,1701.654547500002,1704.654246399994,1704.638108900006,,,,,,,,
