square,location,corrAns,trials_0.thisRepN,trials_0.thisTrialN,trials_0.thisN,trials_0.thisIndex,trials_1.thisRepN,trials_1.thisTrialN,trials_1.thisN,trials_1.thisIndex,trials_2.thisRepN,trials_2.thisTrialN,trials_2.thisN,trials_2.thisIndex,thisRow.t,notes,Instructions.started,instructions.started,key_resp.started,inst_sq11.started,Instructions.stopped,key_resp.keys,key_resp.rt,key_resp.duration,All.started,sq_1.started,sq_2.started,sq_3.started,sq_4.started,sq_5.started,sq_6.started,sq_7.started,sq_8.started,sq_9.started,sq_10.started,sq_11.started,sq_12.started,All.stopped,Fixation.started,fixation_3.started,fixation_3.stopped,Fixation.stopped,N_back_0_Trial.started,target_square_0.started,response_0.started,fixation_0.started,target_square_0.stopped,fixation_0.stopped,response_0.stopped,N_back_0_Trial.stopped,response_0.keys,response_0.corr,response_0.rt,response_0.duration,Instructions_1.started,instructions_1.started,key_resp_1.started,Instructions_1.stopped,key_resp_1.keys,key_resp_1.rt,key_resp_1.duration,N_back_1_Trial.started,target_square_1.started,response_1.started,target_square_1.stopped,fixation_1.started,fixation_1.stopped,response_1.stopped,N_back_1_Trial.stopped,response_1.keys,response_1.corr,response_1.rt,response_1.duration,Instructions_2.started,instructions_2.started,key_resp_2.started,Instructions_2.stopped,key_resp_2.keys,key_resp_2.rt,key_resp_2.duration,N_back_2_trials.started,target_square_2.started,response_2.started,target_square_2.stopped,fixation_2.started,fixation_2.stopped,response_2.stopped,N_back_2_trials.stopped,response_2.keys,response_2.corr,response_2.rt,response_2.duration,End.started,thank_you.started,thank_you.stopped,End.stopped,participant,session,date,expName,psychopyVersion,frameRate,expStart,Unnamed: 104
,,,,,,,,,,,,,,,,,0.0015012000221759,0.0040734000504016,0.0040734000504016,0.0040734000504016,1603.2650481001474,space,1603.258473899914,None,,,,,,,,,,,,,,,,,,,,,,,,,,,,,,,,,,,,,,,,,,,,,,,,,,,,,,,,,,,,,,,,,,,,,,,,,nback77,1.0,2024-01-30_16h20.15.887,untitled,2023.2.3,60.29799270272488,2024-01-30 16h46.08.983844 -0500,
6.0,"[-0.3, 0]",None,0.0,0.0,0.0,0.0,,,,,,,,,1605.2799827000126,,,,,,,,,,1603.265100199962,1603.2800253999883,1603.2800253999883,1603.2800253999883,1603.2800253999883,1603.2800253999883,1603.2800253999883,1603.2800253999883,1603.2800253999883,1603.2800253999883,1603.2800253999883,1603.2800253999883,1603.2800253999883,1604.2637124001049,1604.2637273999862,1604.2800132001285,1605.2799827000126,1605.2635725999717,1605.2778425000142,1605.2799827000126,1605.2799827000126,1605.7634565001354,1605.7800533000843,1608.2634817000944,1608.280111900065,1608.2644704999402,None,1.0,,,,,,,,,,,,,,,,,,,,,,,,,,,,,,,,,,,,,,,,,,,,,nback77,1.0,2024-01-30_16h20.15.887,untitled,2023.2.3,60.29799270272488,2024-01-30 16h46.08.983844 -0500,
10.0,"[0, -0.2]",None,0.0,1.0,1.0,1.0,,,,,,,,,1608.280111900065,,,,,,,,,,,,,,,,,,,,,,,,,,,,1608.2655468999874,1608.280111900065,1608.280111900065,1608.763328199973,1608.7800179999322,1611.2631830999162,1611.2798657999374,1611.2637416000944,None,1.0,,,,,,,,,,,,,,,,,,,,,,,,,,,,,,,,,,,,,,,,,,,,,nback77,1.0,2024-01-30_16h20.15.887,untitled,2023.2.3,60.29799270272488,2024-01-30 16h46.08.983844 -0500,
11.0,"[-0.64, -0.4]",space,0.0,2.0,2.0,2.0,,,,,,,,,1611.2798657999374,,,,,,,,,,,,,,,,,,,,,,,,,,,,1611.2640832001343,1611.2798657999374,1611.2798657999374,1611.7632198999636,1611.7798308001366,1614.2632842999883,1614.2799850001466,1614.264230800094,space,1.0,0.3210263999644667,None,,,,,,,,,,,,,,,,,,,,,,,,,,,,,,,,,,,,,,,,,,,nback77,1.0,2024-01-30_16h20.15.887,untitled,2023.2.3,60.29799270272488,2024-01-30 16h46.08.983844 -0500,
12.0,"[0.64, -0.4]",None,0.0,3.0,3.0,3.0,,,,,,,,,1614.2799850001466,,,,,,,,,,,,,,,,,,,,,,,,,,,,1614.26537119993,1614.2799850001466,1614.2799850001466,1614.7633285999764,1614.7799605000764,1617.263134200126,1617.279844700126,1617.2638704001438,None,1.0,,,,,,,,,,,,,,,,,,,,,,,,,,,,,,,,,,,,,,,,,,,,,nback77,1.0,2024-01-30_16h20.15.887,untitled,2023.2.3,60.29799270272488,2024-01-30 16h46.08.983844 -0500,
1.0,"[-0.64, 0.4]",None,0.0,4.0,4.0,4.0,,,,,,,,,1617.279844700126,,,,,,,,,,,,,,,,,,,,,,,,,,,,1617.2644722000696,1617.279844700126,1617.279844700126,1617.7633202001452,1617.7799104000442,1620.2630748001393,1620.2798393999692,1620.2638699000236,None,1.0,,,,,,,,,,,,,,,,,,,,,,,,,,,,,,,,,,,,,,,,,,,,,nback77,1.0,2024-01-30_16h20.15.887,untitled,2023.2.3,60.29799270272488,2024-01-30 16h46.08.983844 -0500,
1.0,"[-0.64, 0.4]",None,0.0,5.0,5.0,5.0,,,,,,,,,1620.2798393999692,,,,,,,,,,,,,,,,,,,,,,,,,,,,1620.264543400146,1620.2798393999692,1620.2798393999692,1620.7631874000654,1620.7798633000348,1623.26325129997,1623.2797048999928,1623.264168499969,None,1.0,,,,,,,,,,,,,,,,,,,,,,,,,,,,,,,,,,,,,,,,,,,,,nback77,1.0,2024-01-30_16h20.15.887,untitled,2023.2.3,60.29799270272488,2024-01-30 16h46.08.983844 -0500,
4.0,"[-0.2, 0.1]",None,0.0,6.0,6.0,6.0,,,,,,,,,1623.2797048999928,,,,,,,,,,,,,,,,,,,,,,,,,,,,1623.2649234000128,1623.2797048999928,1623.2797048999928,1623.762976899976,1623.7797632999718,1626.2629985001404,1626.2798067999538,1626.2638584000524,None,1.0,,,,,,,,,,,,,,,,,,,,,,,,,,,,,,,,,,,,,,,,,,,,,nback77,1.0,2024-01-30_16h20.15.887,untitled,2023.2.3,60.29799270272488,2024-01-30 16h46.08.983844 -0500,
5.0,"[0.2, 0.1]",None,0.0,7.0,7.0,7.0,,,,,,,,,1626.2798067999538,,,,,,,,,,,,,,,,,,,,,,,,,,,,1626.264576900052,1626.2798067999538,1626.2798067999538,1626.7630276000127,1626.779753100127,1629.263030400034,1629.27959010005,1629.2638390001375,None,1.0,,,,,,,,,,,,,,,,,,,,,,,,,,,,,,,,,,,,,,,,,,,,,nback77,1.0,2024-01-30_16h20.15.887,untitled,2023.2.3,60.29799270272488,2024-01-30 16h46.08.983844 -0500,
11.0,"[-0.64, -0.4]",space,0.0,8.0,8.0,8.0,,,,,,,,,1629.27959010005,,,,,,,,,,,,,,,,,,,,,,,,,,,,1629.2645845001098,1629.27959010005,1629.27959010005,1629.7631840000397,1629.7795407001397,1632.2628625999205,1632.279754600022,1632.2637698999606,space,1.0,0.3177213000599295,None,,,,,,,,,,,,,,,,,,,,,,,,,,,,,,,,,,,,,,,,,,,nback77,1.0,2024-01-30_16h20.15.887,untitled,2023.2.3,60.29799270272488,2024-01-30 16h46.08.983844 -0500,
9.0,"[0.2, -0.1]",None,0.0,9.0,9.0,9.0,,,,,,,,,1632.279754600022,,,,,,,,,,,,,,,,,,,,,,,,,,,,1632.2646457999945,1632.279754600022,1632.279754600022,1632.7630125000142,1632.7796946000308,1635.262823499972,1635.2796757000033,1635.2635944001377,None,1.0,,,,,,,,,,,,,,,,,,,,,,,,,,,,,,,,,,,,,,,,,,,,,nback77,1.0,2024-01-30_16h20.15.887,untitled,2023.2.3,60.29799270272488,2024-01-30 16h46.08.983844 -0500,
8.0,"[-0.2, -0.1]",None,0.0,10.0,10.0,10.0,,,,,,,,,1635.2796757000033,,,,,,,,,,,,,,,,,,,,,,,,,,,,1635.2642532000318,1635.2796757000033,1635.2796757000033,1635.762843900127,1635.7795526001137,1638.2630404001102,1638.2795188999737,1638.2640488999896,None,1.0,,,,,,,,,,,,,,,,,,,,,,,,,,,,,,,,,,,,,,,,,,,,,nback77,1.0,2024-01-30_16h20.15.887,untitled,2023.2.3,60.29799270272488,2024-01-30 16h46.08.983844 -0500,
9.0,"[0.2, -0.1]",None,0.0,11.0,11.0,11.0,,,,,,,,,1638.2795188999737,,,,,,,,,,,,,,,,,,,,,,,,,,,,1638.2648786001373,1638.2795188999737,1638.2795188999737,1638.779455699958,1638.779455699958,1641.2793670000974,1641.2793670000974,1641.2633772001136,None,1.0,,,,,,,,,,,,,,,,,,,,,,,,,,,,,,,,,,,,,,,,,,,,,nback77,1.0,2024-01-30_16h20.15.887,untitled,2023.2.3,60.29799270272488,2024-01-30 16h46.08.983844 -0500,
6.0,"[-0.3, 0]",None,0.0,12.0,12.0,12.0,,,,,,,,,1641.2793670000974,,,,,,,,,,,,,,,,,,,,,,,,,,,,1641.2639699999709,1641.2793670000974,1641.2793670000974,1641.7794774000067,1641.7794774000067,1644.2793246000074,1644.2793246000074,1644.2633366000373,None,1.0,,,,,,,,,,,,,,,,,,,,,,,,,,,,,,,,,,,,,,,,,,,,,nback77,1.0,2024-01-30_16h20.15.887,untitled,2023.2.3,60.29799270272488,2024-01-30 16h46.08.983844 -0500,
9.0,"[0.2, -0.1]",None,0.0,13.0,13.0,13.0,,,,,,,,,1644.2793246000074,,,,,,,,,,,,,,,,,,,,,,,,,,,,1644.2639735999985,1644.2793246000074,1644.2793246000074,1644.7793775999453,1644.7793775999453,1647.2792714999523,1647.2792714999523,1647.2634882000275,None,1.0,,,,,,,,,,,,,,,,,,,,,,,,,,,,,,,,,,,,,,,,,,,,,nback77,1.0,2024-01-30_16h20.15.887,untitled,2023.2.3,60.29799270272488,2024-01-30 16h46.08.983844 -0500,
7.0,"[0.3, 0]",None,0.0,14.0,14.0,14.0,,,,,,,,,1647.2792714999523,,,,,,,,,,,,,,,,,,,,,,,,,,,,1647.2642588000745,1647.2792714999523,1647.2792714999523,1647.779329400044,1647.779329400044,1650.2792617001105,1650.2792617001105,1650.2635145001111,None,1.0,,,,,,,,,,,,,,,,,,,,,,,,,,,,,,,,,,,,,,,,,,,,,nback77,1.0,2024-01-30_16h20.15.887,untitled,2023.2.3,60.29799270272488,2024-01-30 16h46.08.983844 -0500,
2.0,"[0.64, 0.4]",None,0.0,15.0,15.0,15.0,,,,,,,,,1650.2792617001105,,,,,,,,,,,,,,,,,,,,,,,,,,,,1650.2642614000945,1650.2792617001105,1650.2792617001105,1650.7791673000902,1650.7791673000902,1653.2791017999407,1653.2791017999407,1653.2632691001054,None,1.0,,,,,,,,,,,,,,,,,,,,,,,,,,,,,,,,,,,,,,,,,,,,,nback77,1.0,2024-01-30_16h20.15.887,untitled,2023.2.3,60.29799270272488,2024-01-30 16h46.08.983844 -0500,
2.0,"[0.64, 0.4]",None,0.0,16.0,16.0,16.0,,,,,,,,,1653.2791017999407,,,,,,,,,,,,,,,,,,,,,,,,,,,,1653.263840300031,1653.2791017999407,1653.2791017999407,1653.7793328000698,1653.7793328000698,1656.2790959000122,1656.2790959000122,1656.2630551001057,None,1.0,,,,,,,,,,,,,,,,,,,,,,,,,,,,,,,,,,,,,,,,,,,,,nback77,1.0,2024-01-30_16h20.15.887,untitled,2023.2.3,60.29799270272488,2024-01-30 16h46.08.983844 -0500,
11.0,"[-0.64, -0.4]",space,0.0,17.0,17.0,17.0,,,,,,,,,1656.2790959000122,,,,,,,,,,,,,,,,,,,,,,,,,,,,1656.2635466000063,1656.2790959000122,1656.2790959000122,1656.7792623999994,1656.7792623999994,1659.2789636000523,1659.2789636000523,1659.263280000072,space,1.0,0.3477285001426935,None,,,,,,,,,,,,,,,,,,,,,,,,,,,,,,,,,,,,,,,,,,,nback77,1.0,2024-01-30_16h20.15.887,untitled,2023.2.3,60.29799270272488,2024-01-30 16h46.08.983844 -0500,
11.0,"[-0.64, -0.4]",space,0.0,18.0,18.0,18.0,,,,,,,,,1659.2789636000523,,,,,,,,,,,,,,,,,,,,,,,,,,,,1659.2641398000997,1659.2789636000523,1659.2789636000523,1659.779074900085,1659.779074900085,1662.2790198000148,1662.2790198000148,1662.263372000074,space,1.0,0.5352912000380456,None,,,,,,,,,,,,,,,,,,,,,,,,,,,,,,,,,,,,,,,,,,,nback77,1.0,2024-01-30_16h20.15.887,untitled,2023.2.3,60.29799270272488,2024-01-30 16h46.08.983844 -0500,
7.0,"[0.3, 0]",None,0.0,19.0,19.0,19.0,,,,,,,,,1662.2790198000148,,,,,,,,,,,,,,,,,,,,,,,,,,,,1662.264102899935,1662.2790198000148,1662.2790198000148,1662.779022099916,1662.779022099916,1665.2788223000243,1665.2788223000243,1665.2625400000252,None,1.0,,,,,,,,,,,,,,,,,,,,,,,,,,,,,,,,,,,,,,,,,,,,,nback77,1.0,2024-01-30_16h20.15.887,untitled,2023.2.3,60.29799270272488,2024-01-30 16h46.08.983844 -0500,
3.0,"[0, 0.2]",None,0.0,20.0,20.0,20.0,,,,,,,,,1665.2788223000243,,,,,,,,,,,,,,,,,,,,,,,,,,,,1665.2632484000642,1665.2788223000243,1665.2788223000243,1665.7788807000034,1665.7788807000034,1668.279055800056,1668.279055800056,1668.2632955000736,None,1.0,,,,,,,,,,,,,,,,,,,,,,,,,,,,,,,,,,,,,,,,,,,,,nback77,1.0,2024-01-30_16h20.15.887,untitled,2023.2.3,60.29799270272488,2024-01-30 16h46.08.983844 -0500,
10.0,"[0, -0.2]",None,0.0,21.0,21.0,21.0,,,,,,,,,1668.279055800056,,,,,,,,,,,,,,,,,,,,,,,,,,,,1668.2640100000426,1668.279055800056,1668.279055800056,1668.778969899984,1668.778969899984,1671.278744300129,1671.278744300129,1671.2625855000224,None,1.0,,,,,,,,,,,,,,,,,,,,,,,,,,,,,,,,,,,,,,,,,,,,,nback77,1.0,2024-01-30_16h20.15.887,untitled,2023.2.3,60.29799270272488,2024-01-30 16h46.08.983844 -0500,
1.0,"[-0.64, 0.4]",None,0.0,22.0,22.0,22.0,,,,,,,,,1671.278744300129,,,,,,,,,,,,,,,,,,,,,,,,,,,,1671.2629049001262,1671.278744300129,1671.278744300129,1671.778789400123,1671.778789400123,1674.2787790999282,1674.2787790999282,1674.2629665001296,None,1.0,,,,,,,,,,,,,,,,,,,,,,,,,,,,,,,,,,,,,,,,,,,,,nback77,1.0,2024-01-30_16h20.15.887,untitled,2023.2.3,60.29799270272488,2024-01-30 16h46.08.983844 -0500,
2.0,"[0.64, 0.4]",None,0.0,23.0,23.0,23.0,,,,,,,,,1674.2787790999282,,,,,,,,,,,,,,,,,,,,,,,,,,,,1674.2635755999945,1674.2787790999282,1674.2787790999282,1674.7789437000174,1674.7789437000174,1677.2787248000968,1677.2787248000968,1677.2629303000867,None,1.0,,,,,,,,,,,,,,,,,,,,,,,,,,,,,,,,,,,,,,,,,,,,,nback77,1.0,2024-01-30_16h20.15.887,untitled,2023.2.3,60.29799270272488,2024-01-30 16h46.08.983844 -0500,
6.0,"[-0.3, 0]",None,0.0,24.0,24.0,24.0,,,,,,,,,1677.2787248000968,,,,,,,,,,,,,,,,,,,,,,,,,,,,1677.2635171001311,1677.2787248000968,1677.2787248000968,1677.7788740000688,1677.7788740000688,1680.2789074999746,1680.2789074999746,1680.2628399999812,None,1.0,,,,,,,,,,,,,,,,,,,,,,,,,,,,,,,,,,,,,,,,,,,,,nback77,1.0,2024-01-30_16h20.15.887,untitled,2023.2.3,60.29799270272488,2024-01-30 16h46.08.983844 -0500,
3.0,"[0, 0.2]",None,0.0,25.0,25.0,25.0,,,,,,,,,1680.2789074999746,,,,,,,,,,,,,,,,,,,,,,,,,,,,1680.2635532000568,1680.2789074999746,1680.2789074999746,1680.7787482999263,1680.7787482999263,1683.2786169999745,1683.2786169999745,1683.2629502001218,None,1.0,,,,,,,,,,,,,,,,,,,,,,,,,,,,,,,,,,,,,,,,,,,,,nback77,1.0,2024-01-30_16h20.15.887,untitled,2023.2.3,60.29799270272488,2024-01-30 16h46.08.983844 -0500,
11.0,"[-0.64, -0.4]",space,0.0,26.0,26.0,26.0,,,,,,,,,1683.2786169999745,,,,,,,,,,,,,,,,,,,,,,,,,,,,1683.2636561000254,1683.2786169999745,1683.2786169999745,1683.7786415000446,1683.7786415000446,1686.2785755000075,1686.2785755000075,1686.262777300086,space,1.0,0.3625145999249071,None,,,,,,,,,,,,,,,,,,,,,,,,,,,,,,,,,,,,,,,,,,,nback77,1.0,2024-01-30_16h20.15.887,untitled,2023.2.3,60.29799270272488,2024-01-30 16h46.08.983844 -0500,
1.0,"[-0.64, 0.4]",None,0.0,27.0,27.0,27.0,,,,,,,,,1686.2785755000075,,,,,,,,,,,,,,,,,,,,,,,,,,,,1686.2634372999892,1686.2785755000075,1686.2785755000075,1686.778586700093,1686.778586700093,1689.2785646000411,1689.2785646000411,1689.2629327999894,None,1.0,,,,,,,,,,,,,,,,,,,,,,,,,,,,,,,,,,,,,,,,,,,,,nback77,1.0,2024-01-30_16h20.15.887,untitled,2023.2.3,60.29799270272488,2024-01-30 16h46.08.983844 -0500,
3.0,"[0, 0.2]",None,0.0,28.0,28.0,28.0,,,,,,,,,1689.2785646000411,,,,,,,,,,,,,,,,,,,,,,,,,,,,1689.2636122999247,1689.2785646000411,1689.2785646000411,1689.7787299000192,1689.7787299000192,1692.2785809000488,1692.2785809000488,1692.2625984000042,None,1.0,,,,,,,,,,,,,,,,,,,,,,,,,,,,,,,,,,,,,,,,,,,,,nback77,1.0,2024-01-30_16h20.15.887,untitled,2023.2.3,60.29799270272488,2024-01-30 16h46.08.983844 -0500,
9.0,"[0.2, -0.1]",None,0.0,29.0,29.0,29.0,,,,,,,,,1692.2785809000488,,,,,,,,,,,,,,,,,,,,,,,,,,,,1692.263256400125,1692.2785809000488,1692.2785809000488,1692.77853780007,1692.77853780007,1695.2784766000696,1695.2784766000696,1695.2630948000588,None,1.0,,,,,,,,,,,,,,,,,,,,,,,,,,,,,,,,,,,,,,,,,,,,,nback77,1.0,2024-01-30_16h20.15.887,untitled,2023.2.3,60.29799270272488,2024-01-30 16h46.08.983844 -0500,
8.0,"[-0.2, -0.1]",None,0.0,30.0,30.0,30.0,,,,,,,,,1695.2784766000696,,,,,,,,,,,,,,,,,,,,,,,,,,,,1695.2639955000486,1695.2784766000696,1695.2784766000696,1695.7784299000632,1695.7784299000632,1698.2783500000369,1698.2783500000369,1698.2625969999935,None,1.0,,,,,,,,,,,,,,,,,,,,,,,,,,,,,,,,,,,,,,,,,,,,,nback77,1.0,2024-01-30_16h20.15.887,untitled,2023.2.3,60.29799270272488,2024-01-30 16h46.08.983844 -0500,
12.0,"[0.64, -0.4]",None,0.0,31.0,31.0,31.0,,,,,,,,,1698.2783500000369,,,,,,,,,,,,,,,,,,,,,,,,,,,,1698.2632711001206,1698.2783500000369,1698.2783500000369,1698.7783882999793,1698.7783882999793,1701.2782719000245,1701.2782719000245,1701.2623727999162,None,1.0,,,,,,,,,,,,,,,,,,,,,,,,,,,,,,,,,,,,,,,,,,,,,nback77,1.0,2024-01-30_16h20.15.887,untitled,2023.2.3,60.29799270272488,2024-01-30 16h46.08.983844 -0500,
9.0,"[0.2, -0.1]",None,0.0,32.0,32.0,32.0,,,,,,,,,1701.2782719000245,,,,,,,,,,,,,,,,,,,,,,,,,,,,1701.2630332999397,1701.2782719000245,1701.2782719000245,1701.778302300023,1701.778302300023,1704.2783967999276,1704.2783967999276,1704.262532300083,None,1.0,,,,,,,,,,,,,,,,,,,,,,,,,,,,,,,,,,,,,,,,,,,,,nback77,1.0,2024-01-30_16h20.15.887,untitled,2023.2.3,60.29799270272488,2024-01-30 16h46.08.983844 -0500,
11.0,"[-0.64, -0.4]",space,0.0,33.0,33.0,33.0,,,,,,,,,1704.2783967999276,,,,,,,,,,,,,,,,,,,,,,,,,,,,1704.2631864000575,1704.2783967999276,1704.2783967999276,1704.7783099999651,1704.7783099999651,1707.2781273999717,1707.2781273999717,1707.2624183001462,space,1.0,0.3169463998638093,None,,,,,,,,,,,,,,,,,,,,,,,,,,,,,,,,,,,,,,,,,,,nback77,1.0,2024-01-30_16h20.15.887,untitled,2023.2.3,60.29799270272488,2024-01-30 16h46.08.983844 -0500,
7.0,"[0.3, 0]",None,0.0,34.0,34.0,34.0,,,,,,,,,1707.2781273999717,,,,,,,,,,,,,,,,,,,,,,,,,,,,1707.263274300145,1707.2781273999717,1707.2781273999717,1707.778179800138,1707.778179800138,1710.278177500004,1710.278177500004,1710.2623984999957,None,1.0,,,,,,,,,,,,,,,,,,,,,,,,,,,,,,,,,,,,,,,,,,,,,nback77,1.0,2024-01-30_16h20.15.887,untitled,2023.2.3,60.29799270272488,2024-01-30 16h46.08.983844 -0500,
11.0,"[-0.64, -0.4]",space,0.0,35.0,35.0,35.0,,,,,,,,,1710.278177500004,,,,,,,,,,,,,,,,,,,,,,,,,,,,1710.2630376000889,1710.278177500004,1710.278177500004,1710.7791947999503,1710.7791947999503,,1713.2780142999254,1713.2781636000143,space,1.0,0.4003695999272167,None,,,,,,,,,,,,,,,,,,,,,,,,,,,,,,,,,,,,,,,,,,,nback77,1.0,2024-01-30_16h20.15.887,untitled,2023.2.3,60.29799270272488,2024-01-30 16h46.08.983844 -0500,
4.0,"[-0.2, 0.1]",None,0.0,36.0,36.0,36.0,,,,,,,,,1713.2948966999538,,,,,,,,,,,,,,,,,,,,,,,,,,,,1713.278858799953,1713.2948966999538,1713.2948966999538,1713.7782584999222,1713.7946961000562,1716.2781499000266,,1716.2783397999592,None,1.0,,,,,,,,,,,,,,,,,,,,,,,,,,,,,,,,,,,,,,,,,,,,,nback77,1.0,2024-01-30_16h20.15.887,untitled,2023.2.3,60.29799270272488,2024-01-30 16h46.08.983844 -0500,
5.0,"[0.2, 0.1]",None,0.0,37.0,37.0,37.0,,,,,,,,,1716.2946208000649,,,,,,,,,,,,,,,,,,,,,,,,,,,,1716.279073700076,1716.2946208000649,1716.2946208000649,1716.7781255000737,1716.794822500087,1719.278128399979,,1719.2783435001038,None,1.0,,,,,,,,,,,,,,,,,,,,,,,,,,,,,,,,,,,,,,,,,,,,,nback77,1.0,2024-01-30_16h20.15.887,untitled,2023.2.3,60.29799270272488,2024-01-30 16h46.08.983844 -0500,
6.0,"[-0.3, 0]",None,0.0,38.0,38.0,38.0,,,,,,,,,1719.2945578999352,,,,,,,,,,,,,,,,,,,,,,,,,,,,1719.279185099993,1719.2945578999352,1719.2945578999352,1719.7781048000325,1719.794769699918,1722.2781471000053,,1722.2783594999928,None,1.0,,,,,,,,,,,,,,,,,,,,,,,,,,,,,,,,,,,,,,,,,,,,,nback77,1.0,2024-01-30_16h20.15.887,untitled,2023.2.3,60.29799270272488,2024-01-30 16h46.08.983844 -0500,
11.0,"[-0.64, -0.4]",space,0.0,39.0,39.0,39.0,,,,,,,,,1722.294850599952,,,,,,,,,,,,,,,,,,,,,,,,,,,,1722.2791705001146,1722.294850599952,1722.294850599952,1722.7781521999275,1722.7946363999508,1725.2778125000186,,1725.2778914999217,space,1.0,0.3696127000730485,None,,,,,,,,,,,,,,,,,,,,,,,,,,,,,,,,,,,,,,,,,,,nback77,1.0,2024-01-30_16h20.15.887,untitled,2023.2.3,60.29799270272488,2024-01-30 16h46.08.983844 -0500,
,,,,,,,,,,,,,,,,,,,,,,,,,,,,,,,,,,,,,,,,,,,,,,,,,,,,,,,1725.278202000074,1725.294592699967,1725.294592699967,1750.8958332000766,space,25.59445799980313,None,,,,,,,,,,,,,,,,,,,,,,,,,,,,,,,,,,,,nback77,1.0,2024-01-30_16h20.15.887,untitled,2023.2.3,60.29799270272488,2024-01-30 16h46.08.983844 -0500,
10.0,"[0, -0.2]",None,,,,,0.0,0.0,0.0,0.0,,,,,1751.9107560999691,,,,,,,,,,,,,,,,,,,,,,,,1750.8958722001407,1750.9108140000608,1751.9107560999691,1751.89527190011,,,,,,,,,,,,,,,,,,,,1751.9083625001367,1751.9107560999691,1751.9107560999691,1752.410882000113,1752.410882000113,1754.910899600014,1754.910899600014,1754.8949740999378,None,1.0,,,,,,,,,,,,,,,,,,,,,,,,,,nback77,1.0,2024-01-30_16h20.15.887,untitled,2023.2.3,60.29799270272488,2024-01-30 16h46.08.983844 -0500,
5.0,"[0.2, 0.1]",None,,,,,0.0,1.0,1.0,1.0,,,,,1754.910899600014,,,,,,,,,,,,,,,,,,,,,,,,,,,,,,,,,,,,,,,,,,,,,,,1754.8958839001134,1754.910899600014,1754.910899600014,1755.410798799945,1755.410798799945,1757.910563700134,1757.910563700134,1757.8946843000597,None,1.0,,,,,,,,,,,,,,,,,,,,,,,,,,nback77,1.0,2024-01-30_16h20.15.887,untitled,2023.2.3,60.29799270272488,2024-01-30 16h46.08.983844 -0500,
6.0,"[-0.3, 0]",None,,,,,0.0,2.0,2.0,2.0,,,,,1757.910563700134,,,,,,,,,,,,,,,,,,,,,,,,,,,,,,,,,,,,,,,,,,,,,,,1757.8952937999277,1757.910563700134,1757.910563700134,1758.4108450999483,1758.4108450999483,1760.9107226000633,1760.9107226000633,1760.894896300044,None,1.0,,,,,,,,,,,,,,,,,,,,,,,,,,nback77,1.0,2024-01-30_16h20.15.887,untitled,2023.2.3,60.29799270272488,2024-01-30 16h46.08.983844 -0500,
6.0,"[-0.3, 0]",space,,,,,0.0,3.0,3.0,3.0,,,,,1760.9107226000633,,,,,,,,,,,,,,,,,,,,,,,,,,,,,,,,,,,,,,,,,,,,,,,1760.8956202999689,1760.9107226000633,1760.9107226000633,1761.4108075001277,1761.4108075001277,1763.9107029000295,1763.9107029000295,1763.895138700027,space,1.0,0.3148955998476594,None,,,,,,,,,,,,,,,,,,,,,,,,nback77,1.0,2024-01-30_16h20.15.887,untitled,2023.2.3,60.29799270272488,2024-01-30 16h46.08.983844 -0500,
12.0,"[0.64, -0.4]",None,,,,,0.0,4.0,4.0,4.0,,,,,1763.9107029000295,,,,,,,,,,,,,,,,,,,,,,,,,,,,,,,,,,,,,,,,,,,,,,,1763.8964116999414,1763.9107029000295,1763.9107029000295,1764.4107288001103,1764.4107288001103,1766.9104323000647,1766.9104323000647,1766.8946392000653,None,1.0,,,,,,,,,,,,,,,,,,,,,,,,,,nback77,1.0,2024-01-30_16h20.15.887,untitled,2023.2.3,60.29799270272488,2024-01-30 16h46.08.983844 -0500,
10.0,"[0, -0.2]",None,,,,,0.0,5.0,5.0,5.0,,,,,1766.9104323000647,,,,,,,,,,,,,,,,,,,,,,,,,,,,,,,,,,,,,,,,,,,,,,,1766.8952732000034,1766.9104323000647,1766.9104323000647,1767.41067319992,1767.41067319992,1769.910487400135,1769.910487400135,1769.8945877000224,None,1.0,,,,,,,,,,,,,,,,,,,,,,,,,,nback77,1.0,2024-01-30_16h20.15.887,untitled,2023.2.3,60.29799270272488,2024-01-30 16h46.08.983844 -0500,
2.0,"[0.64, 0.4]",None,,,,,0.0,6.0,6.0,6.0,,,,,1769.910487400135,,,,,,,,,,,,,,,,,,,,,,,,,,,,,,,,,,,,,,,,,,,,,,,1769.8952339000534,1769.910487400135,1769.910487400135,1770.410277100047,1770.410277100047,1772.9103266999591,1772.9103266999591,1772.8944306001067,None,1.0,,,,,,,,,,,,,,,,,,,,,,,,,,nback77,1.0,2024-01-30_16h20.15.887,untitled,2023.2.3,60.29799270272488,2024-01-30 16h46.08.983844 -0500,
9.0,"[0.2, -0.1]",None,,,,,0.0,7.0,7.0,7.0,,,,,1772.9103266999591,,,,,,,,,,,,,,,,,,,,,,,,,,,,,,,,,,,,,,,,,,,,,,,1772.8950364999473,1772.9103266999591,1772.9103266999591,1773.4103987000417,1773.4103987000417,1775.91031019995,1775.91031019995,1775.8943624999374,None,1.0,,,,,,,,,,,,,,,,,,,,,,,,,,nback77,1.0,2024-01-30_16h20.15.887,untitled,2023.2.3,60.29799270272488,2024-01-30 16h46.08.983844 -0500,
9.0,"[0.2, -0.1]",space,,,,,0.0,8.0,8.0,8.0,,,,,1775.91031019995,,,,,,,,,,,,,,,,,,,,,,,,,,,,,,,,,,,,,,,,,,,,,,,1775.8949633999728,1775.91031019995,1775.91031019995,1776.410396600142,1776.410396600142,1778.9103338001296,1778.9103338001296,1778.8949881999288,space,1.0,0.3744413000531494,None,,,,,,,,,,,,,,,,,,,,,,,,nback77,1.0,2024-01-30_16h20.15.887,untitled,2023.2.3,60.29799270272488,2024-01-30 16h46.08.983844 -0500,
6.0,"[-0.3, 0]",None,,,,,0.0,9.0,9.0,9.0,,,,,1778.9103338001296,,,,,,,,,,,,,,,,,,,,,,,,,,,,,,,,,,,,,,,,,,,,,,,1778.8959423999768,1778.9103338001296,1778.9103338001296,1779.410286500119,1779.410286500119,1781.9102517999709,1781.9102517999709,1781.894418500131,None,1.0,,,,,,,,,,,,,,,,,,,,,,,,,,nback77,1.0,2024-01-30_16h20.15.887,untitled,2023.2.3,60.29799270272488,2024-01-30 16h46.08.983844 -0500,
11.0,"[-0.64, -0.4]",None,,,,,0.0,10.0,10.0,10.0,,,,,1781.9102517999709,,,,,,,,,,,,,,,,,,,,,,,,,,,,,,,,,,,,,,,,,,,,,,,1781.8948117999826,1781.9102517999709,1781.9102517999709,1782.410088200122,1782.410088200122,1784.9102996999864,1784.9102996999864,1784.8944689999337,None,1.0,,,,,,,,,,,,,,,,,,,,,,,,,,nback77,1.0,2024-01-30_16h20.15.887,untitled,2023.2.3,60.29799270272488,2024-01-30 16h46.08.983844 -0500,
11.0,"[-0.64, -0.4]",space,,,,,0.0,11.0,11.0,11.0,,,,,1784.9102996999864,,,,,,,,,,,,,,,,,,,,,,,,,,,,,,,,,,,,,,,,,,,,,,,1784.8951874000486,1784.9102996999864,1784.9102996999864,1785.410108299926,1785.410108299926,1787.9102872000076,1787.9102872000076,1787.8944369000385,space,1.0,0.3751280999276787,None,,,,,,,,,,,,,,,,,,,,,,,,nback77,1.0,2024-01-30_16h20.15.887,untitled,2023.2.3,60.29799270272488,2024-01-30 16h46.08.983844 -0500,
4.0,"[-0.2, 0.1]",None,,,,,0.0,12.0,12.0,12.0,,,,,1787.9102872000076,,,,,,,,,,,,,,,,,,,,,,,,,,,,,,,,,,,,,,,,,,,,,,,1787.895217200043,1787.9102872000076,1787.9102872000076,1788.410151900025,1788.410151900025,1790.9102185000663,1790.9102185000663,1790.894400200108,None,1.0,,,,,,,,,,,,,,,,,,,,,,,,,,nback77,1.0,2024-01-30_16h20.15.887,untitled,2023.2.3,60.29799270272488,2024-01-30 16h46.08.983844 -0500,
3.0,"[0, 0.2]",None,,,,,0.0,13.0,13.0,13.0,,,,,1790.9102185000663,,,,,,,,,,,,,,,,,,,,,,,,,,,,,,,,,,,,,,,,,,,,,,,1790.8950451000128,1790.9102185000663,1790.9102185000663,1791.4100361000746,1791.4100361000746,1793.9100895000156,1793.9100895000156,1793.894279600121,None,1.0,,,,,,,,,,,,,,,,,,,,,,,,,,nback77,1.0,2024-01-30_16h20.15.887,untitled,2023.2.3,60.29799270272488,2024-01-30 16h46.08.983844 -0500,
3.0,"[0, 0.2]",space,,,,,0.0,14.0,14.0,14.0,,,,,1793.9100895000156,,,,,,,,,,,,,,,,,,,,,,,,,,,,,,,,,,,,,,,,,,,,,,,1793.8949255999178,1793.9100895000156,1793.9100895000156,1794.4102070999795,1794.4102070999795,1796.9100899000186,1796.9100899000186,1796.8945174000692,space,1.0,0.3096433000173419,None,,,,,,,,,,,,,,,,,,,,,,,,nback77,1.0,2024-01-30_16h20.15.887,untitled,2023.2.3,60.29799270272488,2024-01-30 16h46.08.983844 -0500,
8.0,"[-0.2, -0.1]",None,,,,,0.0,15.0,15.0,15.0,,,,,1796.9100899000186,,,,,,,,,,,,,,,,,,,,,,,,,,,,,,,,,,,,,,,,,,,,,,,1796.8955137000885,1796.9100899000186,1796.9100899000186,1797.410025899997,1797.410025899997,1799.910120900022,1799.910120900022,1799.894545200048,None,1.0,,,,,,,,,,,,,,,,,,,,,,,,,,nback77,1.0,2024-01-30_16h20.15.887,untitled,2023.2.3,60.29799270272488,2024-01-30 16h46.08.983844 -0500,
1.0,"[-0.64, 0.4]",None,,,,,0.0,16.0,16.0,16.0,,,,,1799.910120900022,,,,,,,,,,,,,,,,,,,,,,,,,,,,,,,,,,,,,,,,,,,,,,,1799.895389399957,1799.910120900022,1799.910120900022,1800.410088900011,1800.410088900011,1802.9099236999173,1802.9099236999173,1802.8944228000476,None,1.0,,,,,,,,,,,,,,,,,,,,,,,,,,nback77,1.0,2024-01-30_16h20.15.887,untitled,2023.2.3,60.29799270272488,2024-01-30 16h46.08.983844 -0500,
2.0,"[0.64, 0.4]",None,,,,,0.0,17.0,17.0,17.0,,,,,1802.9099236999173,,,,,,,,,,,,,,,,,,,,,,,,,,,,,,,,,,,,,,,,,,,,,,,1802.8951069000177,1802.9099236999173,1802.9099236999173,1803.4099227001425,1803.4099227001425,1805.9098545999727,1805.9098545999727,1805.894049100112,None,1.0,,,,,,,,,,,,,,,,,,,,,,,,,,nback77,1.0,2024-01-30_16h20.15.887,untitled,2023.2.3,60.29799270272488,2024-01-30 16h46.08.983844 -0500,
4.0,"[-0.2, 0.1]",None,,,,,0.0,18.0,18.0,18.0,,,,,1805.9098545999727,,,,,,,,,,,,,,,,,,,,,,,,,,,,,,,,,,,,,,,,,,,,,,,1805.894705899991,1805.9098545999727,1805.9098545999727,1806.4098348000557,1806.4098348000557,1808.9099465999752,1808.9099465999752,1808.8941047999544,None,1.0,,,,,,,,,,,,,,,,,,,,,,,,,,nback77,1.0,2024-01-30_16h20.15.887,untitled,2023.2.3,60.29799270272488,2024-01-30 16h46.08.983844 -0500,
4.0,"[-0.2, 0.1]",space,,,,,0.0,19.0,19.0,19.0,,,,,1808.9099465999752,,,,,,,,,,,,,,,,,,,,,,,,,,,,,,,,,,,,,,,,,,,,,,,1808.894988300046,1808.9099465999752,1808.9099465999752,1809.4097168999724,1809.4097168999724,1811.909696799936,1811.909696799936,1811.893369999947,space,1.0,0.3426564000546932,None,,,,,,,,,,,,,,,,,,,,,,,,nback77,1.0,2024-01-30_16h20.15.887,untitled,2023.2.3,60.29799270272488,2024-01-30 16h46.08.983844 -0500,
8.0,"[-0.2, -0.1]",None,,,,,0.0,20.0,20.0,20.0,,,,,1811.909696799936,,,,,,,,,,,,,,,,,,,,,,,,,,,,,,,,,,,,,,,,,,,,,,,1811.893743700115,1811.909696799936,1811.909696799936,1812.4098833000755,1812.4098833000755,1814.9097678000107,1814.9097678000107,1814.8938847000245,None,1.0,,,,,,,,,,,,,,,,,,,,,,,,,,nback77,1.0,2024-01-30_16h20.15.887,untitled,2023.2.3,60.29799270272488,2024-01-30 16h46.08.983844 -0500,
5.0,"[0.2, 0.1]",None,,,,,0.0,21.0,21.0,21.0,,,,,1814.9097678000107,,,,,,,,,,,,,,,,,,,,,,,,,,,,,,,,,,,,,,,,,,,,,,,1814.8945343999656,1814.9097678000107,1814.9097678000107,1815.4096198999323,1815.4096198999323,1817.909718699986,1817.909718699986,1817.893839800032,None,1.0,,,,,,,,,,,,,,,,,,,,,,,,,,nback77,1.0,2024-01-30_16h20.15.887,untitled,2023.2.3,60.29799270272488,2024-01-30 16h46.08.983844 -0500,
5.0,"[0.2, 0.1]",space,,,,,0.0,22.0,22.0,22.0,,,,,1817.909718699986,,,,,,,,,,,,,,,,,,,,,,,,,,,,,,,,,,,,,,,,,,,,,,,1817.8944900999777,1817.909718699986,1817.909718699986,1818.4096417000983,1818.4096417000983,1820.9095791000875,1820.9095791000875,1820.8940342001151,space,1.0,0.500717599876225,None,,,,,,,,,,,,,,,,,,,,,,,,nback77,1.0,2024-01-30_16h20.15.887,untitled,2023.2.3,60.29799270272488,2024-01-30 16h46.08.983844 -0500,
1.0,"[-0.64, 0.4]",None,,,,,0.0,23.0,23.0,23.0,,,,,1820.9095791000875,,,,,,,,,,,,,,,,,,,,,,,,,,,,,,,,,,,,,,,,,,,,,,,1820.8950285001192,1820.9095791000875,1820.9095791000875,1821.4095830000008,1821.4095830000008,1823.9094001001213,1823.9094001001213,1823.8934377999976,None,1.0,,,,,,,,,,,,,,,,,,,,,,,,,,nback77,1.0,2024-01-30_16h20.15.887,untitled,2023.2.3,60.29799270272488,2024-01-30 16h46.08.983844 -0500,
3.0,"[0, 0.2]",None,,,,,0.0,24.0,24.0,24.0,,,,,1823.9094001001213,,,,,,,,,,,,,,,,,,,,,,,,,,,,,,,,,,,,,,,,,,,,,,,1823.894048599992,1823.9094001001213,1823.9094001001213,1824.409398399992,1824.409398399992,1826.909407600062,1826.909407600062,1826.8934568001423,None,1.0,,,,,,,,,,,,,,,,,,,,,,,,,,nback77,1.0,2024-01-30_16h20.15.887,untitled,2023.2.3,60.29799270272488,2024-01-30 16h46.08.983844 -0500,
6.0,"[-0.3, 0]",None,,,,,0.0,25.0,25.0,25.0,,,,,1826.909407600062,,,,,,,,,,,,,,,,,,,,,,,,,,,,,,,,,,,,,,,,,,,,,,,1826.894084000029,1826.909407600062,1826.909407600062,1827.409489300102,1827.409489300102,1829.9093718000224,1829.9093718000224,1829.8935370000545,None,1.0,,,,,,,,,,,,,,,,,,,,,,,,,,nback77,1.0,2024-01-30_16h20.15.887,untitled,2023.2.3,60.29799270272488,2024-01-30 16h46.08.983844 -0500,
1.0,"[-0.64, 0.4]",None,,,,,0.0,26.0,26.0,26.0,,,,,1829.9093718000224,,,,,,,,,,,,,,,,,,,,,,,,,,,,,,,,,,,,,,,,,,,,,,,1829.894115099916,1829.9093718000224,1829.9093718000224,1830.409442400094,1830.409442400094,1832.9094002000056,1832.9094002000056,1832.8939561001023,None,1.0,,,,,,,,,,,,,,,,,,,,,,,,,,nback77,1.0,2024-01-30_16h20.15.887,untitled,2023.2.3,60.29799270272488,2024-01-30 16h46.08.983844 -0500,
1.0,"[-0.64, 0.4]",space,,,,,0.0,27.0,27.0,27.0,,,,,1832.9094002000056,,,,,,,,,,,,,,,,,,,,,,,,,,,,,,,,,,,,,,,,,,,,,,,1832.8947855001315,1832.9094002000056,1832.9094002000056,1833.4095153999515,1833.4095153999515,1835.9094642000275,1835.9094642000275,1835.893547900021,space,1.0,0.3021417001727968,None,,,,,,,,,,,,,,,,,,,,,,,,nback77,1.0,2024-01-30_16h20.15.887,untitled,2023.2.3,60.29799270272488,2024-01-30 16h46.08.983844 -0500,
1.0,"[-0.64, 0.4]",space,,,,,0.0,28.0,28.0,28.0,,,,,1835.9094642000275,,,,,,,,,,,,,,,,,,,,,,,,,,,,,,,,,,,,,,,,,,,,,,,1835.894481400028,1835.9094642000275,1835.9094642000275,1836.409353099996,1836.409353099996,1838.909409699961,1838.909409699961,1838.893417000072,space,1.0,0.5593219001311809,None,,,,,,,,,,,,,,,,,,,,,,,,nback77,1.0,2024-01-30_16h20.15.887,untitled,2023.2.3,60.29799270272488,2024-01-30 16h46.08.983844 -0500,
3.0,"[0, 0.2]",None,,,,,0.0,29.0,29.0,29.0,,,,,1838.909409699961,,,,,,,,,,,,,,,,,,,,,,,,,,,,,,,,,,,,,,,,,,,,,,,1838.8942076999228,1838.909409699961,1838.909409699961,1839.409142000135,1839.409142000135,1841.9093007999472,1841.9093007999472,1841.89331630012,None,1.0,,,,,,,,,,,,,,,,,,,,,,,,,,nback77,1.0,2024-01-30_16h20.15.887,untitled,2023.2.3,60.29799270272488,2024-01-30 16h46.08.983844 -0500,
12.0,"[0.64, -0.4]",None,,,,,0.0,30.0,30.0,30.0,,,,,1841.9093007999472,,,,,,,,,,,,,,,,,,,,,,,,,,,,,,,,,,,,,,,,,,,,,,,1841.8940224000253,1841.9093007999472,1841.9093007999472,1842.409281300148,1842.409281300148,1844.90911899996,1844.90911899996,1844.893383800052,None,1.0,,,,,,,,,,,,,,,,,,,,,,,,,,nback77,1.0,2024-01-30_16h20.15.887,untitled,2023.2.3,60.29799270272488,2024-01-30 16h46.08.983844 -0500,
12.0,"[0.64, -0.4]",space,,,,,0.0,31.0,31.0,31.0,,,,,1844.90911899996,,,,,,,,,,,,,,,,,,,,,,,,,,,,,,,,,,,,,,,,,,,,,,,1844.894117600052,1844.90911899996,1844.90911899996,1845.4090376000383,1845.4090376000383,1847.909270199947,1847.909270199947,1847.8936745000535,space,1.0,0.3396591998171061,None,,,,,,,,,,,,,,,,,,,,,,,,nback77,1.0,2024-01-30_16h20.15.887,untitled,2023.2.3,60.29799270272488,2024-01-30 16h46.08.983844 -0500,
2.0,"[0.64, 0.4]",None,,,,,0.0,32.0,32.0,32.0,,,,,1847.909270199947,,,,,,,,,,,,,,,,,,,,,,,,,,,,,,,,,,,,,,,,,,,,,,,1847.8947209999897,1847.909270199947,1847.909270199947,1848.409124400001,1848.409124400001,1850.9090728000735,1850.9090728000735,1850.8932521999811,None,1.0,,,,,,,,,,,,,,,,,,,,,,,,,,nback77,1.0,2024-01-30_16h20.15.887,untitled,2023.2.3,60.29799270272488,2024-01-30 16h46.08.983844 -0500,
1.0,"[-0.64, 0.4]",None,,,,,0.0,33.0,33.0,33.0,,,,,1850.9090728000735,,,,,,,,,,,,,,,,,,,,,,,,,,,,,,,,,,,,,,,,,,,,,,,1850.8939127000049,1850.9090728000735,1850.9090728000735,1851.409060300095,1851.409060300095,1853.9088898999617,1853.9088898999617,1853.893085299991,None,1.0,,,,,,,,,,,,,,,,,,,,,,,,,,nback77,1.0,2024-01-30_16h20.15.887,untitled,2023.2.3,60.29799270272488,2024-01-30 16h46.08.983844 -0500,
7.0,"[0.3, 0]",None,,,,,0.0,34.0,34.0,34.0,,,,,1853.9088898999617,,,,,,,,,,,,,,,,,,,,,,,,,,,,,,,,,,,,,,,,,,,,,,,1853.8937343000437,1853.9088898999617,1853.9088898999617,1854.409131600056,1854.409131600056,1856.9091558000075,1856.9091558000075,1856.8933767001145,None,1.0,,,,,,,,,,,,,,,,,,,,,,,,,,nback77,1.0,2024-01-30_16h20.15.887,untitled,2023.2.3,60.29799270272488,2024-01-30 16h46.08.983844 -0500,
7.0,"[0.3, 0]",space,,,,,0.0,35.0,35.0,35.0,,,,,1856.9091558000075,,,,,,,,,,,,,,,,,,,,,,,,,,,,,,,,,,,,,,,,,,,,,,,1856.89417980006,1856.9091558000075,1856.9091558000075,1857.4089699999893,1857.4089699999893,1859.908877799986,1859.908877799986,1859.89309430006,space,1.0,0.3117278001736849,None,,,,,,,,,,,,,,,,,,,,,,,,nback77,1.0,2024-01-30_16h20.15.887,untitled,2023.2.3,60.29799270272488,2024-01-30 16h46.08.983844 -0500,
11.0,"[-0.64, -0.4]",None,,,,,0.0,36.0,36.0,36.0,,,,,1859.908877799986,,,,,,,,,,,,,,,,,,,,,,,,,,,,,,,,,,,,,,,,,,,,,,,1859.8938746999484,1859.908877799986,1859.908877799986,1860.4089448000304,1860.4089448000304,1862.9089401999956,1862.9089401999956,1862.893447099952,None,1.0,,,,,,,,,,,,,,,,,,,,,,,,,,nback77,1.0,2024-01-30_16h20.15.887,untitled,2023.2.3,60.29799270272488,2024-01-30 16h46.08.983844 -0500,
2.0,"[0.64, 0.4]",None,,,,,0.0,37.0,37.0,37.0,,,,,1862.9089401999956,,,,,,,,,,,,,,,,,,,,,,,,,,,,,,,,,,,,,,,,,,,,,,,1862.894269499928,1862.9089401999956,1862.9089401999956,1863.409051200142,1863.409051200142,1865.9088957000056,1865.9088957000056,1865.8926999000832,None,1.0,,,,,,,,,,,,,,,,,,,,,,,,,,nback77,1.0,2024-01-30_16h20.15.887,untitled,2023.2.3,60.29799270272488,2024-01-30 16h46.08.983844 -0500,
6.0,"[-0.3, 0]",None,,,,,0.0,38.0,38.0,38.0,,,,,1865.9088957000056,,,,,,,,,,,,,,,,,,,,,,,,,,,,,,,,,,,,,,,,,,,,,,,1865.89355519996,1865.9088957000056,1865.9088957000056,1866.4087048000656,1866.4087048000656,1868.908996199956,1868.908996199956,1868.8931162999943,None,1.0,,,,,,,,,,,,,,,,,,,,,,,,,,nback77,1.0,2024-01-30_16h20.15.887,untitled,2023.2.3,60.29799270272488,2024-01-30 16h46.08.983844 -0500,
10.0,"[0, -0.2]",None,,,,,0.0,39.0,39.0,39.0,,,,,1868.908996199956,,,,,,,,,,,,,,,,,,,,,,,,,,,,,,,,,,,,,,,,,,,,,,,1868.893913200125,1868.908996199956,1868.908996199956,1869.4089625999327,1869.4089625999327,1871.9087535999715,1871.9087535999715,1871.892809299985,None,1.0,,,,,,,,,,,,,,,,,,,,,,,,,,nback77,1.0,2024-01-30_16h20.15.887,untitled,2023.2.3,60.29799270272488,2024-01-30 16h46.08.983844 -0500,
,,,,,,,,,,,,,,,,,,,,,,,,,,,,,,,,,,,,,,,,,,,,,,,,,,,,,,,,,,,,,,,,,,,,,,,,,,1871.8932548000007,1871.9087535999715,1871.9087535999715,1880.2935854999812,space,8.378100599860772,None,,,,,,,,,,,,,,,,,nback77,1.0,2024-01-30_16h20.15.887,untitled,2023.2.3,60.29799270272488,2024-01-30 16h46.08.983844 -0500,
,"[0.2, 0.1]",None,,,,,,,,,0.0,0.0,0.0,0.0,1881.308278300101,,,,,,,,,,,,,,,,,,,,,,,,1880.2936428999528,1880.308637100039,1881.308278300101,1881.291821599938,,,,,,,,,,,,,,,,,,,,,,,,,,,,,,,,,,,,,,,1881.2992116999808,1881.308278300101,1881.308278300101,1881.808565699961,1881.808565699961,1884.3084662000183,1884.3084662000183,1884.2928895999207,None,1.0,,,,,,,nback77,1.0,2024-01-30_16h20.15.887,untitled,2023.2.3,60.29799270272488,2024-01-30 16h46.08.983844 -0500,
,"[0.64, 0.4]",None,,,,,,,,,0.0,1.0,1.0,1.0,1884.3084662000183,,,,,,,,,,,,,,,,,,,,,,,,,,,,,,,,,,,,,,,,,,,,,,,,,,,,,,,,,,,,,,,,,,1884.2938878000716,1884.3084662000183,1884.3084662000183,1884.8085612999275,1884.8085612999275,1887.3084746000825,1887.3084746000825,1887.2927997000515,None,1.0,,,,,,,nback77,1.0,2024-01-30_16h20.15.887,untitled,2023.2.3,60.29799270272488,2024-01-30 16h46.08.983844 -0500,
,"[-0.3, 0]",None,,,,,,,,,0.0,2.0,2.0,2.0,1887.3084746000825,,,,,,,,,,,,,,,,,,,,,,,,,,,,,,,,,,,,,,,,,,,,,,,,,,,,,,,,,,,,,,,,,,1887.293561600149,1887.3084746000825,1887.3084746000825,1887.808444299968,1887.808444299968,1890.3083883000072,1890.3083883000072,1890.2928649999667,None,1.0,,,,,,,nback77,1.0,2024-01-30_16h20.15.887,untitled,2023.2.3,60.29799270272488,2024-01-30 16h46.08.983844 -0500,
,"[0.2, -0.1]",None,,,,,,,,,0.0,3.0,3.0,3.0,1890.3083883000072,,,,,,,,,,,,,,,,,,,,,,,,,,,,,,,,,,,,,,,,,,,,,,,,,,,,,,,,,,,,,,,,,,1890.2936939001083,1890.3083883000072,1890.3083883000072,1890.808512200136,1890.808512200136,1893.3083355999552,1893.3083355999552,1893.292529599974,None,1.0,,,,,,,nback77,1.0,2024-01-30_16h20.15.887,untitled,2023.2.3,60.29799270272488,2024-01-30 16h46.08.983844 -0500,
,"[0, 0.2]",None,,,,,,,,,0.0,4.0,4.0,4.0,1893.3083355999552,,,,,,,,,,,,,,,,,,,,,,,,,,,,,,,,,,,,,,,,,,,,,,,,,,,,,,,,,,,,,,,,,,1893.2932372000068,1893.3083355999552,1893.3083355999552,1893.8083723001184,1893.8083723001184,1896.308305799961,1896.308305799961,1896.292284599971,None,1.0,,,,,,,nback77,1.0,2024-01-30_16h20.15.887,untitled,2023.2.3,60.29799270272488,2024-01-30 16h46.08.983844 -0500,
,"[0.2, -0.1]",space,,,,,,,,,0.0,5.0,5.0,5.0,1896.308305799961,,,,,,,,,,,,,,,,,,,,,,,,,,,,,,,,,,,,,,,,,,,,,,,,,,,,,,,,,,,,,,,,,,1896.292815899942,1896.308305799961,1896.308305799961,1896.808292400092,1896.808292400092,1899.3082690001463,1899.3082690001463,1899.2927679999264,None,0.0,,,,,,,nback77,1.0,2024-01-30_16h20.15.887,untitled,2023.2.3,60.29799270272488,2024-01-30 16h46.08.983844 -0500,
,"[0, -0.2]",None,,,,,,,,,0.0,6.0,6.0,6.0,1899.3082690001463,,,,,,,,,,,,,,,,,,,,,,,,,,,,,,,,,,,,,,,,,,,,,,,,,,,,,,,,,,,,,,,,,,1899.2935879,1899.3082690001463,1899.3082690001463,1899.8081785000395,1899.8081785000395,1902.3084235999268,1902.3084235999268,1902.292673900025,None,1.0,,,,,,,nback77,1.0,2024-01-30_16h20.15.887,untitled,2023.2.3,60.29799270272488,2024-01-30 16h46.08.983844 -0500,
,"[0.64, -0.4]",None,,,,,,,,,0.0,7.0,7.0,7.0,1902.3084235999268,,,,,,,,,,,,,,,,,,,,,,,,,,,,,,,,,,,,,,,,,,,,,,,,,,,,,,,,,,,,,,,,,,1902.2935015999249,1902.3084235999268,1902.3084235999268,1902.8082892000675,1902.8082892000675,1905.308026799932,1905.308026799932,1905.292025800096,None,1.0,,,,,,,nback77,1.0,2024-01-30_16h20.15.887,untitled,2023.2.3,60.29799270272488,2024-01-30 16h46.08.983844 -0500,
,"[0.3, 0]",None,,,,,,,,,0.0,8.0,8.0,8.0,1905.308026799932,,,,,,,,,,,,,,,,,,,,,,,,,,,,,,,,,,,,,,,,,,,,,,,,,,,,,,,,,,,,,,,,,,1905.292393499985,1905.308026799932,1905.308026799932,1905.8082338001116,1905.8082338001116,1908.308045200072,1908.308045200072,1908.2921605000736,None,1.0,,,,,,,nback77,1.0,2024-01-30_16h20.15.887,untitled,2023.2.3,60.29799270272488,2024-01-30 16h46.08.983844 -0500,
,"[0.64, -0.4]",space,,,,,,,,,0.0,9.0,9.0,9.0,1908.308045200072,,,,,,,,,,,,,,,,,,,,,,,,,,,,,,,,,,,,,,,,,,,,,,,,,,,,,,,,,,,,,,,,,,1908.292829999933,1908.308045200072,1908.308045200072,1908.8080850001425,1908.8080850001425,1911.307848900091,1911.307848900091,1911.2918519999369,None,0.0,,,,,,,nback77,1.0,2024-01-30_16h20.15.887,untitled,2023.2.3,60.29799270272488,2024-01-30 16h46.08.983844 -0500,
,"[-0.64, 0.4]",None,,,,,,,,,0.0,10.0,10.0,10.0,1911.307848900091,,,,,,,,,,,,,,,,,,,,,,,,,,,,,,,,,,,,,,,,,,,,,,,,,,,,,,,,,,,,,,,,,,1911.292496700073,1911.307848900091,1911.307848900091,1911.8079622001387,1911.8079622001387,1914.3081086999737,1914.3081086999737,1914.2922348000573,None,1.0,,,,,,,nback77,1.0,2024-01-30_16h20.15.887,untitled,2023.2.3,60.29799270272488,2024-01-30 16h46.08.983844 -0500,
,"[0.2, 0.1]",None,,,,,,,,,0.0,11.0,11.0,11.0,1914.3081086999737,,,,,,,,,,,,,,,,,,,,,,,,,,,,,,,,,,,,,,,,,,,,,,,,,,,,,,,,,,,,,,,,,,1914.2929492001424,1914.3081086999737,1914.3081086999737,1914.8080702000295,1914.8080702000295,1917.3078791999724,1917.3078791999724,1917.2923401000444,None,1.0,,,,,,,nback77,1.0,2024-01-30_16h20.15.887,untitled,2023.2.3,60.29799270272488,2024-01-30 16h46.08.983844 -0500,
,"[0.3, 0]",None,,,,,,,,,0.0,12.0,12.0,12.0,1917.3078791999724,,,,,,,,,,,,,,,,,,,,,,,,,,,,,,,,,,,,,,,,,,,,,,,,,,,,,,,,,,,,,,,,,,1917.2930729000363,1917.3078791999724,1917.3078791999724,1917.8078324000817,1917.8078324000817,1920.308106499957,1920.308106499957,1920.2924172999335,None,1.0,,,,,,,nback77,1.0,2024-01-30_16h20.15.887,untitled,2023.2.3,60.29799270272488,2024-01-30 16h46.08.983844 -0500,
,"[0.2, 0.1]",space,,,,,,,,,0.0,13.0,13.0,13.0,1920.308106499957,,,,,,,,,,,,,,,,,,,,,,,,,,,,,,,,,,,,,,,,,,,,,,,,,,,,,,,,,,,,,,,,,,1920.293235799996,1920.308106499957,1920.308106499957,1920.807839400135,1920.807839400135,1923.307690399932,1923.307690399932,1923.29201630014,space,1.0,0.2999981998000294,None,,,,,nback77,1.0,2024-01-30_16h20.15.887,untitled,2023.2.3,60.29799270272488,2024-01-30 16h46.08.983844 -0500,
,"[-0.3, 0]",None,,,,,,,,,0.0,14.0,14.0,14.0,1923.307690399932,,,,,,,,,,,,,,,,,,,,,,,,,,,,,,,,,,,,,,,,,,,,,,,,,,,,,,,,,,,,,,,,,,1923.2929293999916,1923.307690399932,1923.307690399932,1923.80765959993,1923.80765959993,1926.3076295999344,1926.3076295999344,1926.2923226000275,None,1.0,,,,,,,nback77,1.0,2024-01-30_16h20.15.887,untitled,2023.2.3,60.29799270272488,2024-01-30 16h46.08.983844 -0500,
,"[0, 0.2]",None,,,,,,,,,0.0,15.0,15.0,15.0,1926.3076295999344,,,,,,,,,,,,,,,,,,,,,,,,,,,,,,,,,,,,,,,,,,,,,,,,,,,,,,,,,,,,,,,,,,1926.293135599932,1926.3076295999344,1926.3076295999344,1926.8078658001032,1926.8078658001032,1929.3078149999487,1929.3078149999487,1929.292087000096,None,1.0,,,,,,,nback77,1.0,2024-01-30_16h20.15.887,untitled,2023.2.3,60.29799270272488,2024-01-30 16h46.08.983844 -0500,
,"[-0.3, 0]",space,,,,,,,,,0.0,16.0,16.0,16.0,1929.3078149999487,,,,,,,,,,,,,,,,,,,,,,,,,,,,,,,,,,,,,,,,,,,,,,,,,,,,,,,,,,,,,,,,,,1929.292863599956,1929.3078149999487,1929.3078149999487,1929.8076325999573,1929.8076325999573,1932.307698799996,1932.307698799996,1932.2916707000693,space,1.0,0.2994773997925222,None,,,,,nback77,1.0,2024-01-30_16h20.15.887,untitled,2023.2.3,60.29799270272488,2024-01-30 16h46.08.983844 -0500,
,"[-0.64, -0.4]",None,,,,,,,,,0.0,17.0,17.0,17.0,1932.307698799996,,,,,,,,,,,,,,,,,,,,,,,,,,,,,,,,,,,,,,,,,,,,,,,,,,,,,,,,,,,,,,,,,,1932.292408999987,1932.307698799996,1932.307698799996,1932.807625300018,1932.807625300018,1935.3075711999556,1935.3075711999556,1935.291771300137,None,1.0,,,,,,,nback77,1.0,2024-01-30_16h20.15.887,untitled,2023.2.3,60.29799270272488,2024-01-30 16h46.08.983844 -0500,
,"[-0.2, -0.1]",None,,,,,,,,,0.0,18.0,18.0,18.0,1935.3075711999556,,,,,,,,,,,,,,,,,,,,,,,,,,,,,,,,,,,,,,,,,,,,,,,,,,,,,,,,,,,,,,,,,,1935.2924238001,1935.3075711999556,1935.3075711999556,1935.807488300139,1935.807488300139,1938.3075705999509,1938.3075705999509,1938.2920445001216,None,1.0,,,,,,,nback77,1.0,2024-01-30_16h20.15.887,untitled,2023.2.3,60.29799270272488,2024-01-30 16h46.08.983844 -0500,
,"[0.2, -0.1]",None,,,,,,,,,0.0,19.0,19.0,19.0,1938.3075705999509,,,,,,,,,,,,,,,,,,,,,,,,,,,,,,,,,,,,,,,,,,,,,,,,,,,,,,,,,,,,,,,,,,1938.2928778999485,1938.3075705999509,1938.3075705999509,1938.807566900039,1938.807566900039,1941.30757179996,1941.30757179996,1941.2921120000535,None,1.0,,,,,,,nback77,1.0,2024-01-30_16h20.15.887,untitled,2023.2.3,60.29799270272488,2024-01-30 16h46.08.983844 -0500,
,"[0.2, -0.1]",None,,,,,,,,,0.0,20.0,20.0,20.0,1941.30757179996,,,,,,,,,,,,,,,,,,,,,,,,,,,,,,,,,,,,,,,,,,,,,,,,,,,,,,,,,,,,,,,,,,1941.2929376999384,1941.30757179996,1941.30757179996,1941.807497400092,1941.807497400092,1944.3074457000475,1944.3074457000475,1944.2917687001168,None,1.0,,,,,,,nback77,1.0,2024-01-30_16h20.15.887,untitled,2023.2.3,60.29799270272488,2024-01-30 16h46.08.983844 -0500,
,"[-0.64, 0.4]",None,,,,,,,,,0.0,21.0,21.0,21.0,1944.3074457000475,,,,,,,,,,,,,,,,,,,,,,,,,,,,,,,,,,,,,,,,,,,,,,,,,,,,,,,,,,,,,,,,,,1944.2924717001151,1944.3074457000475,1944.3074457000475,1944.80748710013,1944.80748710013,1947.307185800048,1947.307185800048,1947.291122799972,None,1.0,,,,,,,nback77,1.0,2024-01-30_16h20.15.887,untitled,2023.2.3,60.29799270272488,2024-01-30 16h46.08.983844 -0500,
,"[0, 0.2]",None,,,,,,,,,0.0,22.0,22.0,22.0,1947.307185800048,,,,,,,,,,,,,,,,,,,,,,,,,,,,,,,,,,,,,,,,,,,,,,,,,,,,,,,,,,,,,,,,,,1947.291436499916,1947.307185800048,1947.307185800048,1947.807468800107,1947.807468800107,1950.3071097000504,1950.3071097000504,1950.291721099988,None,1.0,,,,,,,nback77,1.0,2024-01-30_16h20.15.887,untitled,2023.2.3,60.29799270272488,2024-01-30 16h46.08.983844 -0500,
,"[0.64, -0.4]",None,,,,,,,,,0.0,23.0,23.0,23.0,1950.3071097000504,,,,,,,,,,,,,,,,,,,,,,,,,,,,,,,,,,,,,,,,,,,,,,,,,,,,,,,,,,,,,,,,,,1950.2925810001325,1950.3071097000504,1950.3071097000504,1950.8072889000175,1950.8072889000175,1953.307267199969,1953.307267199969,1953.2912035000045,None,1.0,,,,,,,nback77,1.0,2024-01-30_16h20.15.887,untitled,2023.2.3,60.29799270272488,2024-01-30 16h46.08.983844 -0500,
,"[0, 0.2]",space,,,,,,,,,0.0,24.0,24.0,24.0,1953.307267199969,,,,,,,,,,,,,,,,,,,,,,,,,,,,,,,,,,,,,,,,,,,,,,,,,,,,,,,,,,,,,,,,,,1953.2918615001252,1953.307267199969,1953.307267199969,1953.8073227999264,1953.8073227999264,1956.3072850999888,1956.3072850999888,1956.291373200016,space,1.0,0.3293620999902487,None,,,,,nback77,1.0,2024-01-30_16h20.15.887,untitled,2023.2.3,60.29799270272488,2024-01-30 16h46.08.983844 -0500,
,"[-0.2, 0.1]",None,,,,,,,,,0.0,25.0,25.0,25.0,1956.3072850999888,,,,,,,,,,,,,,,,,,,,,,,,,,,,,,,,,,,,,,,,,,,,,,,,,,,,,,,,,,,,,,,,,,1956.292256199988,1956.3072850999888,1956.3072850999888,1956.807163699996,1956.807163699996,1959.3071212000211,1959.3071212000211,1959.291613300098,None,1.0,,,,,,,nback77,1.0,2024-01-30_16h20.15.887,untitled,2023.2.3,60.29799270272488,2024-01-30 16h46.08.983844 -0500,
,"[0.3, 0]",None,,,,,,,,,0.0,26.0,26.0,26.0,1959.3071212000211,,,,,,,,,,,,,,,,,,,,,,,,,,,,,,,,,,,,,,,,,,,,,,,,,,,,,,,,,,,,,,,,,,1959.292419299949,1959.3071212000211,1959.3071212000211,1959.8073003001043,1959.8073003001043,1962.307305000024,1962.307305000024,1962.2914615001064,None,1.0,,,,,,,nback77,1.0,2024-01-30_16h20.15.887,untitled,2023.2.3,60.29799270272488,2024-01-30 16h46.08.983844 -0500,
,"[-0.2, 0.1]",space,,,,,,,,,0.0,27.0,27.0,27.0,1962.307305000024,,,,,,,,,,,,,,,,,,,,,,,,,,,,,,,,,,,,,,,,,,,,,,,,,,,,,,,,,,,,,,,,,,1962.2922376999632,1962.307305000024,1962.307305000024,1962.8071071000304,1962.8071071000304,1965.3070527000816,1965.3070527000816,1965.29078219994,space,1.0,0.3334326001349836,None,,,,,nback77,1.0,2024-01-30_16h20.15.887,untitled,2023.2.3,60.29799270272488,2024-01-30 16h46.08.983844 -0500,
,"[-0.2, 0.1]",None,,,,,,,,,0.0,28.0,28.0,28.0,1965.3070527000816,,,,,,,,,,,,,,,,,,,,,,,,,,,,,,,,,,,,,,,,,,,,,,,,,,,,,,,,,,,,,,,,,,1965.291499699932,1965.3070527000816,1965.3070527000816,1965.8070028999357,1965.8070028999357,1968.3070312000343,1968.3070312000343,1968.291589800036,None,1.0,,,,,,,nback77,1.0,2024-01-30_16h20.15.887,untitled,2023.2.3,60.29799270272488,2024-01-30 16h46.08.983844 -0500,
,"[0.2, 0.1]",None,,,,,,,,,0.0,29.0,29.0,29.0,1968.3070312000343,,,,,,,,,,,,,,,,,,,,,,,,,,,,,,,,,,,,,,,,,,,,,,,,,,,,,,,,,,,,,,,,,,1968.292425099993,1968.3070312000343,1968.3070312000343,1968.807171100052,1968.807171100052,1971.306798200123,1971.306798200123,1971.2905580000952,None,1.0,,,,,,,nback77,1.0,2024-01-30_16h20.15.887,untitled,2023.2.3,60.29799270272488,2024-01-30 16h46.08.983844 -0500,
,"[-0.64, -0.4]",None,,,,,,,,,0.0,30.0,30.0,30.0,1971.306798200123,,,,,,,,,,,,,,,,,,,,,,,,,,,,,,,,,,,,,,,,,,,,,,,,,,,,,,,,,,,,,,,,,,1971.2909010001456,1971.306798200123,1971.306798200123,1971.806902700104,1971.806902700104,1974.3069718999325,1974.3069718999325,1974.291397599969,None,1.0,,,,,,,nback77,1.0,2024-01-30_16h20.15.887,untitled,2023.2.3,60.29799270272488,2024-01-30 16h46.08.983844 -0500,
,"[0, -0.2]",None,,,,,,,,,0.0,31.0,31.0,31.0,1974.3069718999325,,,,,,,,,,,,,,,,,,,,,,,,,,,,,,,,,,,,,,,,,,,,,,,,,,,,,,,,,,,,,,,,,,1974.2922459000256,1974.3069718999325,1974.3069718999325,1974.8068884001116,1974.8068884001116,1977.3068999000825,1977.3068999000825,1977.291136099957,None,1.0,,,,,,,nback77,1.0,2024-01-30_16h20.15.887,untitled,2023.2.3,60.29799270272488,2024-01-30 16h46.08.983844 -0500,
,"[-0.64, -0.4]",space,,,,,,,,,0.0,32.0,32.0,32.0,1977.3068999000825,,,,,,,,,,,,,,,,,,,,,,,,,,,,,,,,,,,,,,,,,,,,,,,,,,,,,,,,,,,,,,,,,,1977.2918543000703,1977.3068999000825,1977.3068999000825,1977.807097400073,1977.807097400073,1980.3069575000557,1980.3069575000557,1980.291006000014,space,1.0,0.3092213999480009,None,,,,,nback77,1.0,2024-01-30_16h20.15.887,untitled,2023.2.3,60.29799270272488,2024-01-30 16h46.08.983844 -0500,
,"[0.64, 0.4]",None,,,,,,,,,0.0,33.0,33.0,33.0,1980.3069575000557,,,,,,,,,,,,,,,,,,,,,,,,,,,,,,,,,,,,,,,,,,,,,,,,,,,,,,,,,,,,,,,,,,1980.291880300036,1980.3069575000557,1980.3069575000557,1980.806846000021,1980.806846000021,1983.3068528999572,1983.3068528999572,1983.2909601000135,None,1.0,,,,,,,nback77,1.0,2024-01-30_16h20.15.887,untitled,2023.2.3,60.29799270272488,2024-01-30 16h46.08.983844 -0500,
,"[-0.3, 0]",None,,,,,,,,,0.0,34.0,34.0,34.0,1983.3068528999572,,,,,,,,,,,,,,,,,,,,,,,,,,,,,,,,,,,,,,,,,,,,,,,,,,,,,,,,,,,,,,,,,,1983.2916459999976,1983.3068528999572,1983.3068528999572,1983.8067065000068,1983.8067065000068,1986.3066678999455,1986.3066678999455,1986.2905103000808,None,1.0,,,,,,,nback77,1.0,2024-01-30_16h20.15.887,untitled,2023.2.3,60.29799270272488,2024-01-30 16h46.08.983844 -0500,
,"[0.3, 0]",None,,,,,,,,,0.0,35.0,35.0,35.0,1986.3066678999455,,,,,,,,,,,,,,,,,,,,,,,,,,,,,,,,,,,,,,,,,,,,,,,,,,,,,,,,,,,,,,,,,,1986.2911100001077,1986.3066678999455,1986.3066678999455,1986.8066426999867,1986.8066426999867,1989.306785700144,1989.306785700144,1989.29130910011,None,1.0,,,,,,,nback77,1.0,2024-01-30_16h20.15.887,untitled,2023.2.3,60.29799270272488,2024-01-30 16h46.08.983844 -0500,
,"[-0.3, 0]",space,,,,,,,,,0.0,36.0,36.0,36.0,1989.306785700144,,,,,,,,,,,,,,,,,,,,,,,,,,,,,,,,,,,,,,,,,,,,,,,,,,,,,,,,,,,,,,,,,,1989.2921378000171,1989.306785700144,1989.306785700144,1989.8066263000944,1989.8066263000944,1992.306482099928,1992.306482099928,1992.2904970999807,space,1.0,0.3076305999420583,None,,,,,nback77,1.0,2024-01-30_16h20.15.887,untitled,2023.2.3,60.29799270272488,2024-01-30 16h46.08.983844 -0500,
,"[0, -0.2]",None,,,,,,,,,0.0,37.0,37.0,37.0,1992.306482099928,,,,,,,,,,,,,,,,,,,,,,,,,,,,,,,,,,,,,,,,,,,,,,,,,,,,,,,,,,,,,,,,,,1992.2913045999596,1992.306482099928,1992.306482099928,1992.8066382000688,1992.8066382000688,1995.30656190007,1995.30656190007,1995.2906740999315,None,1.0,,,,,,,nback77,1.0,2024-01-30_16h20.15.887,untitled,2023.2.3,60.29799270272488,2024-01-30 16h46.08.983844 -0500,
,"[0.3, 0]",None,,,,,,,,,0.0,38.0,38.0,38.0,1995.30656190007,,,,,,,,,,,,,,,,,,,,,,,,,,,,,,,,,,,,,,,,,,,,,,,,,,,,,,,,,,,,,,,,,,1995.291338100098,1995.30656190007,1995.30656190007,1995.806583200116,1995.806583200116,1998.3066166001367,1998.3066166001367,1998.2908920000773,None,1.0,,,,,,,nback77,1.0,2024-01-30_16h20.15.887,untitled,2023.2.3,60.29799270272488,2024-01-30 16h46.08.983844 -0500,
,"[0.2, 0.1]",None,,,,,,,,,0.0,39.0,39.0,39.0,1998.3066166001367,,,,,,,,,,,,,,,,,,,,,,,,,,,,,,,,,,,,,,,,,,,,,,,,,,,,,,,,,,,,,,,,,,1998.2917120000347,1998.3066166001367,1998.3066166001367,1998.806475999998,1998.806475999998,2001.3063785999548,2001.3063785999548,2001.2906806999815,None,1.0,,,,,,,nback77,1.0,2024-01-30_16h20.15.887,untitled,2023.2.3,60.29799270272488,2024-01-30 16h46.08.983844 -0500,
,,,,,,,,,,,,,,,,,,,,,,,,,,,,,,,,,,,,,,,,,,,,,,,,,,,,,,,,,,,,,,,,,,,,,,,,,,,,,,,,,,,,,,,,,,,,,2001.291107400088,2001.3063785999548,2004.30642300006,2004.2904722001404,,,,,,,,
