square,location,corrAns,trials_0.thisRepN,trials_0.thisTrialN,trials_0.thisN,trials_0.thisIndex,trials_1.thisRepN,trials_1.thisTrialN,trials_1.thisN,trials_1.thisIndex,trials_2.thisRepN,trials_2.thisTrialN,trials_2.thisN,trials_2.thisIndex,thisRow.t,notes,Instructions.started,instructions.started,key_resp.started,inst_sq11.started,Instructions.stopped,key_resp.keys,key_resp.rt,key_resp.duration,All.started,sq_1.started,sq_2.started,sq_3.started,sq_4.started,sq_5.started,sq_6.started,sq_7.started,sq_8.started,sq_9.started,sq_10.started,sq_11.started,sq_12.started,All.stopped,Fixation.started,fixation_3.started,fixation_3.stopped,Fixation.stopped,N_back_0_Trial.started,target_square_0.started,response_0.started,fixation_0.started,target_square_0.stopped,fixation_0.stopped,N_back_0_Trial.stopped,response_0.keys,response_0.corr,response_0.rt,response_0.duration,Instructions_1.started,instructions_1.started,key_resp_1.started,Instructions_1.stopped,key_resp_1.keys,key_resp_1.rt,key_resp_1.duration,N_back_1_Trial.started,target_square_1.started,response_1.started,target_square_1.stopped,fixation_1.started,fixation_1.stopped,response_1.stopped,N_back_1_Trial.stopped,response_1.keys,response_1.corr,response_1.rt,response_1.duration,Instructions_2.started,instructions_2.started,key_resp_2.started,Instructions_2.stopped,key_resp_2.keys,key_resp_2.rt,key_resp_2.duration,N_back_2_trials.started,target_square_2.started,response_2.started,target_square_2.stopped,fixation_2.started,fixation_2.stopped,response_2.stopped,N_back_2_trials.stopped,response_2.keys,response_2.corr,response_2.rt,response_2.duration,End.started,thank_you.started,End.stopped,participant,session,date,expName,psychopyVersion,frameRate,expStart,Unnamed: 102
,,,,,,,,,,,,,,,,,0.0016354999970644,0.0044592999911401,0.0044592999911401,0.0044592999911401,2427.498266299983,space,2427.4894099000085,None,,,,,,,,,,,,,,,,,,,,,,,,,,,,,,,,,,,,,,,,,,,,,,,,,,,,,,,,,,,,,,,,,,,,,,,nback35,1.0,2023-12-18_15h48.45.427,untitled,2023.2.3,60.02123551411256,2023-12-18 16h21.44.030381 -0500,
6.0,"[-0.3, 0]",None,0.0,0.0,0.0,0.0,,,,,,,,,2429.513976599992,,,,,,,,,,2427.498332899966,2427.512520899967,2427.512520899967,2427.512520899967,2427.512520899967,2427.512520899967,2427.512520899967,2427.512520899967,2427.512520899967,2427.512520899967,2427.512520899967,2427.512520899967,2427.512520899967,2428.496523799986,2428.4965446999704,2428.512447699992,2429.513976599992,2429.496833000012,2429.511978399969,2429.513976599992,2429.513976599992,2429.9959226000065,2430.0289796999714,2432.4955299999856,2432.5123168999853,None,1.0,,,,,,,,,,,,,,,,,,,,,,,,,,,,,,,,,,,,,,,,,,,,nback35,1.0,2023-12-18_15h48.45.427,untitled,2023.2.3,60.02123551411256,2023-12-18 16h21.44.030381 -0500,
10.0,"[0, -0.2]",None,0.0,1.0,1.0,1.0,,,,,,,,,2432.528955999965,,,,,,,,,,,,,,,,,,,,,,,,,,,,2432.5129829999933,2432.528955999965,2432.528955999965,2432.995616500004,2433.028882399987,2435.495688999974,2435.5125275000173,None,1.0,,,,,,,,,,,,,,,,,,,,,,,,,,,,,,,,,,,,,,,,,,,,nback35,1.0,2023-12-18_15h48.45.427,untitled,2023.2.3,60.02123551411256,2023-12-18 16h21.44.030381 -0500,
11.0,"[-0.64, -0.4]",space,0.0,2.0,2.0,2.0,,,,,,,,,2435.52897319998,,,,,,,,,,,,,,,,,,,,,,,,,,,,2435.513204799994,2435.52897319998,2435.52897319998,2435.995837099996,2436.028996499983,2438.4957583999785,2438.512512000016,space,1.0,0.4837369999731891,None,,,,,,,,,,,,,,,,,,,,,,,,,,,,,,,,,,,,,,,,,,nback35,1.0,2023-12-18_15h48.45.427,untitled,2023.2.3,60.02123551411256,2023-12-18 16h21.44.030381 -0500,
12.0,"[0.64, -0.4]",None,0.0,3.0,3.0,3.0,,,,,,,,,2438.5290903999994,,,,,,,,,,,,,,,,,,,,,,,,,,,,2438.513550500007,2438.5290903999994,2438.5290903999994,2439.012447199988,2439.029167600005,2441.512415699981,2441.5126011999964,None,1.0,,,,,,,,,,,,,,,,,,,,,,,,,,,,,,,,,,,,,,,,,,,,nback35,1.0,2023-12-18_15h48.45.427,untitled,2023.2.3,60.02123551411256,2023-12-18 16h21.44.030381 -0500,
1.0,"[-0.64, 0.4]",None,0.0,4.0,4.0,4.0,,,,,,,,,2441.5289957999776,,,,,,,,,,,,,,,,,,,,,,,,,,,,2441.5133580999973,2441.5289957999776,2441.5289957999776,2441.9957657999767,2442.0290049999894,2444.495729699993,2444.5127252000093,None,1.0,,,,,,,,,,,,,,,,,,,,,,,,,,,,,,,,,,,,,,,,,,,,nback35,1.0,2023-12-18_15h48.45.427,untitled,2023.2.3,60.02123551411256,2023-12-18 16h21.44.030381 -0500,
1.0,"[-0.64, 0.4]",None,0.0,5.0,5.0,5.0,,,,,,,,,2444.528909400018,,,,,,,,,,,,,,,,,,,,,,,,,,,,2444.513618099998,2444.528909400018,2444.528909400018,2444.9955353999685,2445.028981899988,2447.495723600005,2447.512477399985,None,1.0,,,,,,,,,,,,,,,,,,,,,,,,,,,,,,,,,,,,,,,,,,,,nback35,1.0,2023-12-18_15h48.45.427,untitled,2023.2.3,60.02123551411256,2023-12-18 16h21.44.030381 -0500,
4.0,"[-0.2, 0.1]",None,0.0,6.0,6.0,6.0,,,,,,,,,2447.5288603999943,,,,,,,,,,,,,,,,,,,,,,,,,,,,2447.513410399988,2447.5288603999943,2447.5288603999943,2447.995697299979,2448.028896599979,2450.495592499996,2450.5124443999666,None,1.0,,,,,,,,,,,,,,,,,,,,,,,,,,,,,,,,,,,,,,,,,,,,nback35,1.0,2023-12-18_15h48.45.427,untitled,2023.2.3,60.02123551411256,2023-12-18 16h21.44.030381 -0500,
5.0,"[0.2, 0.1]",None,0.0,7.0,7.0,7.0,,,,,,,,,2450.528726099961,,,,,,,,,,,,,,,,,,,,,,,,,,,,2450.5131463000143,2450.528726099961,2450.528726099961,2451.012307799974,2451.02882159999,2453.512119299994,2453.512281500007,None,1.0,,,,,,,,,,,,,,,,,,,,,,,,,,,,,,,,,,,,,,,,,,,,nback35,1.0,2023-12-18_15h48.45.427,untitled,2023.2.3,60.02123551411256,2023-12-18 16h21.44.030381 -0500,
11.0,"[-0.64, -0.4]",space,0.0,8.0,8.0,8.0,,,,,,,,,2453.5287197999714,,,,,,,,,,,,,,,,,,,,,,,,,,,,2453.5129103999643,2453.5287197999714,2453.5287197999714,2454.012085799972,2454.0286889999697,2456.5120241999684,2456.5122221999627,space,1.0,0.3028091000160202,None,,,,,,,,,,,,,,,,,,,,,,,,,,,,,,,,,,,,,,,,,,nback35,1.0,2023-12-18_15h48.45.427,untitled,2023.2.3,60.02123551411256,2023-12-18 16h21.44.030381 -0500,
9.0,"[0.2, -0.1]",None,0.0,9.0,9.0,9.0,,,,,,,,,2456.528727799974,,,,,,,,,,,,,,,,,,,,,,,,,,,,2456.513143499993,2456.528727799974,2456.528727799974,2457.012070799974,2457.0286422999634,2459.5118877999776,2459.5120383000176,None,1.0,,,,,,,,,,,,,,,,,,,,,,,,,,,,,,,,,,,,,,,,,,,,nback35,1.0,2023-12-18_15h48.45.427,untitled,2023.2.3,60.02123551411256,2023-12-18 16h21.44.030381 -0500,
8.0,"[-0.2, -0.1]",None,0.0,10.0,10.0,10.0,,,,,,,,,2459.528686800011,,,,,,,,,,,,,,,,,,,,,,,,,,,,2459.512784599996,2459.528686800011,2459.528686800011,2460.012066299998,2460.0287428999727,2462.512098700012,2462.51231489997,None,1.0,,,,,,,,,,,,,,,,,,,,,,,,,,,,,,,,,,,,,,,,,,,,nback35,1.0,2023-12-18_15h48.45.427,untitled,2023.2.3,60.02123551411256,2023-12-18 16h21.44.030381 -0500,
9.0,"[0.2, -0.1]",None,0.0,11.0,11.0,11.0,,,,,,,,,2462.528540900006,,,,,,,,,,,,,,,,,,,,,,,,,,,,2462.5130885999824,2462.528540900006,2462.528540900006,2463.012073699996,2463.0287449999887,2465.511976400012,2465.512141799991,None,1.0,,,,,,,,,,,,,,,,,,,,,,,,,,,,,,,,,,,,,,,,,,,,nback35,1.0,2023-12-18_15h48.45.427,untitled,2023.2.3,60.02123551411256,2023-12-18 16h21.44.030381 -0500,
6.0,"[-0.3, 0]",None,0.0,12.0,12.0,12.0,,,,,,,,,2465.5285338000103,,,,,,,,,,,,,,,,,,,,,,,,,,,,2465.512942099973,2465.5285338000103,2465.5285338000103,2466.0120030999824,2466.028762300004,2468.511861600011,2468.512042999995,None,1.0,,,,,,,,,,,,,,,,,,,,,,,,,,,,,,,,,,,,,,,,,,,,nback35,1.0,2023-12-18_15h48.45.427,untitled,2023.2.3,60.02123551411256,2023-12-18 16h21.44.030381 -0500,
9.0,"[0.2, -0.1]",None,0.0,13.0,13.0,13.0,,,,,,,,,2468.5286392999988,,,,,,,,,,,,,,,,,,,,,,,,,,,,2468.512757199962,2468.5286392999988,2468.5286392999988,2469.011859399994,2469.028412999964,2471.51187279998,2471.512049699988,None,1.0,,,,,,,,,,,,,,,,,,,,,,,,,,,,,,,,,,,,,,,,,,,,nback35,1.0,2023-12-18_15h48.45.427,untitled,2023.2.3,60.02123551411256,2023-12-18 16h21.44.030381 -0500,
7.0,"[0.3, 0]",None,0.0,14.0,14.0,14.0,,,,,,,,,2471.528488700016,,,,,,,,,,,,,,,,,,,,,,,,,,,,2471.5127743999765,2471.528488700016,2471.528488700016,2472.011842099979,2472.028476799984,2474.511776,2474.511945200007,None,1.0,,,,,,,,,,,,,,,,,,,,,,,,,,,,,,,,,,,,,,,,,,,,nback35,1.0,2023-12-18_15h48.45.427,untitled,2023.2.3,60.02123551411256,2023-12-18 16h21.44.030381 -0500,
2.0,"[0.64, 0.4]",None,0.0,15.0,15.0,15.0,,,,,,,,,2474.5284599999723,,,,,,,,,,,,,,,,,,,,,,,,,,,,2474.5126952000137,2474.5284599999723,2474.5284599999723,2475.011790799996,2475.028251700016,2477.5117215999926,2477.51190339998,None,1.0,,,,,,,,,,,,,,,,,,,,,,,,,,,,,,,,,,,,,,,,,,,,nback35,1.0,2023-12-18_15h48.45.427,untitled,2023.2.3,60.02123551411256,2023-12-18 16h21.44.030381 -0500,
2.0,"[0.64, 0.4]",None,0.0,16.0,16.0,16.0,,,,,,,,,2477.5282183999952,,,,,,,,,,,,,,,,,,,,,,,,,,,,2477.51261060001,2477.5282183999952,2477.5282183999952,2478.011594600015,2478.028457000008,2480.5115786000097,2480.511703599972,None,1.0,,,,,,,,,,,,,,,,,,,,,,,,,,,,,,,,,,,,,,,,,,,,nback35,1.0,2023-12-18_15h48.45.427,untitled,2023.2.3,60.02123551411256,2023-12-18 16h21.44.030381 -0500,
11.0,"[-0.64, -0.4]",space,0.0,17.0,17.0,17.0,,,,,,,,,2480.5280864999804,,,,,,,,,,,,,,,,,,,,,,,,,,,,2480.5121609999624,2480.5280864999804,2480.5280864999804,2481.01162059998,2481.0282828999625,2483.511582199979,2483.5117517999897,space,1.0,0.4534577000304125,None,,,,,,,,,,,,,,,,,,,,,,,,,,,,,,,,,,,,,,,,,,nback35,1.0,2023-12-18_15h48.45.427,untitled,2023.2.3,60.02123551411256,2023-12-18 16h21.44.030381 -0500,
11.0,"[-0.64, -0.4]",space,0.0,18.0,18.0,18.0,,,,,,,,,2483.5282841999724,,,,,,,,,,,,,,,,,,,,,,,,,,,,2483.5125919999846,2483.5282841999724,2483.5282841999724,2484.0116116999707,2484.028250600008,2486.5116022000147,2486.511826599977,space,1.0,0.7936790999956429,None,,,,,,,,,,,,,,,,,,,,,,,,,,,,,,,,,,,,,,,,,,nback35,1.0,2023-12-18_15h48.45.427,untitled,2023.2.3,60.02123551411256,2023-12-18 16h21.44.030381 -0500,
7.0,"[0.3, 0]",None,0.0,19.0,19.0,19.0,,,,,,,,,2486.528114899964,,,,,,,,,,,,,,,,,,,,,,,,,,,,2486.5127072999894,2486.528114899964,2486.528114899964,2487.011484399991,2487.028134399996,2489.5115980999835,2489.511772799975,None,1.0,,,,,,,,,,,,,,,,,,,,,,,,,,,,,,,,,,,,,,,,,,,,nback35,1.0,2023-12-18_15h48.45.427,untitled,2023.2.3,60.02123551411256,2023-12-18 16h21.44.030381 -0500,
3.0,"[0, 0.2]",None,0.0,20.0,20.0,20.0,,,,,,,,,2489.528092399967,,,,,,,,,,,,,,,,,,,,,,,,,,,,2489.512443200016,2489.528092399967,2489.528092399967,2490.0114875000145,2490.028171699989,2492.511455700005,2492.5115914999915,None,1.0,,,,,,,,,,,,,,,,,,,,,,,,,,,,,,,,,,,,,,,,,,,,nback35,1.0,2023-12-18_15h48.45.427,untitled,2023.2.3,60.02123551411256,2023-12-18 16h21.44.030381 -0500,
10.0,"[0, -0.2]",None,0.0,21.0,21.0,21.0,,,,,,,,,2492.527990500006,,,,,,,,,,,,,,,,,,,,,,,,,,,,2492.511995399982,2492.527990500006,2492.527990500006,2493.0112952000054,2493.0279513999994,2495.511532000004,2495.5117563999665,None,1.0,,,,,,,,,,,,,,,,,,,,,,,,,,,,,,,,,,,,,,,,,,,,nback35,1.0,2023-12-18_15h48.45.427,untitled,2023.2.3,60.02123551411256,2023-12-18 16h21.44.030381 -0500,
1.0,"[-0.64, 0.4]",None,0.0,22.0,22.0,22.0,,,,,,,,,2495.527966900001,,,,,,,,,,,,,,,,,,,,,,,,,,,,2495.5125498000125,2495.527966900001,2495.527966900001,2496.011359899974,2496.028052900016,2498.511456100008,2498.5116818999813,None,1.0,,,,,,,,,,,,,,,,,,,,,,,,,,,,,,,,,,,,,,,,,,,,nback35,1.0,2023-12-18_15h48.45.427,untitled,2023.2.3,60.02123551411256,2023-12-18 16h21.44.030381 -0500,
2.0,"[0.64, 0.4]",None,0.0,23.0,23.0,23.0,,,,,,,,,2498.527980099985,,,,,,,,,,,,,,,,,,,,,,,,,,,,2498.5124417000043,2498.527980099985,2498.527980099985,2499.011237699975,2499.0279807999905,2501.5114012999984,2501.511653499998,None,1.0,,,,,,,,,,,,,,,,,,,,,,,,,,,,,,,,,,,,,,,,,,,,nback35,1.0,2023-12-18_15h48.45.427,untitled,2023.2.3,60.02123551411256,2023-12-18 16h21.44.030381 -0500,
6.0,"[-0.3, 0]",None,0.0,24.0,24.0,24.0,,,,,,,,,2501.527835999994,,,,,,,,,,,,,,,,,,,,,,,,,,,,2501.51247039999,2501.527835999994,2501.527835999994,2502.0112391999864,2502.027786899969,2504.5113054999674,2504.5115011000016,None,1.0,,,,,,,,,,,,,,,,,,,,,,,,,,,,,,,,,,,,,,,,,,,,nback35,1.0,2023-12-18_15h48.45.427,untitled,2023.2.3,60.02123551411256,2023-12-18 16h21.44.030381 -0500,
3.0,"[0, 0.2]",None,0.0,25.0,25.0,25.0,,,,,,,,,2504.5277568999736,,,,,,,,,,,,,,,,,,,,,,,,,,,,2504.5121477999783,2504.5277568999736,2504.5277568999736,2505.011160999973,2505.0278688000108,2507.5111651000043,2507.5113459999848,None,1.0,,,,,,,,,,,,,,,,,,,,,,,,,,,,,,,,,,,,,,,,,,,,nback35,1.0,2023-12-18_15h48.45.427,untitled,2023.2.3,60.02123551411256,2023-12-18 16h21.44.030381 -0500,
11.0,"[-0.64, -0.4]",space,0.0,26.0,26.0,26.0,,,,,,,,,2507.5277955999773,,,,,,,,,,,,,,,,,,,,,,,,,,,,2507.5120543999656,2507.5277955999773,2507.5277955999773,2508.0111187,2508.027932999976,2510.5111028999963,2510.5112834999745,space,1.0,0.3353725000051781,None,,,,,,,,,,,,,,,,,,,,,,,,,,,,,,,,,,,,,,,,,,nback35,1.0,2023-12-18_15h48.45.427,untitled,2023.2.3,60.02123551411256,2023-12-18 16h21.44.030381 -0500,
1.0,"[-0.64, 0.4]",None,0.0,27.0,27.0,27.0,,,,,,,,,2510.527874099993,,,,,,,,,,,,,,,,,,,,,,,,,,,,2510.5121273999976,2510.527874099993,2510.527874099993,2511.0111519999627,2511.027782199992,2513.5109987999604,2513.51118880001,None,1.0,,,,,,,,,,,,,,,,,,,,,,,,,,,,,,,,,,,,,,,,,,,,nback35,1.0,2023-12-18_15h48.45.427,untitled,2023.2.3,60.02123551411256,2023-12-18 16h21.44.030381 -0500,
3.0,"[0, 0.2]",None,0.0,28.0,28.0,28.0,,,,,,,,,2513.527728899993,,,,,,,,,,,,,,,,,,,,,,,,,,,,2513.511880999984,2513.527728899993,2513.527728899993,2514.011000699975,2514.0276055999857,2516.511064499995,2516.511255899997,None,1.0,,,,,,,,,,,,,,,,,,,,,,,,,,,,,,,,,,,,,,,,,,,,nback35,1.0,2023-12-18_15h48.45.427,untitled,2023.2.3,60.02123551411256,2023-12-18 16h21.44.030381 -0500,
9.0,"[0.2, -0.1]",None,0.0,29.0,29.0,29.0,,,,,,,,,2516.5276226999995,,,,,,,,,,,,,,,,,,,,,,,,,,,,2516.5120192999893,2516.5276226999995,2516.5276226999995,2517.0109577999974,2517.0276666999853,2519.511043800012,2519.5112198000134,None,1.0,,,,,,,,,,,,,,,,,,,,,,,,,,,,,,,,,,,,,,,,,,,,nback35,1.0,2023-12-18_15h48.45.427,untitled,2023.2.3,60.02123551411256,2023-12-18 16h21.44.030381 -0500,
8.0,"[-0.2, -0.1]",None,0.0,30.0,30.0,30.0,,,,,,,,,2519.5276197999774,,,,,,,,,,,,,,,,,,,,,,,,,,,,2519.511930700013,2519.5276197999774,2519.5276197999774,2520.010952100012,2520.027521299984,2522.5109866999846,2522.5111659000104,None,1.0,,,,,,,,,,,,,,,,,,,,,,,,,,,,,,,,,,,,,,,,,,,,nback35,1.0,2023-12-18_15h48.45.427,untitled,2023.2.3,60.02123551411256,2023-12-18 16h21.44.030381 -0500,
12.0,"[0.64, -0.4]",None,0.0,31.0,31.0,31.0,,,,,,,,,2522.5277108999726,,,,,,,,,,,,,,,,,,,,,,,,,,,,2522.5118587999896,2522.5277108999726,2522.5277108999726,2523.010816099966,2523.027548400016,2525.5108148000145,2525.5109811,None,1.0,,,,,,,,,,,,,,,,,,,,,,,,,,,,,,,,,,,,,,,,,,,,nback35,1.0,2023-12-18_15h48.45.427,untitled,2023.2.3,60.02123551411256,2023-12-18 16h21.44.030381 -0500,
9.0,"[0.2, -0.1]",None,0.0,32.0,32.0,32.0,,,,,,,,,2525.527358499967,,,,,,,,,,,,,,,,,,,,,,,,,,,,2525.511635999981,2525.527358499967,2525.527358499967,2526.0108114999894,2526.027509300009,2528.5108281,2528.5110200000054,None,1.0,,,,,,,,,,,,,,,,,,,,,,,,,,,,,,,,,,,,,,,,,,,,nback35,1.0,2023-12-18_15h48.45.427,untitled,2023.2.3,60.02123551411256,2023-12-18 16h21.44.030381 -0500,
11.0,"[-0.64, -0.4]",space,0.0,33.0,33.0,33.0,,,,,,,,,2528.5275758999924,,,,,,,,,,,,,,,,,,,,,,,,,,,,2528.511741699971,2528.5275758999924,2528.5275758999924,2529.0107708999712,2529.0275412999617,2531.5108148000145,2531.511017599987,space,1.0,0.3805339999962598,None,,,,,,,,,,,,,,,,,,,,,,,,,,,,,,,,,,,,,,,,,,nback35,1.0,2023-12-18_15h48.45.427,untitled,2023.2.3,60.02123551411256,2023-12-18 16h21.44.030381 -0500,
7.0,"[0.3, 0]",None,0.0,34.0,34.0,34.0,,,,,,,,,2531.52735889997,,,,,,,,,,,,,,,,,,,,,,,,,,,,2531.5119581999897,2531.52735889997,2531.52735889997,2532.0108910000126,2532.027334799961,2534.51071719997,2534.5109200000006,None,1.0,,,,,,,,,,,,,,,,,,,,,,,,,,,,,,,,,,,,,,,,,,,,nback35,1.0,2023-12-18_15h48.45.427,untitled,2023.2.3,60.02123551411256,2023-12-18 16h21.44.030381 -0500,
11.0,"[-0.64, -0.4]",space,0.0,35.0,35.0,35.0,,,,,,,,,2534.5275534999964,,,,,,,,,,,,,,,,,,,,,,,,,,,,2534.5116883999726,2534.5275534999964,2534.5275534999964,2535.0106685000064,2535.027350499964,2537.510603299976,2537.5107542999613,space,1.0,0.4183098000357859,None,,,,,,,,,,,,,,,,,,,,,,,,,,,,,,,,,,,,,,,,,,nback35,1.0,2023-12-18_15h48.45.427,untitled,2023.2.3,60.02123551411256,2023-12-18 16h21.44.030381 -0500,
4.0,"[-0.2, 0.1]",None,0.0,36.0,36.0,36.0,,,,,,,,,2537.527247399994,,,,,,,,,,,,,,,,,,,,,,,,,,,,2537.5115312999988,2537.527247399994,2537.527247399994,2538.0108147000137,2538.027352699981,2540.510496299976,2540.510746999964,None,1.0,,,,,,,,,,,,,,,,,,,,,,,,,,,,,,,,,,,,,,,,,,,,nback35,1.0,2023-12-18_15h48.45.427,untitled,2023.2.3,60.02123551411256,2023-12-18 16h21.44.030381 -0500,
5.0,"[0.2, 0.1]",None,0.0,37.0,37.0,37.0,,,,,,,,,2540.527159499965,,,,,,,,,,,,,,,,,,,,,,,,,,,,2540.5114650999603,2540.527159499965,2540.527159499965,2541.0104792999628,2541.027250999963,2543.51062549997,2543.510814500012,None,1.0,,,,,,,,,,,,,,,,,,,,,,,,,,,,,,,,,,,,,,,,,,,,nback35,1.0,2023-12-18_15h48.45.427,untitled,2023.2.3,60.02123551411256,2023-12-18 16h21.44.030381 -0500,
6.0,"[-0.3, 0]",None,0.0,38.0,38.0,38.0,,,,,,,,,2543.5271790999977,,,,,,,,,,,,,,,,,,,,,,,,,,,,2543.511525500013,2543.5271790999977,2543.5271790999977,2544.0104892999807,2544.026997900015,2546.510468199994,2546.510663999972,None,1.0,,,,,,,,,,,,,,,,,,,,,,,,,,,,,,,,,,,,,,,,,,,,nback35,1.0,2023-12-18_15h48.45.427,untitled,2023.2.3,60.02123551411256,2023-12-18 16h21.44.030381 -0500,
11.0,"[-0.64, -0.4]",space,0.0,39.0,39.0,39.0,,,,,,,,,2546.5272076999827,,,,,,,,,,,,,,,,,,,,,,,,,,,,2546.511496299965,2546.5272076999827,2546.5272076999827,2547.010369399999,2547.027062299981,2549.5106000000087,2549.510809599975,space,1.0,0.4158321000286378,None,,,,,,,,,,,,,,,,,,,,,,,,,,,,,,,,,,,,,,,,,,nback35,1.0,2023-12-18_15h48.45.427,untitled,2023.2.3,60.02123551411256,2023-12-18 16h21.44.030381 -0500,
,,,,,,,,,,,,,,,,,,,,,,,,,,,,,,,,,,,,,,,,,,,,,,,,,,,,,,2549.5116086000053,2549.5271739000164,2549.5271739000164,2596.844207899965,space,47.30704799998784,None,,,,,,,,,,,,,,,,,,,,,,,,,,,,,,,,,,,nback35,1.0,2023-12-18_15h48.45.427,untitled,2023.2.3,60.02123551411256,2023-12-18 16h21.44.030381 -0500,
10.0,"[0, -0.2]",None,,,,,0.0,0.0,0.0,0.0,,,,,2597.8595694999967,,,,,,,,,,,,,,,,,,,,,,,,2596.844242799998,2596.8594915999856,2597.8595694999967,2597.84366709998,,,,,,,,,,,,,,,,,,,2597.8549182999704,2597.8595694999967,2597.8595694999967,2598.359552699985,2598.359552699985,2600.8595744999766,2600.8595744999766,2600.843902099965,None,1.0,,,,,,,,,,,,,,,,,,,,,,,,,nback35,1.0,2023-12-18_15h48.45.427,untitled,2023.2.3,60.02123551411256,2023-12-18 16h21.44.030381 -0500,
5.0,"[0.2, 0.1]",None,,,,,0.0,1.0,1.0,1.0,,,,,2600.8595744999766,,,,,,,,,,,,,,,,,,,,,,,,,,,,,,,,,,,,,,,,,,,,,,2600.8449158000003,2600.8595744999766,2600.8595744999766,2601.359626499965,2601.359626499965,2603.8595296999847,2603.8595296999847,2603.8438354999817,None,1.0,,,,,,,,,,,,,,,,,,,,,,,,,nback35,1.0,2023-12-18_15h48.45.427,untitled,2023.2.3,60.02123551411256,2023-12-18 16h21.44.030381 -0500,
6.0,"[-0.3, 0]",None,,,,,0.0,2.0,2.0,2.0,,,,,2603.8595296999847,,,,,,,,,,,,,,,,,,,,,,,,,,,,,,,,,,,,,,,,,,,,,,2603.84466219999,2603.8595296999847,2603.8595296999847,2604.359715800005,2604.359715800005,2606.8593775999907,2606.8593775999907,2606.843206299964,None,1.0,,,,,,,,,,,,,,,,,,,,,,,,,nback35,1.0,2023-12-18_15h48.45.427,untitled,2023.2.3,60.02123551411256,2023-12-18 16h21.44.030381 -0500,
6.0,"[-0.3, 0]",space,,,,,0.0,3.0,3.0,3.0,,,,,2606.8593775999907,,,,,,,,,,,,,,,,,,,,,,,,,,,,,,,,,,,,,,,,,,,,,,2606.843687100016,2606.8593775999907,2606.8593775999907,2607.359406399977,2607.359406399977,2609.85944239996,2609.85944239996,2609.8430176999827,space,1.0,0.2909438000060618,None,,,,,,,,,,,,,,,,,,,,,,,nback35,1.0,2023-12-18_15h48.45.427,untitled,2023.2.3,60.02123551411256,2023-12-18 16h21.44.030381 -0500,
12.0,"[0.64, -0.4]",None,,,,,0.0,4.0,4.0,4.0,,,,,2609.85944239996,,,,,,,,,,,,,,,,,,,,,,,,,,,,,,,,,,,,,,,,,,,,,,2609.843461499986,2609.85944239996,2609.85944239996,2610.3594486000075,2610.3594486000075,2612.859358100017,2612.859358100017,2612.8438964999805,None,1.0,,,,,,,,,,,,,,,,,,,,,,,,,nback35,1.0,2023-12-18_15h48.45.427,untitled,2023.2.3,60.02123551411256,2023-12-18 16h21.44.030381 -0500,
10.0,"[0, -0.2]",None,,,,,0.0,5.0,5.0,5.0,,,,,2612.859358100017,,,,,,,,,,,,,,,,,,,,,,,,,,,,,,,,,,,,,,,,,,,,,,2612.8447312999924,2612.859358100017,2612.859358100017,2613.359471600008,2613.359471600008,2615.8593026000017,2615.8593026000017,2615.8437127999787,None,1.0,,,,,,,,,,,,,,,,,,,,,,,,,nback35,1.0,2023-12-18_15h48.45.427,untitled,2023.2.3,60.02123551411256,2023-12-18 16h21.44.030381 -0500,
2.0,"[0.64, 0.4]",None,,,,,0.0,6.0,6.0,6.0,,,,,2615.8593026000017,,,,,,,,,,,,,,,,,,,,,,,,,,,,,,,,,,,,,,,,,,,,,,2615.8444888000085,2615.8593026000017,2615.8593026000017,2616.3592931999883,2616.3592931999883,2618.859240199992,2618.859240199992,2618.8437249000126,None,1.0,,,,,,,,,,,,,,,,,,,,,,,,,nback35,1.0,2023-12-18_15h48.45.427,untitled,2023.2.3,60.02123551411256,2023-12-18 16h21.44.030381 -0500,
9.0,"[0.2, -0.1]",None,,,,,0.0,7.0,7.0,7.0,,,,,2618.859240199992,,,,,,,,,,,,,,,,,,,,,,,,,,,,,,,,,,,,,,,,,,,,,,2618.844447299984,2618.859240199992,2618.859240199992,2619.3592976999644,2619.3592976999644,2621.8591563999944,2621.8591563999944,2621.843479400006,None,1.0,,,,,,,,,,,,,,,,,,,,,,,,,nback35,1.0,2023-12-18_15h48.45.427,untitled,2023.2.3,60.02123551411256,2023-12-18 16h21.44.030381 -0500,
9.0,"[0.2, -0.1]",space,,,,,0.0,8.0,8.0,8.0,,,,,2621.8591563999944,,,,,,,,,,,,,,,,,,,,,,,,,,,,,,,,,,,,,,,,,,,,,,2621.8441779999703,2621.8591563999944,2621.8591563999944,2622.3594560000056,2622.3594560000056,2624.85899790001,2624.85899790001,2624.84307979999,space,1.0,0.3488662000163458,None,,,,,,,,,,,,,,,,,,,,,,,nback35,1.0,2023-12-18_15h48.45.427,untitled,2023.2.3,60.02123551411256,2023-12-18 16h21.44.030381 -0500,
6.0,"[-0.3, 0]",None,,,,,0.0,9.0,9.0,9.0,,,,,2624.85899790001,,,,,,,,,,,,,,,,,,,,,,,,,,,,,,,,,,,,,,,,,,,,,,2624.8438245000143,2624.85899790001,2624.85899790001,2625.359257300006,2625.359257300006,2627.859007399966,2627.859007399966,2627.842861899961,None,1.0,,,,,,,,,,,,,,,,,,,,,,,,,nback35,1.0,2023-12-18_15h48.45.427,untitled,2023.2.3,60.02123551411256,2023-12-18 16h21.44.030381 -0500,
11.0,"[-0.64, -0.4]",None,,,,,0.0,10.0,10.0,10.0,,,,,2627.859007399966,,,,,,,,,,,,,,,,,,,,,,,,,,,,,,,,,,,,,,,,,,,,,,2627.843291899975,2627.859007399966,2627.859007399966,2628.358937800018,2628.358937800018,2630.858977499971,2630.858977499971,2630.8432202000117,None,1.0,,,,,,,,,,,,,,,,,,,,,,,,,nback35,1.0,2023-12-18_15h48.45.427,untitled,2023.2.3,60.02123551411256,2023-12-18 16h21.44.030381 -0500,
11.0,"[-0.64, -0.4]",space,,,,,0.0,11.0,11.0,11.0,,,,,2630.858977499971,,,,,,,,,,,,,,,,,,,,,,,,,,,,,,,,,,,,,,,,,,,,,,2630.8438790999644,2630.858977499971,2630.858977499971,2631.359020600008,2631.359020600008,2633.858945599961,2633.858945599961,2633.84304789998,space,1.0,0.3455479000112973,None,,,,,,,,,,,,,,,,,,,,,,,nback35,1.0,2023-12-18_15h48.45.427,untitled,2023.2.3,60.02123551411256,2023-12-18 16h21.44.030381 -0500,
4.0,"[-0.2, 0.1]",None,,,,,0.0,12.0,12.0,12.0,,,,,2633.858945599961,,,,,,,,,,,,,,,,,,,,,,,,,,,,,,,,,,,,,,,,,,,,,,2633.843830800004,2633.858945599961,2633.858945599961,2634.359024699981,2634.359024699981,2636.858927299996,2636.858927299996,2636.8431449999625,None,1.0,,,,,,,,,,,,,,,,,,,,,,,,,nback35,1.0,2023-12-18_15h48.45.427,untitled,2023.2.3,60.02123551411256,2023-12-18 16h21.44.030381 -0500,
3.0,"[0, 0.2]",None,,,,,0.0,13.0,13.0,13.0,,,,,2636.858927299996,,,,,,,,,,,,,,,,,,,,,,,,,,,,,,,,,,,,,,,,,,,,,,2636.843827399978,2636.858927299996,2636.858927299996,2637.3587536000123,2637.3587536000123,2639.858721900004,2639.858721900004,2639.8431094999837,None,1.0,,,,,,,,,,,,,,,,,,,,,,,,,nback35,1.0,2023-12-18_15h48.45.427,untitled,2023.2.3,60.02123551411256,2023-12-18 16h21.44.030381 -0500,
3.0,"[0, 0.2]",space,,,,,0.0,14.0,14.0,14.0,,,,,2639.858721900004,,,,,,,,,,,,,,,,,,,,,,,,,,,,,,,,,,,,,,,,,,,,,,2639.843865999981,2639.858721900004,2639.858721900004,2640.358816699969,2640.358816699969,2642.858837800013,2642.858837800013,2642.842799200007,space,1.0,0.3988882999983616,None,,,,,,,,,,,,,,,,,,,,,,,nback35,1.0,2023-12-18_15h48.45.427,untitled,2023.2.3,60.02123551411256,2023-12-18 16h21.44.030381 -0500,
8.0,"[-0.2, -0.1]",None,,,,,0.0,15.0,15.0,15.0,,,,,2642.858837800013,,,,,,,,,,,,,,,,,,,,,,,,,,,,,,,,,,,,,,,,,,,,,,2642.8437268999696,2642.858837800013,2642.858837800013,2643.3586313000123,2643.3586313000123,2645.8586550999607,2645.8586550999607,2645.842856299976,None,1.0,,,,,,,,,,,,,,,,,,,,,,,,,nback35,1.0,2023-12-18_15h48.45.427,untitled,2023.2.3,60.02123551411256,2023-12-18 16h21.44.030381 -0500,
1.0,"[-0.64, 0.4]",None,,,,,0.0,16.0,16.0,16.0,,,,,2645.8586550999607,,,,,,,,,,,,,,,,,,,,,,,,,,,,,,,,,,,,,,,,,,,,,,2645.8434687999834,2645.8586550999607,2645.8586550999607,2646.358680799982,2646.358680799982,2648.85877859997,2648.85877859997,2648.8427184999746,None,1.0,,,,,,,,,,,,,,,,,,,,,,,,,nback35,1.0,2023-12-18_15h48.45.427,untitled,2023.2.3,60.02123551411256,2023-12-18 16h21.44.030381 -0500,
2.0,"[0.64, 0.4]",None,,,,,0.0,17.0,17.0,17.0,,,,,2648.85877859997,,,,,,,,,,,,,,,,,,,,,,,,,,,,,,,,,,,,,,,,,,,,,,2648.843439499993,2648.85877859997,2648.85877859997,2649.359691099992,2649.359691099992,2651.858673399984,2651.858673399984,2651.842913500004,None,1.0,,,,,,,,,,,,,,,,,,,,,,,,,nback35,1.0,2023-12-18_15h48.45.427,untitled,2023.2.3,60.02123551411256,2023-12-18 16h21.44.030381 -0500,
4.0,"[-0.2, 0.1]",None,,,,,0.0,18.0,18.0,18.0,,,,,2651.858673399984,,,,,,,,,,,,,,,,,,,,,,,,,,,,,,,,,,,,,,,,,,,,,,2651.843620299973,2651.858673399984,2651.858673399984,2652.358555999963,2652.358555999963,2654.85849340001,2654.85849340001,2654.8425098000157,None,1.0,,,,,,,,,,,,,,,,,,,,,,,,,nback35,1.0,2023-12-18_15h48.45.427,untitled,2023.2.3,60.02123551411256,2023-12-18 16h21.44.030381 -0500,
4.0,"[-0.2, 0.1]",space,,,,,0.0,19.0,19.0,19.0,,,,,2654.85849340001,,,,,,,,,,,,,,,,,,,,,,,,,,,,,,,,,,,,,,,,,,,,,,2654.843117499986,2654.85849340001,2654.85849340001,2655.358517599961,2655.358517599961,2657.858578300016,2657.858578300016,2657.8427011000167,space,1.0,0.40114629996242,None,,,,,,,,,,,,,,,,,,,,,,,nback35,1.0,2023-12-18_15h48.45.427,untitled,2023.2.3,60.02123551411256,2023-12-18 16h21.44.030381 -0500,
8.0,"[-0.2, -0.1]",None,,,,,0.0,20.0,20.0,20.0,,,,,2657.858578300016,,,,,,,,,,,,,,,,,,,,,,,,,,,,,,,,,,,,,,,,,,,,,,2657.8435642000118,2657.858578300016,2657.858578300016,2658.3585077000025,2658.3585077000025,2660.858480699972,2660.858480699972,2660.8423060999776,None,1.0,,,,,,,,,,,,,,,,,,,,,,,,,nback35,1.0,2023-12-18_15h48.45.427,untitled,2023.2.3,60.02123551411256,2023-12-18 16h21.44.030381 -0500,
5.0,"[0.2, 0.1]",None,,,,,0.0,21.0,21.0,21.0,,,,,2660.858480699972,,,,,,,,,,,,,,,,,,,,,,,,,,,,,,,,,,,,,,,,,,,,,,2660.8428458000126,2660.858480699972,2660.858480699972,2661.3585651999747,2661.3585651999747,2663.858424700011,2663.858424700011,2663.8426947999687,None,1.0,,,,,,,,,,,,,,,,,,,,,,,,,nback35,1.0,2023-12-18_15h48.45.427,untitled,2023.2.3,60.02123551411256,2023-12-18 16h21.44.030381 -0500,
5.0,"[0.2, 0.1]",space,,,,,0.0,22.0,22.0,22.0,,,,,2663.858424700011,,,,,,,,,,,,,,,,,,,,,,,,,,,,,,,,,,,,,,,,,,,,,,2663.843425500003,2663.858424700011,2663.858424700011,2664.3584397000086,2664.3584397000086,2666.858446099999,2666.858446099999,2666.842589699984,space,1.0,0.3329739000182599,None,,,,,,,,,,,,,,,,,,,,,,,nback35,1.0,2023-12-18_15h48.45.427,untitled,2023.2.3,60.02123551411256,2023-12-18 16h21.44.030381 -0500,
1.0,"[-0.64, 0.4]",None,,,,,0.0,23.0,23.0,23.0,,,,,2666.858446099999,,,,,,,,,,,,,,,,,,,,,,,,,,,,,,,,,,,,,,,,,,,,,,2666.843325199996,2666.858446099999,2666.858446099999,2667.3585463000054,2667.3585463000054,2669.8584283999808,2669.8584283999808,2669.842557999975,None,1.0,,,,,,,,,,,,,,,,,,,,,,,,,nback35,1.0,2023-12-18_15h48.45.427,untitled,2023.2.3,60.02123551411256,2023-12-18 16h21.44.030381 -0500,
3.0,"[0, 0.2]",None,,,,,0.0,24.0,24.0,24.0,,,,,2669.8584283999808,,,,,,,,,,,,,,,,,,,,,,,,,,,,,,,,,,,,,,,,,,,,,,2669.8431215000164,2669.8584283999808,2669.8584283999808,2670.3582092,2670.3582092,2672.8583574999648,2672.8583574999648,2672.842411499965,None,1.0,,,,,,,,,,,,,,,,,,,,,,,,,nback35,1.0,2023-12-18_15h48.45.427,untitled,2023.2.3,60.02123551411256,2023-12-18 16h21.44.030381 -0500,
6.0,"[-0.3, 0]",None,,,,,0.0,25.0,25.0,25.0,,,,,2672.8583574999648,,,,,,,,,,,,,,,,,,,,,,,,,,,,,,,,,,,,,,,,,,,,,,2672.843062399974,2672.8583574999648,2672.8583574999648,2673.35825249998,2673.35825249998,2675.858246799995,2675.858246799995,2675.842711299978,None,1.0,,,,,,,,,,,,,,,,,,,,,,,,,nback35,1.0,2023-12-18_15h48.45.427,untitled,2023.2.3,60.02123551411256,2023-12-18 16h21.44.030381 -0500,
1.0,"[-0.64, 0.4]",None,,,,,0.0,26.0,26.0,26.0,,,,,2675.858246799995,,,,,,,,,,,,,,,,,,,,,,,,,,,,,,,,,,,,,,,,,,,,,,2675.8434939,2675.858246799995,2675.858246799995,2676.3584140999883,2676.3584140999883,2678.8583263000182,2678.8583263000182,2678.8422968999657,None,1.0,,,,,,,,,,,,,,,,,,,,,,,,,nback35,1.0,2023-12-18_15h48.45.427,untitled,2023.2.3,60.02123551411256,2023-12-18 16h21.44.030381 -0500,
1.0,"[-0.64, 0.4]",space,,,,,0.0,27.0,27.0,27.0,,,,,2678.8583263000182,,,,,,,,,,,,,,,,,,,,,,,,,,,,,,,,,,,,,,,,,,,,,,2678.8429635999782,2678.8583263000182,2678.8583263000182,2679.3583261000167,2679.3583261000167,2681.8581947000057,2681.8581947000057,2681.842024499987,space,1.0,0.3782842000364326,None,,,,,,,,,,,,,,,,,,,,,,,nback35,1.0,2023-12-18_15h48.45.427,untitled,2023.2.3,60.02123551411256,2023-12-18 16h21.44.030381 -0500,
1.0,"[-0.64, 0.4]",space,,,,,0.0,28.0,28.0,28.0,,,,,2681.8581947000057,,,,,,,,,,,,,,,,,,,,,,,,,,,,,,,,,,,,,,,,,,,,,,2681.8426170000166,2681.8581947000057,2681.8581947000057,2682.3581856999954,2682.3581856999954,2684.858015699981,2684.858015699981,2684.842260099977,space,1.0,0.5952741000219248,None,,,,,,,,,,,,,,,,,,,,,,,nback35,1.0,2023-12-18_15h48.45.427,untitled,2023.2.3,60.02123551411256,2023-12-18 16h21.44.030381 -0500,
3.0,"[0, 0.2]",None,,,,,0.0,29.0,29.0,29.0,,,,,2684.858015699981,,,,,,,,,,,,,,,,,,,,,,,,,,,,,,,,,,,,,,,,,,,,,,2684.842960300012,2684.858015699981,2684.858015699981,2685.358161999989,2685.358161999989,2687.8579302999715,2687.8579302999715,2687.8422746999718,None,1.0,,,,,,,,,,,,,,,,,,,,,,,,,nback35,1.0,2023-12-18_15h48.45.427,untitled,2023.2.3,60.02123551411256,2023-12-18 16h21.44.030381 -0500,
12.0,"[0.64, -0.4]",None,,,,,0.0,30.0,30.0,30.0,,,,,2687.8579302999715,,,,,,,,,,,,,,,,,,,,,,,,,,,,,,,,,,,,,,,,,,,,,,2687.8429944999807,2687.8579302999715,2687.8579302999715,2688.3581194000144,2688.3581194000144,2690.8579335999966,2690.8579335999966,2690.84206939998,None,1.0,,,,,,,,,,,,,,,,,,,,,,,,,nback35,1.0,2023-12-18_15h48.45.427,untitled,2023.2.3,60.02123551411256,2023-12-18 16h21.44.030381 -0500,
12.0,"[0.64, -0.4]",space,,,,,0.0,31.0,31.0,31.0,,,,,2690.8579335999966,,,,,,,,,,,,,,,,,,,,,,,,,,,,,,,,,,,,,,,,,,,,,,2690.8427004000114,2690.8579335999966,2690.8579335999966,2691.358099999983,2691.358099999983,2693.8579265000008,2693.8579265000008,2693.842151799967,space,1.0,0.5368122999789193,None,,,,,,,,,,,,,,,,,,,,,,,nback35,1.0,2023-12-18_15h48.45.427,untitled,2023.2.3,60.02123551411256,2023-12-18 16h21.44.030381 -0500,
2.0,"[0.64, 0.4]",None,,,,,0.0,32.0,32.0,32.0,,,,,2693.8579265000008,,,,,,,,,,,,,,,,,,,,,,,,,,,,,,,,,,,,,,,,,,,,,,2693.842974700005,2693.8579265000008,2693.8579265000008,2694.357887099992,2694.357887099992,2696.857877499977,2696.857877499977,2696.84201459997,None,1.0,,,,,,,,,,,,,,,,,,,,,,,,,nback35,1.0,2023-12-18_15h48.45.427,untitled,2023.2.3,60.02123551411256,2023-12-18 16h21.44.030381 -0500,
1.0,"[-0.64, 0.4]",None,,,,,0.0,33.0,33.0,33.0,,,,,2696.857877499977,,,,,,,,,,,,,,,,,,,,,,,,,,,,,,,,,,,,,,,,,,,,,,2696.842636199988,2696.857877499977,2696.857877499977,2697.3578038999985,2697.3578038999985,2699.857700699969,2699.857700699969,2699.8421095999947,None,1.0,,,,,,,,,,,,,,,,,,,,,,,,,nback35,1.0,2023-12-18_15h48.45.427,untitled,2023.2.3,60.02123551411256,2023-12-18 16h21.44.030381 -0500,
7.0,"[0.3, 0]",None,,,,,0.0,34.0,34.0,34.0,,,,,2699.857700699969,,,,,,,,,,,,,,,,,,,,,,,,,,,,,,,,,,,,,,,,,,,,,,2699.842810799979,2699.857700699969,2699.857700699969,2700.358047799993,2700.358047799993,2702.857794299984,2702.857794299984,2702.841883200017,None,1.0,,,,,,,,,,,,,,,,,,,,,,,,,nback35,1.0,2023-12-18_15h48.45.427,untitled,2023.2.3,60.02123551411256,2023-12-18 16h21.44.030381 -0500,
7.0,"[0.3, 0]",space,,,,,0.0,35.0,35.0,35.0,,,,,2702.857794299984,,,,,,,,,,,,,,,,,,,,,,,,,,,,,,,,,,,,,,,,,,,,,,2702.842509900016,2702.857794299984,2702.857794299984,2703.357744900015,2703.357744900015,2705.8577653999964,2705.8577653999964,2705.841740999982,space,1.0,0.2911899000173434,None,,,,,,,,,,,,,,,,,,,,,,,nback35,1.0,2023-12-18_15h48.45.427,untitled,2023.2.3,60.02123551411256,2023-12-18 16h21.44.030381 -0500,
11.0,"[-0.64, -0.4]",None,,,,,0.0,36.0,36.0,36.0,,,,,2705.8577653999964,,,,,,,,,,,,,,,,,,,,,,,,,,,,,,,,,,,,,,,,,,,,,,2705.8424628000066,2705.8577653999964,2705.8577653999964,2706.3577324999787,2706.3577324999787,2708.857599400013,2708.857599400013,2708.8420399999886,None,1.0,,,,,,,,,,,,,,,,,,,,,,,,,nback35,1.0,2023-12-18_15h48.45.427,untitled,2023.2.3,60.02123551411256,2023-12-18 16h21.44.030381 -0500,
2.0,"[0.64, 0.4]",None,,,,,0.0,37.0,37.0,37.0,,,,,2708.857599400013,,,,,,,,,,,,,,,,,,,,,,,,,,,,,,,,,,,,,,,,,,,,,,2708.842794799973,2708.857599400013,2708.857599400013,2709.3576285000017,2709.3576285000017,2711.857619199989,2711.857619199989,2711.84163239997,None,1.0,,,,,,,,,,,,,,,,,,,,,,,,,nback35,1.0,2023-12-18_15h48.45.427,untitled,2023.2.3,60.02123551411256,2023-12-18 16h21.44.030381 -0500,
6.0,"[-0.3, 0]",None,,,,,0.0,38.0,38.0,38.0,,,,,2711.857619199989,,,,,,,,,,,,,,,,,,,,,,,,,,,,,,,,,,,,,,,,,,,,,,2711.842220599967,2711.857619199989,2711.857619199989,2712.357530500012,2712.357530500012,2714.8575439999986,2714.8575439999986,2714.8419053000107,None,1.0,,,,,,,,,,,,,,,,,,,,,,,,,nback35,1.0,2023-12-18_15h48.45.427,untitled,2023.2.3,60.02123551411256,2023-12-18 16h21.44.030381 -0500,
10.0,"[0, -0.2]",None,,,,,0.0,39.0,39.0,39.0,,,,,2714.8575439999986,,,,,,,,,,,,,,,,,,,,,,,,,,,,,,,,,,,,,,,,,,,,,,2714.8426521999936,2714.8575439999986,2714.8575439999986,2715.357536399999,2715.357536399999,2717.857643399999,2717.857643399999,2717.841951300012,None,1.0,,,,,,,,,,,,,,,,,,,,,,,,,nback35,1.0,2023-12-18_15h48.45.427,untitled,2023.2.3,60.02123551411256,2023-12-18 16h21.44.030381 -0500,
,,,,,,,,,,,,,,,,,,,,,,,,,,,,,,,,,,,,,,,,,,,,,,,,,,,,,,,,,,,,,,,,,,,,,,,,,2717.842491299991,2717.857643399999,2717.857643399999,2853.9732717000006,space,136.09836920001544,None,,,,,,,,,,,,,,,,nback35,1.0,2023-12-18_15h48.45.427,untitled,2023.2.3,60.02123551411256,2023-12-18 16h21.44.030381 -0500,
,"[0.2, 0.1]",None,,,,,,,,,0.0,0.0,0.0,0.0,2854.988540499966,,,,,,,,,,,,,,,,,,,,,,,,2853.973318400007,2853.9885049999866,2854.988540499966,2854.9726363999944,,,,,,,,,,,,,,,,,,,,,,,,,,,,,,,,,,,,,,2854.9826598000072,2854.988540499966,2854.988540499966,2855.488389199978,2855.488389199978,2857.9884058999887,2857.9884058999887,2857.972492900008,None,1.0,,,,,,nback35,1.0,2023-12-18_15h48.45.427,untitled,2023.2.3,60.02123551411256,2023-12-18 16h21.44.030381 -0500,
,"[0.64, 0.4]",None,,,,,,,,,0.0,1.0,1.0,1.0,2857.9884058999887,,,,,,,,,,,,,,,,,,,,,,,,,,,,,,,,,,,,,,,,,,,,,,,,,,,,,,,,,,,,,,,,,2857.973234600009,2857.9884058999887,2857.9884058999887,2858.488550399983,2858.488550399983,2860.988268699992,2860.988268699992,2860.972438900004,None,1.0,,,,,,nback35,1.0,2023-12-18_15h48.45.427,untitled,2023.2.3,60.02123551411256,2023-12-18 16h21.44.030381 -0500,
,"[-0.3, 0]",None,,,,,,,,,0.0,2.0,2.0,2.0,2860.988268699992,,,,,,,,,,,,,,,,,,,,,,,,,,,,,,,,,,,,,,,,,,,,,,,,,,,,,,,,,,,,,,,,,2860.973020800011,2860.988268699992,2860.988268699992,2861.4884861000173,2861.4884861000173,2863.9883420999686,2863.9883420999686,2863.972485700011,None,1.0,,,,,,nback35,1.0,2023-12-18_15h48.45.427,untitled,2023.2.3,60.02123551411256,2023-12-18 16h21.44.030381 -0500,
,"[0.2, -0.1]",None,,,,,,,,,0.0,3.0,3.0,3.0,2863.9883420999686,,,,,,,,,,,,,,,,,,,,,,,,,,,,,,,,,,,,,,,,,,,,,,,,,,,,,,,,,,,,,,,,,2863.9732000999797,2863.9883420999686,2863.9883420999686,2864.488212999975,2864.488212999975,2866.988148000004,2866.988148000004,2866.972005699965,None,1.0,,,,,,nback35,1.0,2023-12-18_15h48.45.427,untitled,2023.2.3,60.02123551411256,2023-12-18 16h21.44.030381 -0500,
,"[0, 0.2]",None,,,,,,,,,0.0,4.0,4.0,4.0,2866.988148000004,,,,,,,,,,,,,,,,,,,,,,,,,,,,,,,,,,,,,,,,,,,,,,,,,,,,,,,,,,,,,,,,,2866.9725679999974,2866.988148000004,2866.988148000004,2867.488104899967,2867.488104899967,2869.988154699997,2869.988154699997,2869.972331900004,None,1.0,,,,,,nback35,1.0,2023-12-18_15h48.45.427,untitled,2023.2.3,60.02123551411256,2023-12-18 16h21.44.030381 -0500,
,"[0.2, -0.1]",space,,,,,,,,,0.0,5.0,5.0,5.0,2869.988154699997,,,,,,,,,,,,,,,,,,,,,,,,,,,,,,,,,,,,,,,,,,,,,,,,,,,,,,,,,,,,,,,,,2869.97304859999,2869.988154699997,2869.988154699997,2870.488178,2870.488178,2872.988077499991,2872.988077499991,2872.972204299964,space,1.0,0.8800063999951817,None,,,,nback35,1.0,2023-12-18_15h48.45.427,untitled,2023.2.3,60.02123551411256,2023-12-18 16h21.44.030381 -0500,
,"[0, -0.2]",None,,,,,,,,,0.0,6.0,6.0,6.0,2872.988077499991,,,,,,,,,,,,,,,,,,,,,,,,,,,,,,,,,,,,,,,,,,,,,,,,,,,,,,,,,,,,,,,,,2872.973174300016,2872.988077499991,2872.988077499991,2873.4882290999813,2873.4882290999813,2875.987985499989,2875.987985499989,2875.9719658000104,None,1.0,,,,,,nback35,1.0,2023-12-18_15h48.45.427,untitled,2023.2.3,60.02123551411256,2023-12-18 16h21.44.030381 -0500,
,"[0.64, -0.4]",None,,,,,,,,,0.0,7.0,7.0,7.0,2875.987985499989,,,,,,,,,,,,,,,,,,,,,,,,,,,,,,,,,,,,,,,,,,,,,,,,,,,,,,,,,,,,,,,,,2875.9725563999677,2875.987985499989,2875.987985499989,2876.4880895999668,2876.4880895999668,2878.9879641000007,2878.9879641000007,2878.9720751999703,None,1.0,,,,,,nback35,1.0,2023-12-18_15h48.45.427,untitled,2023.2.3,60.02123551411256,2023-12-18 16h21.44.030381 -0500,
,"[0.3, 0]",None,,,,,,,,,0.0,8.0,8.0,8.0,2878.9879641000007,,,,,,,,,,,,,,,,,,,,,,,,,,,,,,,,,,,,,,,,,,,,,,,,,,,,,,,,,,,,,,,,,2878.972688699985,2878.9879641000007,2878.9879641000007,2879.4880412000057,2879.4880412000057,2881.9878837999718,2881.9878837999718,2881.9723085000005,None,1.0,,,,,,nback35,1.0,2023-12-18_15h48.45.427,untitled,2023.2.3,60.02123551411256,2023-12-18 16h21.44.030381 -0500,
,"[0.64, -0.4]",space,,,,,,,,,0.0,9.0,9.0,9.0,2881.9878837999718,,,,,,,,,,,,,,,,,,,,,,,,,,,,,,,,,,,,,,,,,,,,,,,,,,,,,,,,,,,,,,,,,2881.9732704999915,2881.9878837999718,2881.9878837999718,2882.4880409000034,2882.4880409000034,2884.9879730000102,2884.9879730000102,2884.9718927999784,space,1.0,0.9877031000214628,None,,,,nback35,1.0,2023-12-18_15h48.45.427,untitled,2023.2.3,60.02123551411256,2023-12-18 16h21.44.030381 -0500,
,"[-0.64, 0.4]",None,,,,,,,,,0.0,10.0,10.0,10.0,2884.9879730000102,,,,,,,,,,,,,,,,,,,,,,,,,,,,,,,,,,,,,,,,,,,,,,,,,,,,,,,,,,,,,,,,,2884.972570300015,2884.9879730000102,2884.9879730000102,2885.487896400009,2885.487896400009,2887.9878853999835,2887.9878853999835,2887.972046699986,None,1.0,,,,,,nback35,1.0,2023-12-18_15h48.45.427,untitled,2023.2.3,60.02123551411256,2023-12-18 16h21.44.030381 -0500,
,"[0.2, 0.1]",None,,,,,,,,,0.0,11.0,11.0,11.0,2887.9878853999835,,,,,,,,,,,,,,,,,,,,,,,,,,,,,,,,,,,,,,,,,,,,,,,,,,,,,,,,,,,,,,,,,2887.972718799981,2887.9878853999835,2887.9878853999835,2888.4877438000112,2888.4877438000112,2890.9877218000183,2890.9877218000183,2890.9717586000043,None,1.0,,,,,,nback35,1.0,2023-12-18_15h48.45.427,untitled,2023.2.3,60.02123551411256,2023-12-18 16h21.44.030381 -0500,
,"[0.3, 0]",None,,,,,,,,,0.0,12.0,12.0,12.0,2890.9877218000183,,,,,,,,,,,,,,,,,,,,,,,,,,,,,,,,,,,,,,,,,,,,,,,,,,,,,,,,,,,,,,,,,2890.9722607999865,2890.9877218000183,2890.9877218000183,2891.487916299986,2891.487916299986,2893.987672999996,2893.987672999996,2893.972099299979,None,1.0,,,,,,nback35,1.0,2023-12-18_15h48.45.427,untitled,2023.2.3,60.02123551411256,2023-12-18 16h21.44.030381 -0500,
,"[0.2, 0.1]",space,,,,,,,,,0.0,13.0,13.0,13.0,2893.987672999996,,,,,,,,,,,,,,,,,,,,,,,,,,,,,,,,,,,,,,,,,,,,,,,,,,,,,,,,,,,,,,,,,2893.972822200012,2893.987672999996,2893.987672999996,2894.487765900005,2894.487765900005,2896.987890099961,2896.987890099961,2896.9714820999943,space,1.0,0.9899514999706298,None,,,,nback35,1.0,2023-12-18_15h48.45.427,untitled,2023.2.3,60.02123551411256,2023-12-18 16h21.44.030381 -0500,
,"[-0.3, 0]",None,,,,,,,,,0.0,14.0,14.0,14.0,2896.987890099961,,,,,,,,,,,,,,,,,,,,,,,,,,,,,,,,,,,,,,,,,,,,,,,,,,,,,,,,,,,,,,,,,2896.972139399993,2896.987890099961,2896.987890099961,2897.48768250001,2897.48768250001,2899.987504299992,2899.987504299992,2899.9713348999794,None,1.0,,,,,,nback35,1.0,2023-12-18_15h48.45.427,untitled,2023.2.3,60.02123551411256,2023-12-18 16h21.44.030381 -0500,
,"[0, 0.2]",None,,,,,,,,,0.0,15.0,15.0,15.0,2899.987504299992,,,,,,,,,,,,,,,,,,,,,,,,,,,,,,,,,,,,,,,,,,,,,,,,,,,,,,,,,,,,,,,,,2899.971673099993,2899.987504299992,2899.987504299992,2900.487782100012,2900.487782100012,2902.98758310001,2902.98758310001,2902.9715846999607,None,1.0,,,,,,nback35,1.0,2023-12-18_15h48.45.427,untitled,2023.2.3,60.02123551411256,2023-12-18 16h21.44.030381 -0500,
,"[-0.3, 0]",space,,,,,,,,,0.0,16.0,16.0,16.0,2902.98758310001,,,,,,,,,,,,,,,,,,,,,,,,,,,,,,,,,,,,,,,,,,,,,,,,,,,,,,,,,,,,,,,,,2902.9722006999946,2902.98758310001,2902.98758310001,2903.4877874999947,2903.4877874999947,2905.987865000003,2905.987865000003,2905.9723593999806,space,1.0,0.658801100042183,None,,,,nback35,1.0,2023-12-18_15h48.45.427,untitled,2023.2.3,60.02123551411256,2023-12-18 16h21.44.030381 -0500,
,"[-0.64, -0.4]",None,,,,,,,,,0.0,17.0,17.0,17.0,2905.987865000003,,,,,,,,,,,,,,,,,,,,,,,,,,,,,,,,,,,,,,,,,,,,,,,,,,,,,,,,,,,,,,,,,2905.973258700018,2905.987865000003,2905.987865000003,2906.487715199968,2906.487715199968,2908.987439999968,2908.987439999968,2908.971626899991,None,1.0,,,,,,nback35,1.0,2023-12-18_15h48.45.427,untitled,2023.2.3,60.02123551411256,2023-12-18 16h21.44.030381 -0500,
,"[-0.2, -0.1]",None,,,,,,,,,0.0,18.0,18.0,18.0,2908.987439999968,,,,,,,,,,,,,,,,,,,,,,,,,,,,,,,,,,,,,,,,,,,,,,,,,,,,,,,,,,,,,,,,,2908.9722130999726,2908.987439999968,2908.987439999968,2909.4876083999698,2909.4876083999698,2911.987405299995,2911.987405299995,2911.9715819999983,None,1.0,,,,,,nback35,1.0,2023-12-18_15h48.45.427,untitled,2023.2.3,60.02123551411256,2023-12-18 16h21.44.030381 -0500,
,"[0.2, -0.1]",None,,,,,,,,,0.0,19.0,19.0,19.0,2911.987405299995,,,,,,,,,,,,,,,,,,,,,,,,,,,,,,,,,,,,,,,,,,,,,,,,,,,,,,,,,,,,,,,,,2911.972192299989,2911.987405299995,2911.987405299995,2912.4884022999613,2912.4884022999613,,2914.987471599976,2914.987666300003,None,1.0,,,,,,nback35,1.0,2023-12-18_15h48.45.427,untitled,2023.2.3,60.02123551411256,2023-12-18 16h21.44.030381 -0500,
,"[0.2, -0.1]",None,,,,,,,,,0.0,20.0,20.0,20.0,2915.004249499965,,,,,,,,,,,,,,,,,,,,,,,,,,,,,,,,,,,,,,,,,,,,,,,,,,,,,,,,,,,,,,,,,2914.988529299997,2915.004249499965,2915.004249499965,2915.504027999966,2915.487435499992,2917.987417499972,,2917.987563599978,None,1.0,,,,,,nback35,1.0,2023-12-18_15h48.45.427,untitled,2023.2.3,60.02123551411256,2023-12-18 16h21.44.030381 -0500,
,"[-0.64, 0.4]",None,,,,,,,,,0.0,21.0,21.0,21.0,2918.0040977999743,,,,,,,,,,,,,,,,,,,,,,,,,,,,,,,,,,,,,,,,,,,,,,,,,,,,,,,,,,,,,,,,,2917.9881306999887,2918.0040977999743,2918.0040977999743,2918.5039880000118,2918.487242699979,2920.987256499968,,2920.98741859998,None,1.0,,,,,,nback35,1.0,2023-12-18_15h48.45.427,untitled,2023.2.3,60.02123551411256,2023-12-18 16h21.44.030381 -0500,
,"[0, 0.2]",None,,,,,,,,,0.0,22.0,22.0,22.0,2921.003912899964,,,,,,,,,,,,,,,,,,,,,,,,,,,,,,,,,,,,,,,,,,,,,,,,,,,,,,,,,,,,,,,,,2920.9880742999667,2921.003912899964,2921.003912899964,2921.5041900999786,2921.4873957999807,2923.987228699989,,2923.987362699961,None,1.0,,,,,,nback35,1.0,2023-12-18_15h48.45.427,untitled,2023.2.3,60.02123551411256,2023-12-18 16h21.44.030381 -0500,
,"[0.64, -0.4]",None,,,,,,,,,0.0,23.0,23.0,23.0,2924.003804600012,,,,,,,,,,,,,,,,,,,,,,,,,,,,,,,,,,,,,,,,,,,,,,,,,,,,,,,,,,,,,,,,,2923.9878601999662,2924.003804600012,2924.003804600012,2924.503830099973,2924.4871903999883,2926.9873978999967,,2926.987603299989,None,1.0,,,,,,nback35,1.0,2023-12-18_15h48.45.427,untitled,2023.2.3,60.02123551411256,2023-12-18 16h21.44.030381 -0500,
,"[0, 0.2]",space,,,,,,,,,0.0,24.0,24.0,24.0,2927.004155900009,,,,,,,,,,,,,,,,,,,,,,,,,,,,,,,,,,,,,,,,,,,,,,,,,,,,,,,,,,,,,,,,,2926.988382999989,2927.004155900009,2927.004155900009,2927.503801999992,2927.4872101999645,2929.9870962999703,,2929.987296999985,None,0.0,,,,,,nback35,1.0,2023-12-18_15h48.45.427,untitled,2023.2.3,60.02123551411256,2023-12-18 16h21.44.030381 -0500,
,"[-0.2, 0.1]",None,,,,,,,,,0.0,25.0,25.0,25.0,2930.0038355000142,,,,,,,,,,,,,,,,,,,,,,,,,,,,,,,,,,,,,,,,,,,,,,,,,,,,,,,,,,,,,,,,,2929.988114399981,2930.0038355000142,2930.0038355000142,2930.503851599962,2930.4871429999766,2932.987135399977,,2932.9873352999857,None,1.0,,,,,,nback35,1.0,2023-12-18_15h48.45.427,untitled,2023.2.3,60.02123551411256,2023-12-18 16h21.44.030381 -0500,
,"[0.3, 0]",None,,,,,,,,,0.0,26.0,26.0,26.0,2933.0036983000173,,,,,,,,,,,,,,,,,,,,,,,,,,,,,,,,,,,,,,,,,,,,,,,,,,,,,,,,,,,,,,,,,2932.98810529997,2933.0036983000173,2933.0036983000173,2933.5037702999834,2933.487087799964,2935.9869932,,2935.987117600016,space,0.0,0.8601067999843508,None,,,,nback35,1.0,2023-12-18_15h48.45.427,untitled,2023.2.3,60.02123551411256,2023-12-18 16h21.44.030381 -0500,
,"[-0.2, 0.1]",space,,,,,,,,,0.0,27.0,27.0,27.0,2936.0036728999985,,,,,,,,,,,,,,,,,,,,,,,,,,,,,,,,,,,,,,,,,,,,,,,,,,,,,,,,,,,,,,,,,2935.9876530000183,2936.0036728999985,2936.0036728999985,2936.503813999967,2936.48701740001,2938.987119899976,,2938.9873125999875,None,0.0,,,,,,nback35,1.0,2023-12-18_15h48.45.427,untitled,2023.2.3,60.02123551411256,2023-12-18 16h21.44.030381 -0500,
,"[-0.2, 0.1]",None,,,,,,,,,0.0,28.0,28.0,28.0,2939.003804700013,,,,,,,,,,,,,,,,,,,,,,,,,,,,,,,,,,,,,,,,,,,,,,,,,,,,,,,,,,,,,,,,,2938.9881368999777,2939.003804700013,2939.003804700013,2939.5037168999843,2939.4870355999738,2941.9871342999686,,2941.9873242000176,None,1.0,,,,,,nback35,1.0,2023-12-18_15h48.45.427,untitled,2023.2.3,60.02123551411256,2023-12-18 16h21.44.030381 -0500,
,"[0.2, 0.1]",None,,,,,,,,,0.0,29.0,29.0,29.0,2942.003517299978,,,,,,,,,,,,,,,,,,,,,,,,,,,,,,,,,,,,,,,,,,,,,,,,,,,,,,,,,,,,,,,,,2941.9881347999617,2942.003517299978,2942.003517299978,2942.5035274999973,2942.4869984999823,2944.987027799973,,2944.987218499969,None,1.0,,,,,,nback35,1.0,2023-12-18_15h48.45.427,untitled,2023.2.3,60.02123551411256,2023-12-18 16h21.44.030381 -0500,
,"[-0.64, -0.4]",None,,,,,,,,,0.0,30.0,30.0,30.0,2945.003673200001,,,,,,,,,,,,,,,,,,,,,,,,,,,,,,,,,,,,,,,,,,,,,,,,,,,,,,,,,,,,,,,,,2944.987980500009,2945.003673200001,2945.003673200001,2945.5034116999886,2945.486718800006,2947.986692699982,,2947.986845199979,None,1.0,,,,,,nback35,1.0,2023-12-18_15h48.45.427,untitled,2023.2.3,60.02123551411256,2023-12-18 16h21.44.030381 -0500,
,"[0, -0.2]",None,,,,,,,,,0.0,31.0,31.0,31.0,2948.003618799994,,,,,,,,,,,,,,,,,,,,,,,,,,,,,,,,,,,,,,,,,,,,,,,,,,,,,,,,,,,,,,,,,2947.9875219000096,2948.003618799994,2948.003618799994,2948.5035479999788,2948.4869782000023,2950.9868231999862,,2950.987014499988,None,1.0,,,,,,nback35,1.0,2023-12-18_15h48.45.427,untitled,2023.2.3,60.02123551411256,2023-12-18 16h21.44.030381 -0500,
,"[-0.64, -0.4]",space,,,,,,,,,0.0,32.0,32.0,32.0,2951.0035725999915,,,,,,,,,,,,,,,,,,,,,,,,,,,,,,,,,,,,,,,,,,,,,,,,,,,,,,,,,,,,,,,,,2950.987729699962,2951.0035725999915,2951.0035725999915,2951.503537200013,2951.4868375999795,2953.986846099986,,2953.987031900004,None,0.0,,,,,,nback35,1.0,2023-12-18_15h48.45.427,untitled,2023.2.3,60.02123551411256,2023-12-18 16h21.44.030381 -0500,
,"[0.64, 0.4]",None,,,,,,,,,0.0,33.0,33.0,33.0,2954.0033661999914,,,,,,,,,,,,,,,,,,,,,,,,,,,,,,,,,,,,,,,,,,,,,,,,,,,,,,,,,,,,,,,,,2953.9877998999727,2954.0033661999914,2954.0033661999914,2954.5034279999963,2954.4866365999624,2956.9866495000024,,2956.986836999975,None,1.0,,,,,,nback35,1.0,2023-12-18_15h48.45.427,untitled,2023.2.3,60.02123551411256,2023-12-18 16h21.44.030381 -0500,
,"[-0.3, 0]",None,,,,,,,,,0.0,34.0,34.0,34.0,2957.0034533000144,,,,,,,,,,,,,,,,,,,,,,,,,,,,,,,,,,,,,,,,,,,,,,,,,,,,,,,,,,,,,,,,,2956.987692799972,2957.0034533000144,2957.0034533000144,2957.503300900018,2957.486695400002,2959.9866832999687,,2959.986855199997,None,1.0,,,,,,nback35,1.0,2023-12-18_15h48.45.427,untitled,2023.2.3,60.02123551411256,2023-12-18 16h21.44.030381 -0500,
,"[0.3, 0]",None,,,,,,,,,0.0,35.0,35.0,35.0,2960.003365199984,,,,,,,,,,,,,,,,,,,,,,,,,,,,,,,,,,,,,,,,,,,,,,,,,,,,,,,,,,,,,,,,,2959.987546099961,2960.003365199984,2960.003365199984,2960.5033313000167,2960.4866582000104,2962.9865941999888,,2962.9867891000176,None,1.0,,,,,,nback35,1.0,2023-12-18_15h48.45.427,untitled,2023.2.3,60.02123551411256,2023-12-18 16h21.44.030381 -0500,
,"[-0.3, 0]",space,,,,,,,,,0.0,36.0,36.0,36.0,2963.003280799981,,,,,,,,,,,,,,,,,,,,,,,,,,,,,,,,,,,,,,,,,,,,,,,,,,,,,,,,,,,,,,,,,2962.987510499981,2963.003280799981,2963.003280799981,2963.503208500013,2963.486626099999,2965.986441899993,,2965.9865727,None,0.0,,,,,,nback35,1.0,2023-12-18_15h48.45.427,untitled,2023.2.3,60.02123551411256,2023-12-18 16h21.44.030381 -0500,
,"[0, -0.2]",None,,,,,,,,,0.0,37.0,37.0,37.0,2966.003229599999,,,,,,,,,,,,,,,,,,,,,,,,,,,,,,,,,,,,,,,,,,,,,,,,,,,,,,,,,,,,,,,,,2965.987186799961,2966.003229599999,2966.003229599999,2966.503138900007,2966.486537699966,2968.9865977000154,,2968.986799199978,space,0.0,0.3386503999936394,None,,,,nback35,1.0,2023-12-18_15h48.45.427,untitled,2023.2.3,60.02123551411256,2023-12-18 16h21.44.030381 -0500,
,"[0.3, 0]",None,,,,,,,,,0.0,38.0,38.0,38.0,2969.003230500006,,,,,,,,,,,,,,,,,,,,,,,,,,,,,,,,,,,,,,,,,,,,,,,,,,,,,,,,,,,,,,,,,2968.98761370001,2969.003230500006,2969.003230500006,2969.50312639997,2969.4866331999947,2971.986477199971,,2971.986658300011,None,1.0,,,,,,nback35,1.0,2023-12-18_15h48.45.427,untitled,2023.2.3,60.02123551411256,2023-12-18 16h21.44.030381 -0500,
,"[0.2, 0.1]",None,,,,,,,,,0.0,39.0,39.0,39.0,2972.0031136999896,,,,,,,,,,,,,,,,,,,,,,,,,,,,,,,,,,,,,,,,,,,,,,,,,,,,,,,,,,,,,,,,,2971.9873366999964,2972.0031136999896,2972.0031136999896,2972.503019799973,2972.486421900016,2974.986532799987,,2974.9867244999914,None,1.0,,,,,,nback35,1.0,2023-12-18_15h48.45.427,untitled,2023.2.3,60.02123551411256,2023-12-18 16h21.44.030381 -0500,
,,,,,,,,,,,,,,,,,,,,,,,,,,,,,,,,,,,,,,,,,,,,,,,,,,,,,,,,,,,,,,,,,,,,,,,,,,,,,,,,,,,,,,,,,,,,2974.9872682999994,2975.003082399984,2977.9865061000164,,,,,,,,
