square,location,corrAns,trials_0.thisRepN,trials_0.thisTrialN,trials_0.thisN,trials_0.thisIndex,trials_1.thisRepN,trials_1.thisTrialN,trials_1.thisN,trials_1.thisIndex,trials_2.thisRepN,trials_2.thisTrialN,trials_2.thisN,trials_2.thisIndex,thisRow.t,notes,Instructions.started,instructions.started,key_resp.started,inst_sq11.started,Instructions.stopped,key_resp.keys,key_resp.rt,key_resp.duration,All.started,sq_1.started,sq_2.started,sq_3.started,sq_4.started,sq_5.started,sq_6.started,sq_7.started,sq_8.started,sq_9.started,sq_10.started,sq_11.started,sq_12.started,All.stopped,Fixation.started,fixation_3.started,fixation_3.stopped,Fixation.stopped,N_back_0_Trial.started,target_square_0.started,response_0.started,fixation_0.started,target_square_0.stopped,fixation_0.stopped,N_back_0_Trial.stopped,response_0.keys,response_0.corr,response_0.rt,response_0.duration,Instructions_1.started,instructions_1.started,key_resp_1.started,Instructions_1.stopped,key_resp_1.keys,key_resp_1.rt,key_resp_1.duration,N_back_1_Trial.started,target_square_1.started,response_1.started,target_square_1.stopped,fixation_1.started,fixation_1.stopped,response_1.stopped,N_back_1_Trial.stopped,response_1.keys,response_1.corr,response_1.rt,response_1.duration,Instructions_2.started,instructions_2.started,key_resp_2.started,Instructions_2.stopped,key_resp_2.keys,key_resp_2.rt,key_resp_2.duration,N_back_2_trials.started,target_square_2.started,response_2.started,fixation_2.started,target_square_2.stopped,fixation_2.stopped,N_back_2_trials.stopped,response_2.keys,response_2.corr,response_2.rt,response_2.duration,End.started,thank_you.started,End.stopped,participant,session,date,expName,psychopyVersion,frameRate,expStart,
,,,,,,,,,,,,,,,,,0.0013873999705538154,0.003707899944856763,0.003707899944856763,0.003707899944856763,126.30743469996378,space,126.2981037000427,None,,,,,,,,,,,,,,,,,,,,,,,,,,,,,,,,,,,,,,,,,,,,,,,,,,,,,,,,,,,,,,,,,,,,,,nback2,001,2023-12-07_12h20.10.465,untitled,2023.2.3,59.97184923699001,2023-12-07 13h09.35.921550 -0500,
6,"[-0.3, 0]",None,0,0,0,0,,,,,,,,,128.32966949988622,,,,,,,,,,126.30747609992977,126.32217939989641,126.32217939989641,126.32217939989641,126.32217939989641,126.32217939989641,126.32217939989641,126.32217939989641,126.32217939989641,126.32217939989641,126.32217939989641,126.32217939989641,126.32217939989641,127.30594529991504,127.30595849989913,127.32223619997967,128.32966949988622,128.30660089990124,128.3278364998987,128.32966949988622,128.32966949988622,128.8054998998996,128.838921599905,131.3054638999747,131.3222937999526,None,1,,,,,,,,,,,,,,,,,,,,,,,,,,,,,,,,,,,,,,,,,,,nback2,001,2023-12-07_12h20.10.465,untitled,2023.2.3,59.97184923699001,2023-12-07 13h09.35.921550 -0500,
10,"[0, -0.2]",None,0,1,1,1,,,,,,,,,131.33877799997572,,,,,,,,,,,,,,,,,,,,,,,,,,,,131.3231721998891,131.33877799997572,131.33877799997572,131.8055792999221,131.83891369996127,134.30554139998276,134.3222546998877,None,1,,,,,,,,,,,,,,,,,,,,,,,,,,,,,,,,,,,,,,,,,,,nback2,001,2023-12-07_12h20.10.465,untitled,2023.2.3,59.97184923699001,2023-12-07 13h09.35.921550 -0500,
11,"[-0.64, -0.4]",space,0,2,2,2,,,,,,,,,134.3387609999627,,,,,,,,,,,,,,,,,,,,,,,,,,,,134.32290349993855,134.3387609999627,134.3387609999627,134.80563359998632,134.83867459988687,137.3054615999572,137.32236489991192,space,1,0.46109740005340427,None,,,,,,,,,,,,,,,,,,,,,,,,,,,,,,,,,,,,,,,,,nback2,001,2023-12-07_12h20.10.465,untitled,2023.2.3,59.97184923699001,2023-12-07 13h09.35.921550 -0500,
12,"[0.64, -0.4]",None,0,3,3,3,,,,,,,,,137.33869359991513,,,,,,,,,,,,,,,,,,,,,,,,,,,,137.3236453999998,137.33869359991513,137.33869359991513,137.80546199996024,137.83874319994356,140.30533569992986,140.32220289995894,None,1,,,,,,,,,,,,,,,,,,,,,,,,,,,,,,,,,,,,,,,,,,,nback2,001,2023-12-07_12h20.10.465,untitled,2023.2.3,59.97184923699001,2023-12-07 13h09.35.921550 -0500,
1,"[-0.64, 0.4]",None,0,4,4,4,,,,,,,,,140.33859289996326,,,,,,,,,,,,,,,,,,,,,,,,,,,,140.32286799990106,140.33859289996326,140.33859289996326,140.80529619997833,140.83871629997157,143.30534559988882,143.32216489990242,None,1,,,,,,,,,,,,,,,,,,,,,,,,,,,,,,,,,,,,,,,,,,,nback2,001,2023-12-07_12h20.10.465,untitled,2023.2.3,59.97184923699001,2023-12-07 13h09.35.921550 -0500,
1,"[-0.64, 0.4]",None,0,5,5,5,,,,,,,,,143.33874109992757,,,,,,,,,,,,,,,,,,,,,,,,,,,,143.3230083999224,143.33874109992757,143.33874109992757,143.8052483999636,143.83853319997434,146.30529819999356,146.32205839990638,None,1,,,,,,,,,,,,,,,,,,,,,,,,,,,,,,,,,,,,,,,,,,,nback2,001,2023-12-07_12h20.10.465,untitled,2023.2.3,59.97184923699001,2023-12-07 13h09.35.921550 -0500,
4,"[-0.2, 0.1]",None,0,6,6,6,,,,,,,,,146.33852979994845,,,,,,,,,,,,,,,,,,,,,,,,,,,,146.32277869991958,146.33852979994845,146.33852979994845,146.80539439991117,146.83850439998787,149.30531559989322,149.32265099999495,None,1,,,,,,,,,,,,,,,,,,,,,,,,,,,,,,,,,,,,,,,,,,,nback2,001,2023-12-07_12h20.10.465,untitled,2023.2.3,59.97184923699001,2023-12-07 13h09.35.921550 -0500,
5,"[0.2, 0.1]",None,0,7,7,7,,,,,,,,,149.33844159997534,,,,,,,,,,,,,,,,,,,,,,,,,,,,149.32356969988905,149.33844159997534,149.33844159997534,149.80505859991536,149.83850339998025,152.30518489994574,152.32196249999106,None,1,,,,,,,,,,,,,,,,,,,,,,,,,,,,,,,,,,,,,,,,,,,nback2,001,2023-12-07_12h20.10.465,untitled,2023.2.3,59.97184923699001,2023-12-07 13h09.35.921550 -0500,
11,"[-0.64, -0.4]",space,0,8,8,8,,,,,,,,,152.33859659999143,,,,,,,,,,,,,,,,,,,,,,,,,,,,152.32282059988938,152.33859659999143,152.33859659999143,152.80510059988592,152.83839289995376,155.30518719996326,155.32192889996804,space,1,0.36989370000083,None,,,,,,,,,,,,,,,,,,,,,,,,,,,,,,,,,,,,,,,,,nback2,001,2023-12-07_12h20.10.465,untitled,2023.2.3,59.97184923699001,2023-12-07 13h09.35.921550 -0500,
9,"[0.2, -0.1]",None,0,9,9,9,,,,,,,,,155.33847359998617,,,,,,,,,,,,,,,,,,,,,,,,,,,,155.32298139994964,155.33847359998617,155.33847359998617,155.8052188999718,155.83839939988684,158.30516269989312,158.32190019998234,None,1,,,,,,,,,,,,,,,,,,,,,,,,,,,,,,,,,,,,,,,,,,,nback2,001,2023-12-07_12h20.10.465,untitled,2023.2.3,59.97184923699001,2023-12-07 13h09.35.921550 -0500,
8,"[-0.2, -0.1]",None,0,10,10,10,,,,,,,,,158.33835309999995,,,,,,,,,,,,,,,,,,,,,,,,,,,,158.32268079998903,158.33835309999995,158.33835309999995,158.80504279991146,158.83856359997299,161.3050504999701,161.3219990999205,None,1,,,,,,,,,,,,,,,,,,,,,,,,,,,,,,,,,,,,,,,,,,,nback2,001,2023-12-07_12h20.10.465,untitled,2023.2.3,59.97184923699001,2023-12-07 13h09.35.921550 -0500,
9,"[0.2, -0.1]",None,0,11,11,11,,,,,,,,,161.33838569989894,,,,,,,,,,,,,,,,,,,,,,,,,,,,161.32277569989674,161.33838569989894,161.33838569989894,161.8050718999002,161.83849769993685,164.30492529994808,164.3217861999292,None,1,,,,,,,,,,,,,,,,,,,,,,,,,,,,,,,,,,,,,,,,,,,nback2,001,2023-12-07_12h20.10.465,untitled,2023.2.3,59.97184923699001,2023-12-07 13h09.35.921550 -0500,
6,"[-0.3, 0]",None,0,12,12,12,,,,,,,,,164.33822289993986,,,,,,,,,,,,,,,,,,,,,,,,,,,,164.3225103999721,164.33822289993986,164.33822289993986,164.82166399993002,164.83820719993673,167.32172059989534,167.3219038998941,None,1,,,,,,,,,,,,,,,,,,,,,,,,,,,,,,,,,,,,,,,,,,,nback2,001,2023-12-07_12h20.10.465,untitled,2023.2.3,59.97184923699001,2023-12-07 13h09.35.921550 -0500,
9,"[0.2, -0.1]",None,0,13,13,13,,,,,,,,,167.33831169991754,,,,,,,,,,,,,,,,,,,,,,,,,,,,167.3225998999551,167.33831169991754,167.33831169991754,167.80495169991627,167.83833129995037,170.304943599971,170.3217993999133,None,1,,,,,,,,,,,,,,,,,,,,,,,,,,,,,,,,,,,,,,,,,,,nback2,001,2023-12-07_12h20.10.465,untitled,2023.2.3,59.97184923699001,2023-12-07 13h09.35.921550 -0500,
7,"[0.3, 0]",None,0,14,14,14,,,,,,,,,170.3382411999628,,,,,,,,,,,,,,,,,,,,,,,,,,,,170.32258389994968,170.3382411999628,170.3382411999628,170.82148949999828,170.83813809999265,173.32135739992373,173.32152009999845,None,1,,,,,,,,,,,,,,,,,,,,,,,,,,,,,,,,,,,,,,,,,,,nback2,001,2023-12-07_12h20.10.465,untitled,2023.2.3,59.97184923699001,2023-12-07 13h09.35.921550 -0500,
2,"[0.64, 0.4]",None,0,15,15,15,,,,,,,,,173.33824769989587,,,,,,,,,,,,,,,,,,,,,,,,,,,,173.32232169993222,173.33824769989587,173.33824769989587,173.82147599989548,173.83817689993884,176.32130809989758,176.3214937999146,None,1,,,,,,,,,,,,,,,,,,,,,,,,,,,,,,,,,,,,,,,,,,,nback2,001,2023-12-07_12h20.10.465,untitled,2023.2.3,59.97184923699001,2023-12-07 13h09.35.921550 -0500,
2,"[0.64, 0.4]",None,0,16,16,16,,,,,,,,,176.33805859996937,,,,,,,,,,,,,,,,,,,,,,,,,,,,176.3222655999707,176.33805859996937,176.33805859996937,176.8214306998998,176.83807239995804,179.3213897999376,179.32157589995768,None,1,,,,,,,,,,,,,,,,,,,,,,,,,,,,,,,,,,,,,,,,,,,nback2,001,2023-12-07_12h20.10.465,untitled,2023.2.3,59.97184923699001,2023-12-07 13h09.35.921550 -0500,
11,"[-0.64, -0.4]",space,0,17,17,17,,,,,,,,,179.33796029991936,,,,,,,,,,,,,,,,,,,,,,,,,,,,179.32231789990328,179.33796029991936,179.33796029991936,179.82130139996298,179.83816129993647,182.32120279991068,182.3213765999535,space,1,0.43322030000854284,None,,,,,,,,,,,,,,,,,,,,,,,,,,,,,,,,,,,,,,,,,nback2,001,2023-12-07_12h20.10.465,untitled,2023.2.3,59.97184923699001,2023-12-07 13h09.35.921550 -0500,
11,"[-0.64, -0.4]",space,0,18,18,18,,,,,,,,,182.33800189988688,,,,,,,,,,,,,,,,,,,,,,,,,,,,182.3222686999943,182.33800189988688,182.33800189988688,182.82128679996822,182.83795329998247,185.32129469991196,185.32148339995183,space,1,0.5620931000448763,None,,,,,,,,,,,,,,,,,,,,,,,,,,,,,,,,,,,,,,,,,nback2,001,2023-12-07_12h20.10.465,untitled,2023.2.3,59.97184923699001,2023-12-07 13h09.35.921550 -0500,
7,"[0.3, 0]",None,0,19,19,19,,,,,,,,,185.3377979999641,,,,,,,,,,,,,,,,,,,,,,,,,,,,185.3222572999075,185.3377979999641,185.3377979999641,185.82150679989718,185.83805649995338,188.32096379995346,188.32109189999755,None,1,,,,,,,,,,,,,,,,,,,,,,,,,,,,,,,,,,,,,,,,,,,nback2,001,2023-12-07_12h20.10.465,untitled,2023.2.3,59.97184923699001,2023-12-07 13h09.35.921550 -0500,
3,"[0, 0.2]",None,0,20,20,20,,,,,,,,,188.33803919993807,,,,,,,,,,,,,,,,,,,,,,,,,,,,188.32155839994084,188.33803919993807,188.33803919993807,188.8211165999528,188.83792949991766,191.32130269997288,191.32150789990555,None,1,,,,,,,,,,,,,,,,,,,,,,,,,,,,,,,,,,,,,,,,,,,nback2,001,2023-12-07_12h20.10.465,untitled,2023.2.3,59.97184923699001,2023-12-07 13h09.35.921550 -0500,
10,"[0, -0.2]",None,0,21,21,21,,,,,,,,,191.33798289997503,,,,,,,,,,,,,,,,,,,,,,,,,,,,191.32240359997377,191.33798289997503,191.33798289997503,191.82114129990805,191.8380108999554,194.32110929989722,194.32126659993082,None,1,,,,,,,,,,,,,,,,,,,,,,,,,,,,,,,,,,,,,,,,,,,nback2,001,2023-12-07_12h20.10.465,untitled,2023.2.3,59.97184923699001,2023-12-07 13h09.35.921550 -0500,
1,"[-0.64, 0.4]",None,0,22,22,22,,,,,,,,,194.33777279988863,,,,,,,,,,,,,,,,,,,,,,,,,,,,194.3219010999892,194.33777279988863,194.33777279988863,194.82115479989443,194.8379870998906,197.32120159990154,197.32143059989903,None,1,,,,,,,,,,,,,,,,,,,,,,,,,,,,,,,,,,,,,,,,,,,nback2,001,2023-12-07_12h20.10.465,untitled,2023.2.3,59.97184923699001,2023-12-07 13h09.35.921550 -0500,
2,"[0.64, 0.4]",None,0,23,23,23,,,,,,,,,197.33786949992646,,,,,,,,,,,,,,,,,,,,,,,,,,,,197.32228609989397,197.33786949992646,197.33786949992646,197.82097209990025,197.8378002999816,200.32097809994593,200.32114309992176,None,1,,,,,,,,,,,,,,,,,,,,,,,,,,,,,,,,,,,,,,,,,,,nback2,001,2023-12-07_12h20.10.465,untitled,2023.2.3,59.97184923699001,2023-12-07 13h09.35.921550 -0500,
6,"[-0.3, 0]",None,0,24,24,24,,,,,,,,,200.3376442999579,,,,,,,,,,,,,,,,,,,,,,,,,,,,200.32180009991862,200.3376442999579,200.3376442999579,200.82104149996303,200.83779599994887,203.32102029991802,203.32119739998598,None,1,,,,,,,,,,,,,,,,,,,,,,,,,,,,,,,,,,,,,,,,,,,nback2,001,2023-12-07_12h20.10.465,untitled,2023.2.3,59.97184923699001,2023-12-07 13h09.35.921550 -0500,
3,"[0, 0.2]",None,0,25,25,25,,,,,,,,,203.33775549998973,,,,,,,,,,,,,,,,,,,,,,,,,,,,203.3218787999358,203.33775549998973,203.33775549998973,203.8210151999956,203.83773659996223,206.32087229995523,206.32102339994162,None,1,,,,,,,,,,,,,,,,,,,,,,,,,,,,,,,,,,,,,,,,,,,nback2,001,2023-12-07_12h20.10.465,untitled,2023.2.3,59.97184923699001,2023-12-07 13h09.35.921550 -0500,
11,"[-0.64, -0.4]",space,0,26,26,26,,,,,,,,,206.33761339995544,,,,,,,,,,,,,,,,,,,,,,,,,,,,206.32162669999525,206.33761339995544,206.33761339995544,206.820899299928,206.8375800999347,209.32092969992664,209.32111539994366,space,1,0.4233627999201417,None,,,,,,,,,,,,,,,,,,,,,,,,,,,,,,,,,,,,,,,,,nback2,001,2023-12-07_12h20.10.465,untitled,2023.2.3,59.97184923699001,2023-12-07 13h09.35.921550 -0500,
1,"[-0.64, 0.4]",None,0,27,27,27,,,,,,,,,209.33751549990848,,,,,,,,,,,,,,,,,,,,,,,,,,,,209.32214249996468,209.33751549990848,209.33751549990848,209.82082649995573,209.83739339991007,212.32077719992958,212.32097519992385,None,1,,,,,,,,,,,,,,,,,,,,,,,,,,,,,,,,,,,,,,,,,,,nback2,001,2023-12-07_12h20.10.465,untitled,2023.2.3,59.97184923699001,2023-12-07 13h09.35.921550 -0500,
3,"[0, 0.2]",None,0,28,28,28,,,,,,,,,212.33757669990882,,,,,,,,,,,,,,,,,,,,,,,,,,,,212.32177499996033,212.33757669990882,212.33757669990882,212.82076269993559,212.83741289994214,215.3207721998915,215.3209563998971,None,1,,,,,,,,,,,,,,,,,,,,,,,,,,,,,,,,,,,,,,,,,,,nback2,001,2023-12-07_12h20.10.465,untitled,2023.2.3,59.97184923699001,2023-12-07 13h09.35.921550 -0500,
9,"[0.2, -0.1]",None,0,29,29,29,,,,,,,,,215.33752999990247,,,,,,,,,,,,,,,,,,,,,,,,,,,,215.32167119998485,215.33752999990247,215.33752999990247,215.82066039997153,215.83744809997734,218.3207949999487,218.32101219997276,None,1,,,,,,,,,,,,,,,,,,,,,,,,,,,,,,,,,,,,,,,,,,,nback2,001,2023-12-07_12h20.10.465,untitled,2023.2.3,59.97184923699001,2023-12-07 13h09.35.921550 -0500,
8,"[-0.2, -0.1]",None,0,30,30,30,,,,,,,,,218.33731599990278,,,,,,,,,,,,,,,,,,,,,,,,,,,,218.32177319994662,218.33731599990278,218.33731599990278,218.82063679990824,218.83742779993918,221.32075239997357,221.3209641999565,None,1,,,,,,,,,,,,,,,,,,,,,,,,,,,,,,,,,,,,,,,,,,,nback2,001,2023-12-07_12h20.10.465,untitled,2023.2.3,59.97184923699001,2023-12-07 13h09.35.921550 -0500,
12,"[0.64, -0.4]",None,0,31,31,31,,,,,,,,,221.3374232999049,,,,,,,,,,,,,,,,,,,,,,,,,,,,221.3218171999324,221.3374232999049,221.3374232999049,221.8206702999305,221.83728189999238,224.3205910999095,224.32076649996452,None,1,,,,,,,,,,,,,,,,,,,,,,,,,,,,,,,,,,,,,,,,,,,nback2,001,2023-12-07_12h20.10.465,untitled,2023.2.3,59.97184923699001,2023-12-07 13h09.35.921550 -0500,
9,"[0.2, -0.1]",None,0,32,32,32,,,,,,,,,224.3371464998927,,,,,,,,,,,,,,,,,,,,,,,,,,,,224.32144109997898,224.3371464998927,224.3371464998927,224.8204764999682,224.8372463999549,227.32056879997253,227.3207473999355,None,1,,,,,,,,,,,,,,,,,,,,,,,,,,,,,,,,,,,,,,,,,,,nback2,001,2023-12-07_12h20.10.465,untitled,2023.2.3,59.97184923699001,2023-12-07 13h09.35.921550 -0500,
11,"[-0.64, -0.4]",space,0,33,33,33,,,,,,,,,227.33717559999786,,,,,,,,,,,,,,,,,,,,,,,,,,,,227.3215760999592,227.33717559999786,227.33717559999786,227.82047659996897,227.8373376999516,230.3206060999073,230.32077569991816,space,1,0.36639179999474436,None,,,,,,,,,,,,,,,,,,,,,,,,,,,,,,,,,,,,,,,,,nback2,001,2023-12-07_12h20.10.465,untitled,2023.2.3,59.97184923699001,2023-12-07 13h09.35.921550 -0500,
7,"[0.3, 0]",None,0,34,34,34,,,,,,,,,230.3370970999822,,,,,,,,,,,,,,,,,,,,,,,,,,,,230.3216197999427,230.3370970999822,230.3370970999822,230.82038589997683,230.83713679993525,233.32056299992837,233.32073639996815,None,1,,,,,,,,,,,,,,,,,,,,,,,,,,,,,,,,,,,,,,,,,,,nback2,001,2023-12-07_12h20.10.465,untitled,2023.2.3,59.97184923699001,2023-12-07 13h09.35.921550 -0500,
11,"[-0.64, -0.4]",space,0,35,35,35,,,,,,,,,233.33707789995242,,,,,,,,,,,,,,,,,,,,,,,,,,,,233.32146709994413,233.33707789995242,233.33707789995242,233.8204234999139,233.8370864999015,236.32036689994857,236.32054799993057,space,1,0.45341149996966124,None,,,,,,,,,,,,,,,,,,,,,,,,,,,,,,,,,,,,,,,,,nback2,001,2023-12-07_12h20.10.465,untitled,2023.2.3,59.97184923699001,2023-12-07 13h09.35.921550 -0500,
4,"[-0.2, 0.1]",None,0,36,36,36,,,,,,,,,236.337061899947,,,,,,,,,,,,,,,,,,,,,,,,,,,,236.32137809996493,236.337061899947,236.337061899947,236.82039219990838,236.83703509997576,239.3203755998984,239.3205284998985,None,1,,,,,,,,,,,,,,,,,,,,,,,,,,,,,,,,,,,,,,,,,,,nback2,001,2023-12-07_12h20.10.465,untitled,2023.2.3,59.97184923699001,2023-12-07 13h09.35.921550 -0500,
5,"[0.2, 0.1]",None,0,37,37,37,,,,,,,,,239.3368233999936,,,,,,,,,,,,,,,,,,,,,,,,,,,,239.3211504999781,239.3368233999936,239.3368233999936,239.82023759989534,239.83693579991814,242.3203090999741,242.3204818998929,None,1,,,,,,,,,,,,,,,,,,,,,,,,,,,,,,,,,,,,,,,,,,,nback2,001,2023-12-07_12h20.10.465,untitled,2023.2.3,59.97184923699001,2023-12-07 13h09.35.921550 -0500,
6,"[-0.3, 0]",None,0,38,38,38,,,,,,,,,242.33695159992203,,,,,,,,,,,,,,,,,,,,,,,,,,,,242.3211954999715,242.33695159992203,242.33695159992203,242.82030879997183,242.83705949992873,245.32015019992832,245.3204518998973,None,1,,,,,,,,,,,,,,,,,,,,,,,,,,,,,,,,,,,,,,,,,,,nback2,001,2023-12-07_12h20.10.465,untitled,2023.2.3,59.97184923699001,2023-12-07 13h09.35.921550 -0500,
11,"[-0.64, -0.4]",space,0,39,39,39,,,,,,,,,245.3369115999667,,,,,,,,,,,,,,,,,,,,,,,,,,,,245.3211261999095,245.3369115999667,245.3369115999667,245.82012169994414,245.83689949999098,248.3201333999168,248.32030129991472,space,1,0.3678313000127673,None,,,,,,,,,,,,,,,,,,,,,,,,,,,,,,,,,,,,,,,,,nback2,001,2023-12-07_12h20.10.465,untitled,2023.2.3,59.97184923699001,2023-12-07 13h09.35.921550 -0500,
,,,,,,,,,,,,,,,,,,,,,,,,,,,,,,,,,,,,,,,,,,,,,,,,,,,,,,248.32093509996776,248.3369252999546,248.3369252999546,274.9213709998876,space,26.57546329998877,None,,,,,,,,,,,,,,,,,,,,,,,,,,,,,,,,,,nback2,001,2023-12-07_12h20.10.465,untitled,2023.2.3,59.97184923699001,2023-12-07 13h09.35.921550 -0500,
10,"[0, -0.2]",None,,,,,0,0,0,0,,,,,275.9369175999891,,,,,,,,,,,,,,,,,,,,,,,,274.92140969994944,274.93651539995335,275.9369175999891,275.92046379996464,,,,,,,,,,,,,,,,,,,275.9349080999382,275.9369175999891,275.9369175999891,276.4363390998915,276.4363390998915,278.93643699993845,278.93643699993845,278.92066479998175,None,1,,,,,,,,,,,,,,,,,,,,,,,,nback2,001,2023-12-07_12h20.10.465,untitled,2023.2.3,59.97184923699001,2023-12-07 13h09.35.921550 -0500,
5,"[0.2, 0.1]",None,,,,,0,1,1,1,,,,,278.93643699993845,,,,,,,,,,,,,,,,,,,,,,,,,,,,,,,,,,,,,,,,,,,,,,278.9215670999838,278.93643699993845,278.93643699993845,279.43616349995136,279.43616349995136,281.93630709999707,281.93630709999707,281.92028500000015,None,1,,,,,,,,,,,,,,,,,,,,,,,,nback2,001,2023-12-07_12h20.10.465,untitled,2023.2.3,59.97184923699001,2023-12-07 13h09.35.921550 -0500,
6,"[-0.3, 0]",None,,,,,0,2,2,2,,,,,281.93630709999707,,,,,,,,,,,,,,,,,,,,,,,,,,,,,,,,,,,,,,,,,,,,,,281.92087899998296,281.93630709999707,281.93630709999707,282.43620719993487,282.43620719993487,284.93611879996024,284.93611879996024,284.91988779988606,None,1,,,,,,,,,,,,,,,,,,,,,,,,nback2,001,2023-12-07_12h20.10.465,untitled,2023.2.3,59.97184923699001,2023-12-07 13h09.35.921550 -0500,
6,"[-0.3, 0]",space,,,,,0,3,3,3,,,,,284.93611879996024,,,,,,,,,,,,,,,,,,,,,,,,,,,,,,,,,,,,,,,,,,,,,,284.92025939992163,284.93611879996024,284.93611879996024,285.43602309993,285.43602309993,287.9361294999253,287.9361294999253,287.9202962999698,space,1,0.8671963000670075,None,,,,,,,,,,,,,,,,,,,,,,nback2,001,2023-12-07_12h20.10.465,untitled,2023.2.3,59.97184923699001,2023-12-07 13h09.35.921550 -0500,
12,"[0.64, -0.4]",None,,,,,0,4,4,4,,,,,287.9361294999253,,,,,,,,,,,,,,,,,,,,,,,,,,,,,,,,,,,,,,,,,,,,,,287.9212081999285,287.9361294999253,287.9361294999253,288.43593739997596,288.43593739997596,290.9360767999897,290.9360767999897,290.92049899999984,None,1,,,,,,,,,,,,,,,,,,,,,,,,nback2,001,2023-12-07_12h20.10.465,untitled,2023.2.3,59.97184923699001,2023-12-07 13h09.35.921550 -0500,
10,"[0, -0.2]",None,,,,,0,5,5,5,,,,,290.9360767999897,,,,,,,,,,,,,,,,,,,,,,,,,,,,,,,,,,,,,,,,,,,,,,290.9212231999263,290.9360767999897,290.9360767999897,291.4360637998907,291.4360637998907,293.93617589992937,293.93617589992937,293.9199543999275,None,1,,,,,,,,,,,,,,,,,,,,,,,,nback2,001,2023-12-07_12h20.10.465,untitled,2023.2.3,59.97184923699001,2023-12-07 13h09.35.921550 -0500,
2,"[0.64, 0.4]",None,,,,,0,6,6,6,,,,,293.93617589992937,,,,,,,,,,,,,,,,,,,,,,,,,,,,,,,,,,,,,,,,,,,,,,293.9205034999177,293.93617589992937,293.93617589992937,294.4361273999093,294.4361273999093,296.9360552999424,296.9360552999424,296.92046579997987,None,1,,,,,,,,,,,,,,,,,,,,,,,,nback2,001,2023-12-07_12h20.10.465,untitled,2023.2.3,59.97184923699001,2023-12-07 13h09.35.921550 -0500,
9,"[0.2, -0.1]",None,,,,,0,7,7,7,,,,,296.9360552999424,,,,,,,,,,,,,,,,,,,,,,,,,,,,,,,,,,,,,,,,,,,,,,296.9212276999606,296.9360552999424,296.9360552999424,297.4360446999781,297.4360446999781,299.9360130999703,299.9360130999703,299.9202118999092,None,1,,,,,,,,,,,,,,,,,,,,,,,,nback2,001,2023-12-07_12h20.10.465,untitled,2023.2.3,59.97184923699001,2023-12-07 13h09.35.921550 -0500,
9,"[0.2, -0.1]",space,,,,,0,8,8,8,,,,,299.9360130999703,,,,,,,,,,,,,,,,,,,,,,,,,,,,,,,,,,,,,,,,,,,,,,299.92089349997696,299.9360130999703,299.9360130999703,300.43588489992544,300.43588489992544,302.93587449996267,302.93587449996267,302.9199068999151,space,1,0.422653799992986,None,,,,,,,,,,,,,,,,,,,,,,nback2,001,2023-12-07_12h20.10.465,untitled,2023.2.3,59.97184923699001,2023-12-07 13h09.35.921550 -0500,
6,"[-0.3, 0]",None,,,,,0,9,9,9,,,,,302.93587449996267,,,,,,,,,,,,,,,,,,,,,,,,,,,,,,,,,,,,,,,,,,,,,,302.9206294999458,302.93587449996267,302.93587449996267,303.43599219992757,303.43599219992757,305.9358714999398,305.9358714999398,305.9200428999029,None,1,,,,,,,,,,,,,,,,,,,,,,,,nback2,001,2023-12-07_12h20.10.465,untitled,2023.2.3,59.97184923699001,2023-12-07 13h09.35.921550 -0500,
11,"[-0.64, -0.4]",None,,,,,0,10,10,10,,,,,305.9358714999398,,,,,,,,,,,,,,,,,,,,,,,,,,,,,,,,,,,,,,,,,,,,,,305.9207023999188,305.9358714999398,305.9358714999398,306.43577959993854,306.43577959993854,308.93579819996376,308.93579819996376,308.9199464999838,None,1,,,,,,,,,,,,,,,,,,,,,,,,nback2,001,2023-12-07_12h20.10.465,untitled,2023.2.3,59.97184923699001,2023-12-07 13h09.35.921550 -0500,
11,"[-0.64, -0.4]",space,,,,,0,11,11,11,,,,,308.93579819996376,,,,,,,,,,,,,,,,,,,,,,,,,,,,,,,,,,,,,,,,,,,,,,308.92059519991744,308.93579819996376,308.93579819996376,309.4356270999415,309.4356270999415,311.93584379996173,311.93584379996173,311.9200380999828,space,1,0.3341883000684902,None,,,,,,,,,,,,,,,,,,,,,,nback2,001,2023-12-07_12h20.10.465,untitled,2023.2.3,59.97184923699001,2023-12-07 13h09.35.921550 -0500,
4,"[-0.2, 0.1]",None,,,,,0,12,12,12,,,,,311.93584379996173,,,,,,,,,,,,,,,,,,,,,,,,,,,,,,,,,,,,,,,,,,,,,,311.9208568999311,311.93584379996173,311.93584379996173,312.435652099899,312.435652099899,314.9357289999025,314.9357289999025,314.9198367999634,None,1,,,,,,,,,,,,,,,,,,,,,,,,nback2,001,2023-12-07_12h20.10.465,untitled,2023.2.3,59.97184923699001,2023-12-07 13h09.35.921550 -0500,
3,"[0, 0.2]",None,,,,,0,13,13,13,,,,,314.9357289999025,,,,,,,,,,,,,,,,,,,,,,,,,,,,,,,,,,,,,,,,,,,,,,314.9204191999743,314.9357289999025,314.9357289999025,315.4355507999426,315.4355507999426,317.9356662998907,317.9356662998907,317.91981749993283,None,1,,,,,,,,,,,,,,,,,,,,,,,,nback2,001,2023-12-07_12h20.10.465,untitled,2023.2.3,59.97184923699001,2023-12-07 13h09.35.921550 -0500,
3,"[0, 0.2]",space,,,,,0,14,14,14,,,,,317.9356662998907,,,,,,,,,,,,,,,,,,,,,,,,,,,,,,,,,,,,,,,,,,,,,,317.920443699928,317.9356662998907,317.9356662998907,318.43558169994503,318.43558169994503,320.93551489990205,320.93551489990205,320.919679399929,space,1,0.4298588000237942,None,,,,,,,,,,,,,,,,,,,,,,nback2,001,2023-12-07_12h20.10.465,untitled,2023.2.3,59.97184923699001,2023-12-07 13h09.35.921550 -0500,
8,"[-0.2, -0.1]",None,,,,,0,15,15,15,,,,,320.93551489990205,,,,,,,,,,,,,,,,,,,,,,,,,,,,,,,,,,,,,,,,,,,,,,320.9203463998856,320.93551489990205,320.93551489990205,321.4357077999739,321.4357077999739,323.93570069991983,323.93570069991983,323.9196261999896,None,1,,,,,,,,,,,,,,,,,,,,,,,,nback2,001,2023-12-07_12h20.10.465,untitled,2023.2.3,59.97184923699001,2023-12-07 13h09.35.921550 -0500,
1,"[-0.64, 0.4]",None,,,,,0,16,16,16,,,,,323.93570069991983,,,,,,,,,,,,,,,,,,,,,,,,,,,,,,,,,,,,,,,,,,,,,,323.92032299994025,323.93570069991983,323.93570069991983,324.4355864999816,324.4355864999816,326.9357685999712,326.9357685999712,326.9193841998931,None,1,,,,,,,,,,,,,,,,,,,,,,,,nback2,001,2023-12-07_12h20.10.465,untitled,2023.2.3,59.97184923699001,2023-12-07 13h09.35.921550 -0500,
2,"[0.64, 0.4]",None,,,,,0,17,17,17,,,,,326.9357685999712,,,,,,,,,,,,,,,,,,,,,,,,,,,,,,,,,,,,,,,,,,,,,,326.9199401999358,326.9357685999712,326.9357685999712,327.4353887999896,327.4353887999896,329.93540129996836,329.93540129996836,329.9195277999388,None,1,,,,,,,,,,,,,,,,,,,,,,,,nback2,001,2023-12-07_12h20.10.465,untitled,2023.2.3,59.97184923699001,2023-12-07 13h09.35.921550 -0500,
4,"[-0.2, 0.1]",None,,,,,0,18,18,18,,,,,329.93540129996836,,,,,,,,,,,,,,,,,,,,,,,,,,,,,,,,,,,,,,,,,,,,,,329.92014109995216,329.93540129996836,329.93540129996836,330.43519819993526,330.43519819993526,332.93533769994974,332.93533769994974,332.91955869994126,None,1,,,,,,,,,,,,,,,,,,,,,,,,nback2,001,2023-12-07_12h20.10.465,untitled,2023.2.3,59.97184923699001,2023-12-07 13h09.35.921550 -0500,
4,"[-0.2, 0.1]",space,,,,,0,19,19,19,,,,,332.93533769994974,,,,,,,,,,,,,,,,,,,,,,,,,,,,,,,,,,,,,,,,,,,,,,332.9202320999466,332.93533769994974,332.93533769994974,333.4354282999411,333.4354282999411,335.9353809999302,335.9353809999302,335.9196430000011,space,1,0.37083419994451106,None,,,,,,,,,,,,,,,,,,,,,,nback2,001,2023-12-07_12h20.10.465,untitled,2023.2.3,59.97184923699001,2023-12-07 13h09.35.921550 -0500,
8,"[-0.2, -0.1]",None,,,,,0,20,20,20,,,,,335.9353809999302,,,,,,,,,,,,,,,,,,,,,,,,,,,,,,,,,,,,,,,,,,,,,,335.9206063998863,335.9353809999302,335.9353809999302,336.4352404999081,336.4352404999081,338.9353160999017,338.9353160999017,338.9195497999899,None,1,,,,,,,,,,,,,,,,,,,,,,,,nback2,001,2023-12-07_12h20.10.465,untitled,2023.2.3,59.97184923699001,2023-12-07 13h09.35.921550 -0500,
5,"[0.2, 0.1]",None,,,,,0,21,21,21,,,,,338.9353160999017,,,,,,,,,,,,,,,,,,,,,,,,,,,,,,,,,,,,,,,,,,,,,,338.92015639995225,338.9353160999017,338.9353160999017,339.4352560999105,339.4352560999105,341.93535970000084,341.93535970000084,341.91956209996715,None,1,,,,,,,,,,,,,,,,,,,,,,,,nback2,001,2023-12-07_12h20.10.465,untitled,2023.2.3,59.97184923699001,2023-12-07 13h09.35.921550 -0500,
5,"[0.2, 0.1]",space,,,,,0,22,22,22,,,,,341.93535970000084,,,,,,,,,,,,,,,,,,,,,,,,,,,,,,,,,,,,,,,,,,,,,,341.92028399999253,341.93535970000084,341.93535970000084,342.4351242999546,342.4351242999546,344.9352596999379,344.9352596999379,344.9193821999943,space,1,0.3561840000329539,None,,,,,,,,,,,,,,,,,,,,,,nback2,001,2023-12-07_12h20.10.465,untitled,2023.2.3,59.97184923699001,2023-12-07 13h09.35.921550 -0500,
1,"[-0.64, 0.4]",None,,,,,0,23,23,23,,,,,344.9352596999379,,,,,,,,,,,,,,,,,,,,,,,,,,,,,,,,,,,,,,,,,,,,,,344.9202092998894,344.9352596999379,344.9352596999379,345.4349801999051,345.4349801999051,347.9351442999905,347.9351442999905,347.91902319993824,None,1,,,,,,,,,,,,,,,,,,,,,,,,nback2,001,2023-12-07_12h20.10.465,untitled,2023.2.3,59.97184923699001,2023-12-07 13h09.35.921550 -0500,
3,"[0, 0.2]",None,,,,,0,24,24,24,,,,,347.9351442999905,,,,,,,,,,,,,,,,,,,,,,,,,,,,,,,,,,,,,,,,,,,,,,347.9195083999075,347.9351442999905,347.9351442999905,348.43524509994313,348.43524509994313,350.93526239995845,350.93526239995845,350.91947519988753,None,1,,,,,,,,,,,,,,,,,,,,,,,,nback2,001,2023-12-07_12h20.10.465,untitled,2023.2.3,59.97184923699001,2023-12-07 13h09.35.921550 -0500,
6,"[-0.3, 0]",None,,,,,0,25,25,25,,,,,350.93526239995845,,,,,,,,,,,,,,,,,,,,,,,,,,,,,,,,,,,,,,,,,,,,,,350.9201313999947,350.93526239995845,350.93526239995845,351.43499129998963,351.43499129998963,353.9350766999414,353.9350766999414,353.9191005999455,None,1,,,,,,,,,,,,,,,,,,,,,,,,nback2,001,2023-12-07_12h20.10.465,untitled,2023.2.3,59.97184923699001,2023-12-07 13h09.35.921550 -0500,
1,"[-0.64, 0.4]",None,,,,,0,26,26,26,,,,,353.9350766999414,,,,,,,,,,,,,,,,,,,,,,,,,,,,,,,,,,,,,,,,,,,,,,353.91984819993377,353.9350766999414,353.9350766999414,354.4349858999485,354.4349858999485,356.93508669990115,356.93508669990115,356.91913779999595,None,1,,,,,,,,,,,,,,,,,,,,,,,,nback2,001,2023-12-07_12h20.10.465,untitled,2023.2.3,59.97184923699001,2023-12-07 13h09.35.921550 -0500,
1,"[-0.64, 0.4]",space,,,,,0,27,27,27,,,,,356.93508669990115,,,,,,,,,,,,,,,,,,,,,,,,,,,,,,,,,,,,,,,,,,,,,,356.9197525999043,356.93508669990115,356.93508669990115,357.43483909999486,357.43483909999486,359.93499429989606,359.93499429989606,359.91888219991233,space,1,0.5518637000350282,None,,,,,,,,,,,,,,,,,,,,,,nback2,001,2023-12-07_12h20.10.465,untitled,2023.2.3,59.97184923699001,2023-12-07 13h09.35.921550 -0500,
1,"[-0.64, 0.4]",space,,,,,0,28,28,28,,,,,359.93499429989606,,,,,,,,,,,,,,,,,,,,,,,,,,,,,,,,,,,,,,,,,,,,,,359.919688199996,359.93499429989606,359.93499429989606,360.43491029995494,360.43491029995494,362.9349124999717,362.9349124999717,362.91889559989795,None,0,,,,,,,,,,,,,,,,,,,,,,,,nback2,001,2023-12-07_12h20.10.465,untitled,2023.2.3,59.97184923699001,2023-12-07 13h09.35.921550 -0500,
3,"[0, 0.2]",None,,,,,0,29,29,29,,,,,362.9349124999717,,,,,,,,,,,,,,,,,,,,,,,,,,,,,,,,,,,,,,,,,,,,,,362.91943639994133,362.9349124999717,362.9349124999717,363.43478319991846,363.43478319991846,365.93489289993886,365.93489289993886,365.91894919995684,None,1,,,,,,,,,,,,,,,,,,,,,,,,nback2,001,2023-12-07_12h20.10.465,untitled,2023.2.3,59.97184923699001,2023-12-07 13h09.35.921550 -0500,
12,"[0.64, -0.4]",None,,,,,0,30,30,30,,,,,365.93489289993886,,,,,,,,,,,,,,,,,,,,,,,,,,,,,,,,,,,,,,,,,,,,,,365.91962099995,365.93489289993886,365.93489289993886,366.43492099992,366.43492099992,368.93482049996965,368.93482049996965,368.91892119997647,None,1,,,,,,,,,,,,,,,,,,,,,,,,nback2,001,2023-12-07_12h20.10.465,untitled,2023.2.3,59.97184923699001,2023-12-07 13h09.35.921550 -0500,
12,"[0.64, -0.4]",space,,,,,0,31,31,31,,,,,368.93482049996965,,,,,,,,,,,,,,,,,,,,,,,,,,,,,,,,,,,,,,,,,,,,,,368.919562999974,368.93482049996965,368.93482049996965,369.43478659994435,369.43478659994435,371.93478189990856,371.93478189990856,371.918765099952,space,1,0.4538163000252098,None,,,,,,,,,,,,,,,,,,,,,,nback2,001,2023-12-07_12h20.10.465,untitled,2023.2.3,59.97184923699001,2023-12-07 13h09.35.921550 -0500,
2,"[0.64, 0.4]",None,,,,,0,32,32,32,,,,,371.93478189990856,,,,,,,,,,,,,,,,,,,,,,,,,,,,,,,,,,,,,,,,,,,,,,371.9195083999075,371.93478189990856,371.93478189990856,372.43463339994196,372.43463339994196,374.934737799922,374.934737799922,374.9189787999494,None,1,,,,,,,,,,,,,,,,,,,,,,,,nback2,001,2023-12-07_12h20.10.465,untitled,2023.2.3,59.97184923699001,2023-12-07 13h09.35.921550 -0500,
1,"[-0.64, 0.4]",None,,,,,0,33,33,33,,,,,374.934737799922,,,,,,,,,,,,,,,,,,,,,,,,,,,,,,,,,,,,,,,,,,,,,,374.91981669992674,374.934737799922,374.934737799922,375.43444399989676,375.43444399989676,377.9346153999213,377.9346153999213,377.9182908999501,None,1,,,,,,,,,,,,,,,,,,,,,,,,nback2,001,2023-12-07_12h20.10.465,untitled,2023.2.3,59.97184923699001,2023-12-07 13h09.35.921550 -0500,
7,"[0.3, 0]",None,,,,,0,34,34,34,,,,,377.9346153999213,,,,,,,,,,,,,,,,,,,,,,,,,,,,,,,,,,,,,,,,,,,,,,377.9185991999693,377.9346153999213,377.9346153999213,378.43439639999997,378.43439639999997,380.93462129996624,380.93462129996624,380.9191513999831,None,1,,,,,,,,,,,,,,,,,,,,,,,,nback2,001,2023-12-07_12h20.10.465,untitled,2023.2.3,59.97184923699001,2023-12-07 13h09.35.921550 -0500,
7,"[0.3, 0]",space,,,,,0,35,35,35,,,,,380.93462129996624,,,,,,,,,,,,,,,,,,,,,,,,,,,,,,,,,,,,,,,,,,,,,,380.91983609995805,380.93462129996624,380.93462129996624,381.4346241999883,381.4346241999883,383.9344885998871,383.9344885998871,383.91868889995385,space,1,0.43386350001674145,None,,,,,,,,,,,,,,,,,,,,,,nback2,001,2023-12-07_12h20.10.465,untitled,2023.2.3,59.97184923699001,2023-12-07 13h09.35.921550 -0500,
11,"[-0.64, -0.4]",None,,,,,0,36,36,36,,,,,383.9344885998871,,,,,,,,,,,,,,,,,,,,,,,,,,,,,,,,,,,,,,,,,,,,,,383.9194840999553,383.9344885998871,383.9344885998871,384.4345639999956,384.4345639999956,386.9344528999645,386.9344528999645,386.9182328999741,None,1,,,,,,,,,,,,,,,,,,,,,,,,nback2,001,2023-12-07_12h20.10.465,untitled,2023.2.3,59.97184923699001,2023-12-07 13h09.35.921550 -0500,
2,"[0.64, 0.4]",None,,,,,0,37,37,37,,,,,386.9344528999645,,,,,,,,,,,,,,,,,,,,,,,,,,,,,,,,,,,,,,,,,,,,,,386.9186700999271,386.9344528999645,386.9344528999645,387.4343695999123,387.4343695999123,389.93447559990454,389.93447559990454,389.91876469994895,None,1,,,,,,,,,,,,,,,,,,,,,,,,nback2,001,2023-12-07_12h20.10.465,untitled,2023.2.3,59.97184923699001,2023-12-07 13h09.35.921550 -0500,
6,"[-0.3, 0]",None,,,,,0,38,38,38,,,,,389.93447559990454,,,,,,,,,,,,,,,,,,,,,,,,,,,,,,,,,,,,,,,,,,,,,,389.91943689994514,389.93447559990454,389.93447559990454,390.4343695999123,390.4343695999123,392.9343577999389,392.9343577999389,392.91871219989844,None,1,,,,,,,,,,,,,,,,,,,,,,,,nback2,001,2023-12-07_12h20.10.465,untitled,2023.2.3,59.97184923699001,2023-12-07 13h09.35.921550 -0500,
10,"[0, -0.2]",None,,,,,0,39,39,39,,,,,392.9343577999389,,,,,,,,,,,,,,,,,,,,,,,,,,,,,,,,,,,,,,,,,,,,,,392.91941929992754,392.9343577999389,392.9343577999389,393.4344469999196,393.4344469999196,395.93453329999465,395.93453329999465,395.9184894999489,None,1,,,,,,,,,,,,,,,,,,,,,,,,nback2,001,2023-12-07_12h20.10.465,untitled,2023.2.3,59.97184923699001,2023-12-07 13h09.35.921550 -0500,
,,,,,,,,,,,,,,,,,,,,,,,,,,,,,,,,,,,,,,,,,,,,,,,,,,,,,,,,,,,,,,,,,,,,,,,,,395.91897629993036,395.93453329999465,395.93453329999465,439.66828969994094,space,43.72470400005113,None,,,,,,,,,,,,,,,nback2,001,2023-12-07_12h20.10.465,untitled,2023.2.3,59.97184923699001,2023-12-07 13h09.35.921550 -0500,
,"[0.2, 0.1]",None,,,,,,,,,0,0,0,0,440.6849871999584,,,,,,,,,,,,,,,,,,,,,,,,439.668329399894,439.6836695999373,440.6849871999584,440.6675502998987,,,,,,,,,,,,,,,,,,,,,,,,,,,,,,,,,,,,,,440.6829166999087,440.6849871999584,440.6849871999584,441.18374759994913,441.20035849988926,443.68361199996434,443.68380569992587,None,1,,,,,,nback2,001,2023-12-07_12h20.10.465,untitled,2023.2.3,59.97184923699001,2023-12-07 13h09.35.921550 -0500,
,"[0.64, 0.4]",None,,,,,,,,,0,1,1,1,443.7003809999442,,,,,,,,,,,,,,,,,,,,,,,,,,,,,,,,,,,,,,,,,,,,,,,,,,,,,,,,,,,,,,,,,443.6847731999587,443.7003809999442,443.7003809999442,444.18355089996476,444.2001343999291,446.6835668999702,446.68376519996673,None,1,,,,,,nback2,001,2023-12-07_12h20.10.465,untitled,2023.2.3,59.97184923699001,2023-12-07 13h09.35.921550 -0500,
,"[-0.3, 0]",None,,,,,,,,,0,2,2,2,446.70034299988765,,,,,,,,,,,,,,,,,,,,,,,,,,,,,,,,,,,,,,,,,,,,,,,,,,,,,,,,,,,,,,,,,446.68464499991387,446.70034299988765,446.70034299988765,447.18344669998623,447.1999956999207,449.6836094999453,449.6837937999517,None,1,,,,,,nback2,001,2023-12-07_12h20.10.465,untitled,2023.2.3,59.97184923699001,2023-12-07 13h09.35.921550 -0500,
,"[0.2, -0.1]",None,,,,,,,,,0,3,3,3,449.7002471999731,,,,,,,,,,,,,,,,,,,,,,,,,,,,,,,,,,,,,,,,,,,,,,,,,,,,,,,,,,,,,,,,,449.68451739999,449.7002471999731,449.7002471999731,450.18349239998497,450.2000869999174,452.6834389999276,452.6836042999057,None,1,,,,,,nback2,001,2023-12-07_12h20.10.465,untitled,2023.2.3,59.97184923699001,2023-12-07 13h09.35.921550 -0500,
,"[0, 0.2]",None,,,,,,,,,0,4,4,4,452.70007839996833,,,,,,,,,,,,,,,,,,,,,,,,,,,,,,,,,,,,,,,,,,,,,,,,,,,,,,,,,,,,,,,,,452.68431339995004,452.70007839996833,452.70007839996833,453.1833026999375,453.20006149995606,455.6834888999583,455.68368989997543,None,1,,,,,,nback2,001,2023-12-07_12h20.10.465,untitled,2023.2.3,59.97184923699001,2023-12-07 13h09.35.921550 -0500,
,"[0.2, -0.1]",space,,,,,,,,,0,5,5,5,455.7002517998917,,,,,,,,,,,,,,,,,,,,,,,,,,,,,,,,,,,,,,,,,,,,,,,,,,,,,,,,,,,,,,,,,455.6845033999998,455.7002517998917,455.7002517998917,456.1832870999351,456.19992539996747,458.68330799997784,458.683490699972,space,1,0.5778400999261066,None,,,,nback2,001,2023-12-07_12h20.10.465,untitled,2023.2.3,59.97184923699001,2023-12-07 13h09.35.921550 -0500,
,"[0, -0.2]",None,,,,,,,,,0,6,6,6,458.70006459997967,,,,,,,,,,,,,,,,,,,,,,,,,,,,,,,,,,,,,,,,,,,,,,,,,,,,,,,,,,,,,,,,,458.68455159990117,458.70006459997967,458.70006459997967,459.1832149999682,459.19982559990603,461.6833939999342,461.68358609999996,None,1,,,,,,nback2,001,2023-12-07_12h20.10.465,untitled,2023.2.3,59.97184923699001,2023-12-07 13h09.35.921550 -0500,
,"[0.64, -0.4]",None,,,,,,,,,0,7,7,7,461.69990629993845,,,,,,,,,,,,,,,,,,,,,,,,,,,,,,,,,,,,,,,,,,,,,,,,,,,,,,,,,,,,,,,,,461.6843748999527,461.69990629993845,461.69990629993845,462.1831774999155,462.1998329999624,464.6831481999252,464.68332189996727,None,1,,,,,,nback2,001,2023-12-07_12h20.10.465,untitled,2023.2.3,59.97184923699001,2023-12-07 13h09.35.921550 -0500,
,"[0.3, 0]",None,,,,,,,,,0,8,8,8,464.69997570000123,,,,,,,,,,,,,,,,,,,,,,,,,,,,,,,,,,,,,,,,,,,,,,,,,,,,,,,,,,,,,,,,,464.6840192999225,464.69997570000123,464.69997570000123,465.1830692999065,465.199656499899,467.6832032999955,467.68338839989156,None,1,,,,,,nback2,001,2023-12-07_12h20.10.465,untitled,2023.2.3,59.97184923699001,2023-12-07 13h09.35.921550 -0500,
,"[0.64, -0.4]",space,,,,,,,,,0,9,9,9,467.69997639989015,,,,,,,,,,,,,,,,,,,,,,,,,,,,,,,,,,,,,,,,,,,,,,,,,,,,,,,,,,,,,,,,,467.6841577999294,467.69997639989015,467.69997639989015,468.183102699928,468.1999193999218,470.68306989991106,470.68323499988765,space,1,0.4268991000717506,None,,,,nback2,001,2023-12-07_12h20.10.465,untitled,2023.2.3,59.97184923699001,2023-12-07 13h09.35.921550 -0500,
,"[-0.64, 0.4]",None,,,,,,,,,0,10,10,10,470.69987809995655,,,,,,,,,,,,,,,,,,,,,,,,,,,,,,,,,,,,,,,,,,,,,,,,,,,,,,,,,,,,,,,,,470.68408669997007,470.69987809995655,470.69987809995655,471.1829673999455,471.1996414999012,473.6830943999812,473.6832518998999,None,1,,,,,,nback2,001,2023-12-07_12h20.10.465,untitled,2023.2.3,59.97184923699001,2023-12-07 13h09.35.921550 -0500,
,"[0.2, 0.1]",None,,,,,,,,,0,11,11,11,473.6999386999523,,,,,,,,,,,,,,,,,,,,,,,,,,,,,,,,,,,,,,,,,,,,,,,,,,,,,,,,,,,,,,,,,473.6838596999878,473.6999386999523,473.6999386999523,474.18303089996334,474.1995868999511,476.6830195999937,476.6831923999125,None,1,,,,,,nback2,001,2023-12-07_12h20.10.465,untitled,2023.2.3,59.97184923699001,2023-12-07 13h09.35.921550 -0500,
,"[0.3, 0]",None,,,,,,,,,0,12,12,12,476.6996866998961,,,,,,,,,,,,,,,,,,,,,,,,,,,,,,,,,,,,,,,,,,,,,,,,,,,,,,,,,,,,,,,,,476.6838929998921,476.6996866998961,476.6996866998961,477.18295789998956,477.1996158999391,479.6830019999761,479.6831872999901,None,1,,,,,,nback2,001,2023-12-07_12h20.10.465,untitled,2023.2.3,59.97184923699001,2023-12-07 13h09.35.921550 -0500,
,"[0.2, 0.1]",space,,,,,,,,,0,13,13,13,479.6995796998963,,,,,,,,,,,,,,,,,,,,,,,,,,,,,,,,,,,,,,,,,,,,,,,,,,,,,,,,,,,,,,,,,479.68401379999705,479.6995796998963,479.6995796998963,480.1827986999415,480.19952049991116,482.6829101999756,482.6830868999241,space,1,0.35273289994802326,None,,,,nback2,001,2023-12-07_12h20.10.465,untitled,2023.2.3,59.97184923699001,2023-12-07 13h09.35.921550 -0500,
,"[-0.3, 0]",None,,,,,,,,,0,14,14,14,482.69954439997673,,,,,,,,,,,,,,,,,,,,,,,,,,,,,,,,,,,,,,,,,,,,,,,,,,,,,,,,,,,,,,,,,482.68392679991666,482.69954439997673,482.69954439997673,483.18269509996753,483.19942579988856,485.6829210999422,485.6831179999281,None,1,,,,,,nback2,001,2023-12-07_12h20.10.465,untitled,2023.2.3,59.97184923699001,2023-12-07 13h09.35.921550 -0500,
,"[0, 0.2]",None,,,,,,,,,0,15,15,15,485.6995788998902,,,,,,,,,,,,,,,,,,,,,,,,,,,,,,,,,,,,,,,,,,,,,,,,,,,,,,,,,,,,,,,,,485.68384659988806,485.6995788998902,485.6995788998902,486.1828122999286,486.19953989994247,488.682960899896,488.68315839988645,None,1,,,,,,nback2,001,2023-12-07_12h20.10.465,untitled,2023.2.3,59.97184923699001,2023-12-07 13h09.35.921550 -0500,
,"[-0.3, 0]",space,,,,,,,,,0,16,16,16,488.6994639999466,,,,,,,,,,,,,,,,,,,,,,,,,,,,,,,,,,,,,,,,,,,,,,,,,,,,,,,,,,,,,,,,,488.6839533998864,488.6994639999466,488.6994639999466,489.182761099888,489.1994439999107,491.6828995998949,491.6831546999747,space,1,0.3147580000804737,None,,,,nback2,001,2023-12-07_12h20.10.465,untitled,2023.2.3,59.97184923699001,2023-12-07 13h09.35.921550 -0500,
,"[-0.64, -0.4]",None,,,,,,,,,0,17,17,17,491.6995516999159,,,,,,,,,,,,,,,,,,,,,,,,,,,,,,,,,,,,,,,,,,,,,,,,,,,,,,,,,,,,,,,,,491.68417159991805,491.6995516999159,491.6995516999159,492.1826756999362,492.1992696999805,494.68283399997745,494.68302929995116,None,1,,,,,,nback2,001,2023-12-07_12h20.10.465,untitled,2023.2.3,59.97184923699001,2023-12-07 13h09.35.921550 -0500,
,"[-0.2, -0.1]",None,,,,,,,,,0,18,18,18,494.6994660999626,,,,,,,,,,,,,,,,,,,,,,,,,,,,,,,,,,,,,,,,,,,,,,,,,,,,,,,,,,,,,,,,,494.68396019993816,494.6994660999626,494.6994660999626,495.1826174999587,495.19927369989455,497.6826764999423,497.6828612999525,None,1,,,,,,nback2,001,2023-12-07_12h20.10.465,untitled,2023.2.3,59.97184923699001,2023-12-07 13h09.35.921550 -0500,
,"[0.2, -0.1]",None,,,,,,,,,0,19,19,19,497.69940229994245,,,,,,,,,,,,,,,,,,,,,,,,,,,,,,,,,,,,,,,,,,,,,,,,,,,,,,,,,,,,,,,,,497.68364839989226,497.69940229994245,497.69940229994245,498.1826346999733,498.1993310999824,500.68267589993775,500.6828542998992,None,1,,,,,,nback2,001,2023-12-07_12h20.10.465,untitled,2023.2.3,59.97184923699001,2023-12-07 13h09.35.921550 -0500,
,"[0.2, -0.1]",None,,,,,,,,,0,20,20,20,500.6994096999988,,,,,,,,,,,,,,,,,,,,,,,,,,,,,,,,,,,,,,,,,,,,,,,,,,,,,,,,,,,,,,,,,500.6835831999779,500.6994096999988,500.6994096999988,501.1825333999004,501.1991997999139,503.6826659999788,503.6828896999359,None,1,,,,,,nback2,001,2023-12-07_12h20.10.465,untitled,2023.2.3,59.97184923699001,2023-12-07 13h09.35.921550 -0500,
,"[-0.64, 0.4]",None,,,,,,,,,0,21,21,21,503.6991997999139,,,,,,,,,,,,,,,,,,,,,,,,,,,,,,,,,,,,,,,,,,,,,,,,,,,,,,,,,,,,,,,,,503.68357129988726,503.6991997999139,503.6991997999139,504.18236649991013,504.199096599943,506.6825354999164,506.68276829994284,None,1,,,,,,nback2,001,2023-12-07_12h20.10.465,untitled,2023.2.3,59.97184923699001,2023-12-07 13h09.35.921550 -0500,
,"[0, 0.2]",None,,,,,,,,,0,22,22,22,506.6992799999425,,,,,,,,,,,,,,,,,,,,,,,,,,,,,,,,,,,,,,,,,,,,,,,,,,,,,,,,,,,,,,,,,506.68344899988733,506.6992799999425,506.6992799999425,507.1825264999643,507.1991355998907,509.6825175998965,509.68269089993555,None,1,,,,,,nback2,001,2023-12-07_12h20.10.465,untitled,2023.2.3,59.97184923699001,2023-12-07 13h09.35.921550 -0500,
,"[0.64, -0.4]",None,,,,,,,,,0,23,23,23,509.6991630999837,,,,,,,,,,,,,,,,,,,,,,,,,,,,,,,,,,,,,,,,,,,,,,,,,,,,,,,,,,,,,,,,,509.6834808998974,509.6991630999837,509.6991630999837,510.1824609999312,510.1991540999152,512.6825489999028,512.6827702999581,None,1,,,,,,nback2,001,2023-12-07_12h20.10.465,untitled,2023.2.3,59.97184923699001,2023-12-07 13h09.35.921550 -0500,
,"[0, 0.2]",space,,,,,,,,,0,24,24,24,512.6991022999864,,,,,,,,,,,,,,,,,,,,,,,,,,,,,,,,,,,,,,,,,,,,,,,,,,,,,,,,,,,,,,,,,512.6834979999112,512.6991022999864,512.6991022999864,513.1823165999958,513.1989438999444,515.6824849999975,515.6827365999343,space,1,0.3615128999808803,None,,,,nback2,001,2023-12-07_12h20.10.465,untitled,2023.2.3,59.97184923699001,2023-12-07 13h09.35.921550 -0500,
,"[-0.2, 0.1]",None,,,,,,,,,0,25,25,25,515.699152499903,,,,,,,,,,,,,,,,,,,,,,,,,,,,,,,,,,,,,,,,,,,,,,,,,,,,,,,,,,,,,,,,,515.6837763999356,515.699152499903,515.699152499903,516.1822230999824,516.1987808999838,518.6824714998947,518.6827172999037,space,0,1.7842731999699026,None,,,,nback2,001,2023-12-07_12h20.10.465,untitled,2023.2.3,59.97184923699001,2023-12-07 13h09.35.921550 -0500,
,"[0.3, 0]",None,,,,,,,,,0,26,26,26,518.6988997999579,,,,,,,,,,,,,,,,,,,,,,,,,,,,,,,,,,,,,,,,,,,,,,,,,,,,,,,,,,,,,,,,,518.6837491999613,518.6988997999579,518.6988997999579,519.1822197999572,519.1988619999029,521.6822776999325,521.6824519999791,None,1,,,,,,nback2,001,2023-12-07_12h20.10.465,untitled,2023.2.3,59.97184923699001,2023-12-07 13h09.35.921550 -0500,
,"[-0.2, 0.1]",space,,,,,,,,,0,27,27,27,521.6991461999714,,,,,,,,,,,,,,,,,,,,,,,,,,,,,,,,,,,,,,,,,,,,,,,,,,,,,,,,,,,,,,,,,521.6832425999455,521.6991461999714,521.6991461999714,522.1820754999062,522.1988418999827,524.682336299913,524.682536499924,None,0,,,,,,nback2,001,2023-12-07_12h20.10.465,untitled,2023.2.3,59.97184923699001,2023-12-07 13h09.35.921550 -0500,
,"[-0.2, 0.1]",None,,,,,,,,,0,28,28,28,524.6989685998997,,,,,,,,,,,,,,,,,,,,,,,,,,,,,,,,,,,,,,,,,,,,,,,,,,,,,,,,,,,,,,,,,524.6832936999854,524.6989685998997,524.6989685998997,525.1822100999998,525.1988388999598,527.682038399973,527.6822039999533,space,0,0.6254884999943897,None,,,,nback2,001,2023-12-07_12h20.10.465,untitled,2023.2.3,59.97184923699001,2023-12-07 13h09.35.921550 -0500,
,"[0.2, 0.1]",None,,,,,,,,,0,29,29,29,527.6989055000013,,,,,,,,,,,,,,,,,,,,,,,,,,,,,,,,,,,,,,,,,,,,,,,,,,,,,,,,,,,,,,,,,527.6830307999626,527.6989055000013,527.6989055000013,528.1820247999858,528.1986641999101,530.6821730999509,530.6823400999419,None,1,,,,,,nback2,001,2023-12-07_12h20.10.465,untitled,2023.2.3,59.97184923699001,2023-12-07 13h09.35.921550 -0500,
,"[-0.64, -0.4]",None,,,,,,,,,0,30,30,30,530.6986880999757,,,,,,,,,,,,,,,,,,,,,,,,,,,,,,,,,,,,,,,,,,,,,,,,,,,,,,,,,,,,,,,,,530.6830282999435,530.6986880999757,530.6986880999757,531.1819992999081,531.198623699951,533.6820707999868,533.6822535999818,None,1,,,,,,nback2,001,2023-12-07_12h20.10.465,untitled,2023.2.3,59.97184923699001,2023-12-07 13h09.35.921550 -0500,
,"[0, -0.2]",None,,,,,,,,,0,31,31,31,533.6988692999585,,,,,,,,,,,,,,,,,,,,,,,,,,,,,,,,,,,,,,,,,,,,,,,,,,,,,,,,,,,,,,,,,533.6830399999162,533.6988692999585,533.6988692999585,534.1818710999796,534.1985646999674,536.682196199894,536.6823564999504,None,1,,,,,,nback2,001,2023-12-07_12h20.10.465,untitled,2023.2.3,59.97184923699001,2023-12-07 13h09.35.921550 -0500,
,"[-0.64, -0.4]",space,,,,,,,,,0,32,32,32,536.6988796999212,,,,,,,,,,,,,,,,,,,,,,,,,,,,,,,,,,,,,,,,,,,,,,,,,,,,,,,,,,,,,,,,,536.6831174999243,536.6988796999212,536.6988796999212,537.1819783999817,537.1985136999283,539.6821470999857,539.682325599948,space,1,0.36548759997822344,None,,,,nback2,001,2023-12-07_12h20.10.465,untitled,2023.2.3,59.97184923699001,2023-12-07 13h09.35.921550 -0500,
,"[0.64, 0.4]",None,,,,,,,,,0,33,33,33,539.6985434999224,,,,,,,,,,,,,,,,,,,,,,,,,,,,,,,,,,,,,,,,,,,,,,,,,,,,,,,,,,,,,,,,,539.6831508999458,539.6985434999224,539.6985434999224,540.1821276999544,540.1985838999972,542.6819313999731,542.6821054999018,None,1,,,,,,nback2,001,2023-12-07_12h20.10.465,untitled,2023.2.3,59.97184923699001,2023-12-07 13h09.35.921550 -0500,
,"[-0.3, 0]",None,,,,,,,,,0,34,34,34,542.6988702999661,,,,,,,,,,,,,,,,,,,,,,,,,,,,,,,,,,,,,,,,,,,,,,,,,,,,,,,,,,,,,,,,,542.6828162999591,542.6988702999661,542.6988702999661,543.1818298998987,543.1984011998866,545.6818102999823,545.6819754999597,None,1,,,,,,nback2,001,2023-12-07_12h20.10.465,untitled,2023.2.3,59.97184923699001,2023-12-07 13h09.35.921550 -0500,
,"[0.3, 0]",None,,,,,,,,,0,35,35,35,545.6985909999348,,,,,,,,,,,,,,,,,,,,,,,,,,,,,,,,,,,,,,,,,,,,,,,,,,,,,,,,,,,,,,,,,545.6827424999792,545.6985909999348,545.6985909999348,546.1818812999409,546.1986540999496,548.6818957999349,548.6820794999367,None,1,,,,,,nback2,001,2023-12-07_12h20.10.465,untitled,2023.2.3,59.97184923699001,2023-12-07 13h09.35.921550 -0500,
,"[-0.3, 0]",space,,,,,,,,,0,36,36,36,548.698426399962,,,,,,,,,,,,,,,,,,,,,,,,,,,,,,,,,,,,,,,,,,,,,,,,,,,,,,,,,,,,,,,,,548.6829042999307,548.698426399962,548.698426399962,549.1816875999793,549.1983968999702,551.6818869999843,551.6821040998911,space,1,0.3675064999843016,None,,,,nback2,001,2023-12-07_12h20.10.465,untitled,2023.2.3,59.97184923699001,2023-12-07 13h09.35.921550 -0500,
,"[0, -0.2]",None,,,,,,,,,0,37,37,37,551.6983551000012,,,,,,,,,,,,,,,,,,,,,,,,,,,,,,,,,,,,,,,,,,,,,,,,,,,,,,,,,,,,,,,,,551.6831309999106,551.6983551000012,551.6983551000012,552.181752699893,552.1984287999803,554.6817985998932,554.6819654999999,None,1,,,,,,nback2,001,2023-12-07_12h20.10.465,untitled,2023.2.3,59.97184923699001,2023-12-07 13h09.35.921550 -0500,
,"[0.3, 0]",None,,,,,,,,,0,38,38,38,554.6983412998961,,,,,,,,,,,,,,,,,,,,,,,,,,,,,,,,,,,,,,,,,,,,,,,,,,,,,,,,,,,,,,,,,554.6825900999829,554.6983412998961,554.6983412998961,555.1816582999891,555.1983189999592,557.681703899987,557.6818698999705,None,1,,,,,,nback2,001,2023-12-07_12h20.10.465,untitled,2023.2.3,59.97184923699001,2023-12-07 13h09.35.921550 -0500,
,"[0.2, 0.1]",None,,,,,,,,,0,39,39,39,557.698570999899,,,,,,,,,,,,,,,,,,,,,,,,,,,,,,,,,,,,,,,,,,,,,,,,,,,,,,,,,,,,,,,,,557.6825466000009,557.698570999899,557.698570999899,558.1815158999525,558.1981197999557,560.6817605999531,560.6819686999079,None,1,,,,,,nback2,001,2023-12-07_12h20.10.465,untitled,2023.2.3,59.97184923699001,2023-12-07 13h09.35.921550 -0500,
,,,,,,,,,,,,,,,,,,,,,,,,,,,,,,,,,,,,,,,,,,,,,,,,,,,,,,,,,,,,,,,,,,,,,,,,,,,,,,,,,,,,,,,,,,,560.6825463999994,560.6983510999708,563.6816662999336,,,,,,,,
