square,location,corrAns,trials_0.thisRepN,trials_0.thisTrialN,trials_0.thisN,trials_0.thisIndex,trials_1.thisRepN,trials_1.thisTrialN,trials_1.thisN,trials_1.thisIndex,trials_2.thisRepN,trials_2.thisTrialN,trials_2.thisN,trials_2.thisIndex,thisRow.t,notes,Instructions.started,instructions.started,key_resp.started,inst_sq11.started,Instructions.stopped,key_resp.keys,key_resp.rt,key_resp.duration,All.started,sq_1.started,sq_2.started,sq_3.started,sq_4.started,sq_5.started,sq_6.started,sq_7.started,sq_8.started,sq_9.started,sq_10.started,sq_11.started,sq_12.started,All.stopped,Fixation.started,fixation_3.started,fixation_3.stopped,Fixation.stopped,N_back_0_Trial.started,target_square_0.started,response_0.started,fixation_0.started,target_square_0.stopped,fixation_0.stopped,N_back_0_Trial.stopped,response_0.keys,response_0.corr,response_0.rt,response_0.duration,Instructions_1.started,instructions_1.started,key_resp_1.started,Instructions_1.stopped,key_resp_1.keys,key_resp_1.rt,key_resp_1.duration,N_back_1_Trial.started,target_square_1.started,response_1.started,target_square_1.stopped,fixation_1.started,fixation_1.stopped,response_1.stopped,N_back_1_Trial.stopped,response_1.keys,response_1.corr,response_1.rt,response_1.duration,Instructions_2.started,instructions_2.started,key_resp_2.started,Instructions_2.stopped,key_resp_2.keys,key_resp_2.rt,key_resp_2.duration,N_back_2_trials.started,target_square_2.started,response_2.started,target_square_2.stopped,fixation_2.started,fixation_2.stopped,response_2.stopped,N_back_2_trials.stopped,response_2.keys,response_2.corr,response_2.rt,response_2.duration,End.started,thank_you.started,thank_you.stopped,End.stopped,participant,session,date,expName,psychopyVersion,frameRate,expStart,
,,,,,,,,,,,,,,,,,0.001454599987482652,0.003911600011633709,0.003911600011633709,0.003911600011633709,2001.4913098000106,space,2001.4744957000075,None,,,,,,,,,,,,,,,,,,,,,,,,,,,,,,,,,,,,,,,,,,,,,,,,,,,,,,,,,,,,,,,,,,,,,,,,nback50,001,2024-01-12_12h34.26.209,untitled,2023.2.3,60.022496431766875,2024-01-12 12h51.04.478426 -0500,
6,"[-0.3, 0]",None,0,0,0,0,,,,,,,,,2003.5087266000046,,,,,,,,,,2001.4913555000094,2001.5067268999992,2001.5067268999992,2001.5067268999992,2001.5067268999992,2001.5067268999992,2001.5067268999992,2001.5067268999992,2001.5067268999992,2001.5067268999992,2001.5067268999992,2001.5067268999992,2001.5067268999992,2002.4905168999976,2002.4905314999924,2002.5067961000022,2003.5087266000046,2003.4910073000065,2003.5066672000103,2003.5087266000046,2003.5087266000046,2003.9901250000112,2004.023440399993,2006.4900809999963,2006.5070012999931,None,1,,,,,,,,,,,,,,,,,,,,,,,,,,,,,,,,,,,,,,,,,,,,,nback50,001,2024-01-12_12h34.26.209,untitled,2023.2.3,60.022496431766875,2024-01-12 12h51.04.478426 -0500,
10,"[0, -0.2]",None,0,1,1,1,,,,,,,,,2006.5235574000108,,,,,,,,,,,,,,,,,,,,,,,,,,,,2006.5079583000042,2006.5235574000108,2006.5235574000108,2006.9900152999908,2007.023345499998,2009.490038799995,2009.5068347000051,None,1,,,,,,,,,,,,,,,,,,,,,,,,,,,,,,,,,,,,,,,,,,,,,nback50,001,2024-01-12_12h34.26.209,untitled,2023.2.3,60.022496431766875,2024-01-12 12h51.04.478426 -0500,
11,"[-0.64, -0.4]",space,0,2,2,2,,,,,,,,,2009.5233350000053,,,,,,,,,,,,,,,,,,,,,,,,,,,,2009.5075237000128,2009.5233350000053,2009.5233350000053,2009.9901018000091,2010.0233038000006,2012.490037599986,2012.506904799986,space,1,0.4270789999864064,None,,,,,,,,,,,,,,,,,,,,,,,,,,,,,,,,,,,,,,,,,,,nback50,001,2024-01-12_12h34.26.209,untitled,2023.2.3,60.022496431766875,2024-01-12 12h51.04.478426 -0500,
12,"[0.64, -0.4]",None,0,3,3,3,,,,,,,,,2012.523261299997,,,,,,,,,,,,,,,,,,,,,,,,,,,,2012.5081235000107,2012.523261299997,2012.523261299997,2012.9899697999936,2013.023343000008,2015.489972100011,2015.5067997000006,None,1,,,,,,,,,,,,,,,,,,,,,,,,,,,,,,,,,,,,,,,,,,,,,nback50,001,2024-01-12_12h34.26.209,untitled,2023.2.3,60.022496431766875,2024-01-12 12h51.04.478426 -0500,
1,"[-0.64, 0.4]",None,0,4,4,4,,,,,,,,,2015.52337000001,,,,,,,,,,,,,,,,,,,,,,,,,,,,2015.5076394999924,2015.52337000001,2015.52337000001,2015.9900102000101,2016.0233775000088,2018.4897365999932,2018.5067810000037,None,1,,,,,,,,,,,,,,,,,,,,,,,,,,,,,,,,,,,,,,,,,,,,,nback50,001,2024-01-12_12h34.26.209,untitled,2023.2.3,60.022496431766875,2024-01-12 12h51.04.478426 -0500,
1,"[-0.64, 0.4]",None,0,5,5,5,,,,,,,,,2018.5232159000007,,,,,,,,,,,,,,,,,,,,,,,,,,,,2018.5075597999967,2018.5232159000007,2018.5232159000007,2018.9897872000001,2019.023144900013,2021.4899191999866,2021.5068014000135,None,1,,,,,,,,,,,,,,,,,,,,,,,,,,,,,,,,,,,,,,,,,,,,,nback50,001,2024-01-12_12h34.26.209,untitled,2023.2.3,60.022496431766875,2024-01-12 12h51.04.478426 -0500,
4,"[-0.2, 0.1]",None,0,6,6,6,,,,,,,,,2021.523236899986,,,,,,,,,,,,,,,,,,,,,,,,,,,,2021.5076398999954,2021.523236899986,2021.523236899986,2021.9898724000086,2022.0231587000017,2024.489792200009,2024.5066286000074,None,1,,,,,,,,,,,,,,,,,,,,,,,,,,,,,,,,,,,,,,,,,,,,,nback50,001,2024-01-12_12h34.26.209,untitled,2023.2.3,60.022496431766875,2024-01-12 12h51.04.478426 -0500,
5,"[0.2, 0.1]",None,0,7,7,7,,,,,,,,,2024.5231255000108,,,,,,,,,,,,,,,,,,,,,,,,,,,,2024.5073866999883,2024.5231255000108,2024.5231255000108,2024.9898751,2025.0230940000038,2027.4895498999977,2027.5063937999948,None,1,,,,,,,,,,,,,,,,,,,,,,,,,,,,,,,,,,,,,,,,,,,,,nback50,001,2024-01-12_12h34.26.209,untitled,2023.2.3,60.022496431766875,2024-01-12 12h51.04.478426 -0500,
11,"[-0.64, -0.4]",space,0,8,8,8,,,,,,,,,2027.5229437999951,,,,,,,,,,,,,,,,,,,,,,,,,,,,2027.5067910999933,2027.5229437999951,2027.5229437999951,2027.989679499995,2028.0230142000073,2030.489609799988,2030.506582300004,space,1,0.5336149999930058,None,,,,,,,,,,,,,,,,,,,,,,,,,,,,,,,,,,,,,,,,,,,nback50,001,2024-01-12_12h34.26.209,untitled,2023.2.3,60.022496431766875,2024-01-12 12h51.04.478426 -0500,
9,"[0.2, -0.1]",None,0,9,9,9,,,,,,,,,2030.522887500003,,,,,,,,,,,,,,,,,,,,,,,,,,,,2030.5074729000044,2030.522887500003,2030.522887500003,2030.9896814000094,2031.0229955000104,2033.489590799989,2033.506625500013,None,1,,,,,,,,,,,,,,,,,,,,,,,,,,,,,,,,,,,,,,,,,,,,,nback50,001,2024-01-12_12h34.26.209,untitled,2023.2.3,60.022496431766875,2024-01-12 12h51.04.478426 -0500,
8,"[-0.2, -0.1]",None,0,10,10,10,,,,,,,,,2033.522825699998,,,,,,,,,,,,,,,,,,,,,,,,,,,,2033.5073027999897,2033.522825699998,2033.522825699998,2033.9894414999872,2034.0230112999852,2036.4897270000074,2036.506360200001,None,1,,,,,,,,,,,,,,,,,,,,,,,,,,,,,,,,,,,,,,,,,,,,,nback50,001,2024-01-12_12h34.26.209,untitled,2023.2.3,60.022496431766875,2024-01-12 12h51.04.478426 -0500,
9,"[0.2, -0.1]",None,0,11,11,11,,,,,,,,,2036.5229047999892,,,,,,,,,,,,,,,,,,,,,,,,,,,,2036.5069713999983,2036.5229047999892,2036.5229047999892,2036.9897220999992,2037.0231212000072,2039.4896316000086,2039.5062246999878,None,1,,,,,,,,,,,,,,,,,,,,,,,,,,,,,,,,,,,,,,,,,,,,,nback50,001,2024-01-12_12h34.26.209,untitled,2023.2.3,60.022496431766875,2024-01-12 12h51.04.478426 -0500,
6,"[-0.3, 0]",None,0,12,12,12,,,,,,,,,2039.5228711999953,,,,,,,,,,,,,,,,,,,,,,,,,,,,2039.5068610000017,2039.5228711999953,2039.5228711999953,2039.989458600001,2040.0227769000048,2042.4894077999925,2042.5062550999864,None,1,,,,,,,,,,,,,,,,,,,,,,,,,,,,,,,,,,,,,,,,,,,,,nback50,001,2024-01-12_12h34.26.209,untitled,2023.2.3,60.022496431766875,2024-01-12 12h51.04.478426 -0500,
9,"[0.2, -0.1]",None,0,13,13,13,,,,,,,,,2042.5228134999925,,,,,,,,,,,,,,,,,,,,,,,,,,,,2042.5070208999969,2042.5228134999925,2042.5228134999925,2042.9895482999855,2043.0226974000107,2045.4895232999988,2045.506348099996,None,1,,,,,,,,,,,,,,,,,,,,,,,,,,,,,,,,,,,,,,,,,,,,,nback50,001,2024-01-12_12h34.26.209,untitled,2023.2.3,60.022496431766875,2024-01-12 12h51.04.478426 -0500,
7,"[0.3, 0]",None,0,14,14,14,,,,,,,,,2045.5227180999937,,,,,,,,,,,,,,,,,,,,,,,,,,,,2045.5071754000091,2045.5227180999937,2045.5227180999937,2046.0060706000077,2046.0228619000118,2048.5061531999963,2048.506320299988,None,1,,,,,,,,,,,,,,,,,,,,,,,,,,,,,,,,,,,,,,,,,,,,,nback50,001,2024-01-12_12h34.26.209,untitled,2023.2.3,60.022496431766875,2024-01-12 12h51.04.478426 -0500,
2,"[0.64, 0.4]",None,0,15,15,15,,,,,,,,,2048.52274819999,,,,,,,,,,,,,,,,,,,,,,,,,,,,2048.506977000012,2048.52274819999,2048.52274819999,2049.006033999991,2049.022808799986,2051.505996699998,2051.506183199992,None,1,,,,,,,,,,,,,,,,,,,,,,,,,,,,,,,,,,,,,,,,,,,,,nback50,001,2024-01-12_12h34.26.209,untitled,2023.2.3,60.022496431766875,2024-01-12 12h51.04.478426 -0500,
2,"[0.64, 0.4]",None,0,16,16,16,,,,,,,,,2051.5224968999973,,,,,,,,,,,,,,,,,,,,,,,,,,,,2051.5069397999905,2051.5224968999973,2051.5224968999973,2052.0059578999935,2052.0226212000125,2054.5060639999865,2054.5062702999858,None,1,,,,,,,,,,,,,,,,,,,,,,,,,,,,,,,,,,,,,,,,,,,,,nback50,001,2024-01-12_12h34.26.209,untitled,2023.2.3,60.022496431766875,2024-01-12 12h51.04.478426 -0500,
11,"[-0.64, -0.4]",space,0,17,17,17,,,,,,,,,2054.522771399992,,,,,,,,,,,,,,,,,,,,,,,,,,,,2054.5070281999942,2054.522771399992,2054.522771399992,2055.0060098000104,2055.0227004000044,2057.506008299999,2057.506218499999,space,1,0.44413210000493564,None,,,,,,,,,,,,,,,,,,,,,,,,,,,,,,,,,,,,,,,,,,,nback50,001,2024-01-12_12h34.26.209,untitled,2023.2.3,60.022496431766875,2024-01-12 12h51.04.478426 -0500,
11,"[-0.64, -0.4]",space,0,18,18,18,,,,,,,,,2057.5224516000017,,,,,,,,,,,,,,,,,,,,,,,,,,,,2057.5072261999885,2057.5224516000017,2057.5224516000017,2058.0059044999944,2058.022479600011,2060.505913400004,2060.5061242000083,space,1,0.5393953000020701,None,,,,,,,,,,,,,,,,,,,,,,,,,,,,,,,,,,,,,,,,,,,nback50,001,2024-01-12_12h34.26.209,untitled,2023.2.3,60.022496431766875,2024-01-12 12h51.04.478426 -0500,
7,"[0.3, 0]",None,0,19,19,19,,,,,,,,,2060.5226553000102,,,,,,,,,,,,,,,,,,,,,,,,,,,,2060.5071006999933,2060.5226553000102,2060.5226553000102,2061.0059072999866,2061.022486700007,2063.5059707000037,2063.506158300006,None,1,,,,,,,,,,,,,,,,,,,,,,,,,,,,,,,,,,,,,,,,,,,,,nback50,001,2024-01-12_12h34.26.209,untitled,2023.2.3,60.022496431766875,2024-01-12 12h51.04.478426 -0500,
3,"[0, 0.2]",None,0,20,20,20,,,,,,,,,2063.5224929999968,,,,,,,,,,,,,,,,,,,,,,,,,,,,2063.5068852000113,2063.5224929999968,2063.5224929999968,2064.0059066000103,2064.0225029999856,2066.5057338000042,2066.5059019000037,None,1,,,,,,,,,,,,,,,,,,,,,,,,,,,,,,,,,,,,,,,,,,,,,nback50,001,2024-01-12_12h34.26.209,untitled,2023.2.3,60.022496431766875,2024-01-12 12h51.04.478426 -0500,
10,"[0, -0.2]",None,0,21,21,21,,,,,,,,,2066.5223979,,,,,,,,,,,,,,,,,,,,,,,,,,,,2066.506623399997,2066.5223979,2066.5223979,2067.0058523000043,2067.022391800012,2069.505631200009,2069.5057966999884,None,1,,,,,,,,,,,,,,,,,,,,,,,,,,,,,,,,,,,,,,,,,,,,,nback50,001,2024-01-12_12h34.26.209,untitled,2023.2.3,60.022496431766875,2024-01-12 12h51.04.478426 -0500,
1,"[-0.64, 0.4]",None,0,22,22,22,,,,,,,,,2069.522481299995,,,,,,,,,,,,,,,,,,,,,,,,,,,,2069.506426100008,2069.522481299995,2069.522481299995,2070.0057282999915,2070.022390500002,2072.505693999992,2072.505893900001,None,1,,,,,,,,,,,,,,,,,,,,,,,,,,,,,,,,,,,,,,,,,,,,,nback50,001,2024-01-12_12h34.26.209,untitled,2023.2.3,60.022496431766875,2024-01-12 12h51.04.478426 -0500,
2,"[0.64, 0.4]",None,0,23,23,23,,,,,,,,,2072.5223500999855,,,,,,,,,,,,,,,,,,,,,,,,,,,,2072.5066787000105,2072.5223500999855,2072.5223500999855,2073.005568499997,2073.022292400012,2075.5056662000134,2075.5058426999894,None,1,,,,,,,,,,,,,,,,,,,,,,,,,,,,,,,,,,,,,,,,,,,,,nback50,001,2024-01-12_12h34.26.209,untitled,2023.2.3,60.022496431766875,2024-01-12 12h51.04.478426 -0500,
6,"[-0.3, 0]",None,0,24,24,24,,,,,,,,,2075.5223804000125,,,,,,,,,,,,,,,,,,,,,,,,,,,,2075.5065807999927,2075.5223804000125,2075.5223804000125,2076.00560959999,2076.0223687000107,2078.5056064999953,2078.5057962999854,None,1,,,,,,,,,,,,,,,,,,,,,,,,,,,,,,,,,,,,,,,,,,,,,nback50,001,2024-01-12_12h34.26.209,untitled,2023.2.3,60.022496431766875,2024-01-12 12h51.04.478426 -0500,
3,"[0, 0.2]",None,0,25,25,25,,,,,,,,,2078.5222239999857,,,,,,,,,,,,,,,,,,,,,,,,,,,,2078.506523399992,2078.5222239999857,2078.5222239999857,2079.005551999988,2079.022248299996,2081.5054306999955,2081.5055997000018,None,1,,,,,,,,,,,,,,,,,,,,,,,,,,,,,,,,,,,,,,,,,,,,,nback50,001,2024-01-12_12h34.26.209,untitled,2023.2.3,60.022496431766875,2024-01-12 12h51.04.478426 -0500,
11,"[-0.64, -0.4]",space,0,26,26,26,,,,,,,,,2081.522272400005,,,,,,,,,,,,,,,,,,,,,,,,,,,,2081.5063333,2081.522272400005,2081.522272400005,2082.0054827999847,2082.0220491999935,2084.5055388000037,2084.505722800008,space,1,0.4554305000056047,None,,,,,,,,,,,,,,,,,,,,,,,,,,,,,,,,,,,,,,,,,,,nback50,001,2024-01-12_12h34.26.209,untitled,2023.2.3,60.022496431766875,2024-01-12 12h51.04.478426 -0500,
1,"[-0.64, 0.4]",None,0,27,27,27,,,,,,,,,2084.5221059999894,,,,,,,,,,,,,,,,,,,,,,,,,,,,2084.506606799987,2084.5221059999894,2084.5221059999894,2085.0054994999955,2085.022196900012,2087.5052996999875,2087.505442499998,None,1,,,,,,,,,,,,,,,,,,,,,,,,,,,,,,,,,,,,,,,,,,,,,nback50,001,2024-01-12_12h34.26.209,untitled,2023.2.3,60.022496431766875,2024-01-12 12h51.04.478426 -0500,
3,"[0, 0.2]",None,0,28,28,28,,,,,,,,,2087.5218650999886,,,,,,,,,,,,,,,,,,,,,,,,,,,,2087.5059457999887,2087.5218650999886,2087.5218650999886,2088.0053942000086,2088.0222600999987,2090.505435800005,2090.5056375999993,None,1,,,,,,,,,,,,,,,,,,,,,,,,,,,,,,,,,,,,,,,,,,,,,nback50,001,2024-01-12_12h34.26.209,untitled,2023.2.3,60.022496431766875,2024-01-12 12h51.04.478426 -0500,
9,"[0.2, -0.1]",None,0,29,29,29,,,,,,,,,2090.5220598999877,,,,,,,,,,,,,,,,,,,,,,,,,,,,2090.5064497999847,2090.5220598999877,2090.5220598999877,2091.0053688999906,2091.02203729999,2093.505288399989,2093.5054721999913,None,1,,,,,,,,,,,,,,,,,,,,,,,,,,,,,,,,,,,,,,,,,,,,,nback50,001,2024-01-12_12h34.26.209,untitled,2023.2.3,60.022496431766875,2024-01-12 12h51.04.478426 -0500,
8,"[-0.2, -0.1]",None,0,30,30,30,,,,,,,,,2093.522028999985,,,,,,,,,,,,,,,,,,,,,,,,,,,,2093.506179899996,2093.522028999985,2093.522028999985,2094.0053431999986,2094.0220487999904,2096.505188899988,2096.5053427999956,None,1,,,,,,,,,,,,,,,,,,,,,,,,,,,,,,,,,,,,,,,,,,,,,nback50,001,2024-01-12_12h34.26.209,untitled,2023.2.3,60.022496431766875,2024-01-12 12h51.04.478426 -0500,
12,"[0.64, -0.4]",None,0,31,31,31,,,,,,,,,2096.5219156999956,,,,,,,,,,,,,,,,,,,,,,,,,,,,2096.5059378999867,2096.5219156999956,2096.5219156999956,2097.005171800003,2097.021812699997,2099.5051294000004,2099.50530769999,None,1,,,,,,,,,,,,,,,,,,,,,,,,,,,,,,,,,,,,,,,,,,,,,nback50,001,2024-01-12_12h34.26.209,untitled,2023.2.3,60.022496431766875,2024-01-12 12h51.04.478426 -0500,
9,"[0.2, -0.1]",None,0,32,32,32,,,,,,,,,2099.5218797000125,,,,,,,,,,,,,,,,,,,,,,,,,,,,2099.505983400013,2099.5218797000125,2099.5218797000125,2100.0052420999855,2100.0217860999983,2102.5052014999965,2102.5053817000007,None,1,,,,,,,,,,,,,,,,,,,,,,,,,,,,,,,,,,,,,,,,,,,,,nback50,001,2024-01-12_12h34.26.209,untitled,2023.2.3,60.022496431766875,2024-01-12 12h51.04.478426 -0500,
11,"[-0.64, -0.4]",space,0,33,33,33,,,,,,,,,2102.5219118999958,,,,,,,,,,,,,,,,,,,,,,,,,,,,2102.506226800004,2102.5219118999958,2102.5219118999958,2103.004992900009,2103.0217712000012,2105.5052246999985,2105.505421699985,space,1,0.4513311999908183,None,,,,,,,,,,,,,,,,,,,,,,,,,,,,,,,,,,,,,,,,,,,nback50,001,2024-01-12_12h34.26.209,untitled,2023.2.3,60.022496431766875,2024-01-12 12h51.04.478426 -0500,
7,"[0.3, 0]",None,0,34,34,34,,,,,,,,,2105.5217962999886,,,,,,,,,,,,,,,,,,,,,,,,,,,,2105.5063351000135,2105.5217962999886,2105.5217962999886,2106.0050311000086,2106.0216882000095,2108.5050593999913,2108.505262199993,None,1,,,,,,,,,,,,,,,,,,,,,,,,,,,,,,,,,,,,,,,,,,,,,nback50,001,2024-01-12_12h34.26.209,untitled,2023.2.3,60.022496431766875,2024-01-12 12h51.04.478426 -0500,
11,"[-0.64, -0.4]",space,0,35,35,35,,,,,,,,,2108.521716599993,,,,,,,,,,,,,,,,,,,,,,,,,,,,2108.506092800002,2108.521716599993,2108.521716599993,2109.005056199996,2109.021538300003,2111.505025199993,2111.505231499992,space,1,0.40386819999548607,None,,,,,,,,,,,,,,,,,,,,,,,,,,,,,,,,,,,,,,,,,,,nback50,001,2024-01-12_12h34.26.209,untitled,2023.2.3,60.022496431766875,2024-01-12 12h51.04.478426 -0500,
4,"[-0.2, 0.1]",None,0,36,36,36,,,,,,,,,2111.5217297000054,,,,,,,,,,,,,,,,,,,,,,,,,,,,2111.5062410999963,2111.5217297000054,2111.5217297000054,2112.0049481999886,2112.0216055999917,2114.5050630999904,2114.5052878000133,None,1,,,,,,,,,,,,,,,,,,,,,,,,,,,,,,,,,,,,,,,,,,,,,nback50,001,2024-01-12_12h34.26.209,untitled,2023.2.3,60.022496431766875,2024-01-12 12h51.04.478426 -0500,
5,"[0.2, 0.1]",None,0,37,37,37,,,,,,,,,2114.52165770001,,,,,,,,,,,,,,,,,,,,,,,,,,,,2114.5061716999917,2114.52165770001,2114.52165770001,2115.0048755999887,2115.021621699998,2117.504826499993,2117.505013499991,None,1,,,,,,,,,,,,,,,,,,,,,,,,,,,,,,,,,,,,,,,,,,,,,nback50,001,2024-01-12_12h34.26.209,untitled,2023.2.3,60.022496431766875,2024-01-12 12h51.04.478426 -0500,
6,"[-0.3, 0]",None,0,38,38,38,,,,,,,,,2117.521680500009,,,,,,,,,,,,,,,,,,,,,,,,,,,,2117.505746400013,2117.521680500009,2117.521680500009,2118.0048319000052,2118.0214940999867,2120.504941399995,2120.5051498000103,None,1,,,,,,,,,,,,,,,,,,,,,,,,,,,,,,,,,,,,,,,,,,,,,nback50,001,2024-01-12_12h34.26.209,untitled,2023.2.3,60.022496431766875,2024-01-12 12h51.04.478426 -0500,
11,"[-0.64, -0.4]",space,0,39,39,39,,,,,,,,,2120.5216330999974,,,,,,,,,,,,,,,,,,,,,,,,,,,,2120.505897700001,2120.5216330999974,2120.5216330999974,2121.0048667000083,2121.0214740000083,2123.5047780000023,2123.5049656000047,space,1,0.48178139998344705,None,,,,,,,,,,,,,,,,,,,,,,,,,,,,,,,,,,,,,,,,,,,nback50,001,2024-01-12_12h34.26.209,untitled,2023.2.3,60.022496431766875,2024-01-12 12h51.04.478426 -0500,
,,,,,,,,,,,,,,,,,,,,,,,,,,,,,,,,,,,,,,,,,,,,,,,,,,,,,,2123.5056737000123,2123.5215207999863,2123.5215207999863,2141.3063915999955,space,17.7675506999949,None,,,,,,,,,,,,,,,,,,,,,,,,,,,,,,,,,,,,nback50,001,2024-01-12_12h34.26.209,untitled,2023.2.3,60.022496431766875,2024-01-12 12h51.04.478426 -0500,
10,"[0, -0.2]",None,,,,,0,0,0,0,,,,,2142.321023800003,,,,,,,,,,,,,,,,,,,,,,,,2141.3064379999996,2141.321179499995,2142.321023800003,2142.3056057000067,,,,,,,,,,,,,,,,,,,2142.3185102000134,2142.321023800003,2142.321023800003,2142.821115400002,2142.821115400002,2145.3209999999963,2145.3209999999963,2145.305472200009,None,1,,,,,,,,,,,,,,,,,,,,,,,,,,nback50,001,2024-01-12_12h34.26.209,untitled,2023.2.3,60.022496431766875,2024-01-12 12h51.04.478426 -0500,
5,"[0.2, 0.1]",None,,,,,0,1,1,1,,,,,2145.3209999999963,,,,,,,,,,,,,,,,,,,,,,,,,,,,,,,,,,,,,,,,,,,,,,2145.306356199988,2145.3209999999963,2145.3209999999963,2145.8209485000116,2145.8209485000116,2148.3209929000004,2148.3209929000004,2148.3052567999985,None,1,,,,,,,,,,,,,,,,,,,,,,,,,,nback50,001,2024-01-12_12h34.26.209,untitled,2023.2.3,60.022496431766875,2024-01-12 12h51.04.478426 -0500,
6,"[-0.3, 0]",None,,,,,0,2,2,2,,,,,2148.3209929000004,,,,,,,,,,,,,,,,,,,,,,,,,,,,,,,,,,,,,,,,,,,,,,2148.3059782999917,2148.3209929000004,2148.3209929000004,2148.8210749999853,2148.8210749999853,2151.320934599993,2151.320934599993,2151.305072099989,None,1,,,,,,,,,,,,,,,,,,,,,,,,,,nback50,001,2024-01-12_12h34.26.209,untitled,2023.2.3,60.022496431766875,2024-01-12 12h51.04.478426 -0500,
6,"[-0.3, 0]",space,,,,,0,3,3,3,,,,,2151.320934599993,,,,,,,,,,,,,,,,,,,,,,,,,,,,,,,,,,,,,,,,,,,,,,2151.3056803999934,2151.320934599993,2151.320934599993,2151.8209007999976,2151.8209007999976,2154.3208916999865,2154.3208916999865,2154.3047946000006,space,1,0.5574178000097163,None,,,,,,,,,,,,,,,,,,,,,,,,nback50,001,2024-01-12_12h34.26.209,untitled,2023.2.3,60.022496431766875,2024-01-12 12h51.04.478426 -0500,
12,"[0.64, -0.4]",None,,,,,0,4,4,4,,,,,2154.3208916999865,,,,,,,,,,,,,,,,,,,,,,,,,,,,,,,,,,,,,,,,,,,,,,2154.305614599987,2154.3208916999865,2154.3208916999865,2154.820952000009,2154.820952000009,2157.3207530000072,2157.3207530000072,2157.3048769999878,None,1,,,,,,,,,,,,,,,,,,,,,,,,,,nback50,001,2024-01-12_12h34.26.209,untitled,2023.2.3,60.022496431766875,2024-01-12 12h51.04.478426 -0500,
10,"[0, -0.2]",None,,,,,0,5,5,5,,,,,2157.3207530000072,,,,,,,,,,,,,,,,,,,,,,,,,,,,,,,,,,,,,,,,,,,,,,2157.3054544999904,2157.3207530000072,2157.3207530000072,2157.8209190999914,2157.8209190999914,2160.320753899985,2160.320753899985,2160.305040200008,None,1,,,,,,,,,,,,,,,,,,,,,,,,,,nback50,001,2024-01-12_12h34.26.209,untitled,2023.2.3,60.022496431766875,2024-01-12 12h51.04.478426 -0500,
2,"[0.64, 0.4]",None,,,,,0,6,6,6,,,,,2160.320753899985,,,,,,,,,,,,,,,,,,,,,,,,,,,,,,,,,,,,,,,,,,,,,,2160.3059232000087,2160.320753899985,2160.320753899985,2160.820768400008,2160.820768400008,2163.3207914000086,2163.3207914000086,2163.304844500002,None,1,,,,,,,,,,,,,,,,,,,,,,,,,,nback50,001,2024-01-12_12h34.26.209,untitled,2023.2.3,60.022496431766875,2024-01-12 12h51.04.478426 -0500,
9,"[0.2, -0.1]",None,,,,,0,7,7,7,,,,,2163.3207914000086,,,,,,,,,,,,,,,,,,,,,,,,,,,,,,,,,,,,,,,,,,,,,,2163.305459299998,2163.3207914000086,2163.3207914000086,2163.8208938000025,2163.8208938000025,2166.3207253,2166.3207253,2166.3047853999888,None,1,,,,,,,,,,,,,,,,,,,,,,,,,,nback50,001,2024-01-12_12h34.26.209,untitled,2023.2.3,60.022496431766875,2024-01-12 12h51.04.478426 -0500,
9,"[0.2, -0.1]",space,,,,,0,8,8,8,,,,,2166.3207253,,,,,,,,,,,,,,,,,,,,,,,,,,,,,,,,,,,,,,,,,,,,,,2166.3053990000044,2166.3207253,2166.3207253,2166.82077749999,2166.82077749999,2169.3206123000127,2169.3206123000127,2169.3051913999952,space,1,0.4448292000161018,None,,,,,,,,,,,,,,,,,,,,,,,,nback50,001,2024-01-12_12h34.26.209,untitled,2023.2.3,60.022496431766875,2024-01-12 12h51.04.478426 -0500,
6,"[-0.3, 0]",None,,,,,0,9,9,9,,,,,2169.3206123000127,,,,,,,,,,,,,,,,,,,,,,,,,,,,,,,,,,,,,,,,,,,,,,2169.3061312999926,2169.3206123000127,2169.3206123000127,2169.8206340000033,2169.8206340000033,2172.3206391999847,2172.3206391999847,2172.3050931000034,None,1,,,,,,,,,,,,,,,,,,,,,,,,,,nback50,001,2024-01-12_12h34.26.209,untitled,2023.2.3,60.022496431766875,2024-01-12 12h51.04.478426 -0500,
11,"[-0.64, -0.4]",None,,,,,0,10,10,10,,,,,2172.3206391999847,,,,,,,,,,,,,,,,,,,,,,,,,,,,,,,,,,,,,,,,,,,,,,2172.305875799997,2172.3206391999847,2172.3206391999847,2172.820671399997,2172.820671399997,2175.320577400009,2175.320577400009,2175.3044477000076,None,1,,,,,,,,,,,,,,,,,,,,,,,,,,nback50,001,2024-01-12_12h34.26.209,untitled,2023.2.3,60.022496431766875,2024-01-12 12h51.04.478426 -0500,
11,"[-0.64, -0.4]",space,,,,,0,11,11,11,,,,,2175.320577400009,,,,,,,,,,,,,,,,,,,,,,,,,,,,,,,,,,,,,,,,,,,,,,2175.3050051000027,2175.320577400009,2175.320577400009,2175.820516100008,2175.820516100008,2178.3204044000013,2178.3204044000013,2178.3041452000034,space,1,0.43706190001103096,None,,,,,,,,,,,,,,,,,,,,,,,,nback50,001,2024-01-12_12h34.26.209,untitled,2023.2.3,60.022496431766875,2024-01-12 12h51.04.478426 -0500,
4,"[-0.2, 0.1]",None,,,,,0,12,12,12,,,,,2178.3204044000013,,,,,,,,,,,,,,,,,,,,,,,,,,,,,,,,,,,,,,,,,,,,,,2178.3045898000128,2178.3204044000013,2178.3204044000013,2178.820459300012,2178.820459300012,2181.320489500009,2181.320489500009,2181.30465179999,None,1,,,,,,,,,,,,,,,,,,,,,,,,,,nback50,001,2024-01-12_12h34.26.209,untitled,2023.2.3,60.022496431766875,2024-01-12 12h51.04.478426 -0500,
3,"[0, 0.2]",None,,,,,0,13,13,13,,,,,2181.320489500009,,,,,,,,,,,,,,,,,,,,,,,,,,,,,,,,,,,,,,,,,,,,,,2181.305328599992,2181.320489500009,2181.320489500009,2181.820409000007,2181.820409000007,2184.320497700013,2184.320497700013,2184.3047905999993,None,1,,,,,,,,,,,,,,,,,,,,,,,,,,nback50,001,2024-01-12_12h34.26.209,untitled,2023.2.3,60.022496431766875,2024-01-12 12h51.04.478426 -0500,
3,"[0, 0.2]",space,,,,,0,14,14,14,,,,,2184.320497700013,,,,,,,,,,,,,,,,,,,,,,,,,,,,,,,,,,,,,,,,,,,,,,2184.3056036999915,2184.320497700013,2184.320497700013,2184.8205095999874,2184.8205095999874,2187.3205349000054,2187.3205349000054,2187.3046056999883,space,1,0.5668899000156671,None,,,,,,,,,,,,,,,,,,,,,,,,nback50,001,2024-01-12_12h34.26.209,untitled,2023.2.3,60.022496431766875,2024-01-12 12h51.04.478426 -0500,
8,"[-0.2, -0.1]",None,,,,,0,15,15,15,,,,,2187.3205349000054,,,,,,,,,,,,,,,,,,,,,,,,,,,,,,,,,,,,,,,,,,,,,,2187.3054798000085,2187.3205349000054,2187.3205349000054,2187.820291399985,2187.820291399985,2190.3202751000063,2190.3202751000063,2190.3044832999876,None,1,,,,,,,,,,,,,,,,,,,,,,,,,,nback50,001,2024-01-12_12h34.26.209,untitled,2023.2.3,60.022496431766875,2024-01-12 12h51.04.478426 -0500,
1,"[-0.64, 0.4]",None,,,,,0,16,16,16,,,,,2190.3202751000063,,,,,,,,,,,,,,,,,,,,,,,,,,,,,,,,,,,,,,,,,,,,,,2190.305203099997,2190.3202751000063,2190.3202751000063,2190.820478699985,2190.820478699985,2193.3203062000102,2193.3203062000102,2193.3044660000014,None,1,,,,,,,,,,,,,,,,,,,,,,,,,,nback50,001,2024-01-12_12h34.26.209,untitled,2023.2.3,60.022496431766875,2024-01-12 12h51.04.478426 -0500,
2,"[0.64, 0.4]",None,,,,,0,17,17,17,,,,,2193.3203062000102,,,,,,,,,,,,,,,,,,,,,,,,,,,,,,,,,,,,,,,,,,,,,,2193.305229299993,2193.3203062000102,2193.3203062000102,2193.8202392999956,2193.8202392999956,2196.320175700006,2196.320175700006,2196.3043269999907,None,1,,,,,,,,,,,,,,,,,,,,,,,,,,nback50,001,2024-01-12_12h34.26.209,untitled,2023.2.3,60.022496431766875,2024-01-12 12h51.04.478426 -0500,
4,"[-0.2, 0.1]",None,,,,,0,18,18,18,,,,,2196.320175700006,,,,,,,,,,,,,,,,,,,,,,,,,,,,,,,,,,,,,,,,,,,,,,2196.30493459999,2196.320175700006,2196.320175700006,2196.8200975999935,2196.8200975999935,2199.3200477999926,2199.3200477999926,2199.3042459000135,None,1,,,,,,,,,,,,,,,,,,,,,,,,,,nback50,001,2024-01-12_12h34.26.209,untitled,2023.2.3,60.022496431766875,2024-01-12 12h51.04.478426 -0500,
4,"[-0.2, 0.1]",space,,,,,0,19,19,19,,,,,2199.3200477999926,,,,,,,,,,,,,,,,,,,,,,,,,,,,,,,,,,,,,,,,,,,,,,2199.3049796000123,2199.3200477999926,2199.3200477999926,2199.8200955000066,2199.8200955000066,2202.3200510999886,2202.3200510999886,2202.304219999991,space,1,0.5137836000067182,None,,,,,,,,,,,,,,,,,,,,,,,,nback50,001,2024-01-12_12h34.26.209,untitled,2023.2.3,60.022496431766875,2024-01-12 12h51.04.478426 -0500,
8,"[-0.2, -0.1]",None,,,,,0,20,20,20,,,,,2202.3200510999886,,,,,,,,,,,,,,,,,,,,,,,,,,,,,,,,,,,,,,,,,,,,,,2202.3049541999935,2202.3200510999886,2202.3200510999886,2202.82012009999,2202.82012009999,2205.320117299998,2205.320117299998,2205.3041553999938,None,1,,,,,,,,,,,,,,,,,,,,,,,,,,nback50,001,2024-01-12_12h34.26.209,untitled,2023.2.3,60.022496431766875,2024-01-12 12h51.04.478426 -0500,
5,"[0.2, 0.1]",None,,,,,0,21,21,21,,,,,2205.320117299998,,,,,,,,,,,,,,,,,,,,,,,,,,,,,,,,,,,,,,,,,,,,,,2205.304894000001,2205.320117299998,2205.320117299998,2205.8201198999886,2205.8201198999886,2208.3199872999976,2208.3199872999976,2208.304052099993,None,1,,,,,,,,,,,,,,,,,,,,,,,,,,nback50,001,2024-01-12_12h34.26.209,untitled,2023.2.3,60.022496431766875,2024-01-12 12h51.04.478426 -0500,
5,"[0.2, 0.1]",space,,,,,0,22,22,22,,,,,2208.3199872999976,,,,,,,,,,,,,,,,,,,,,,,,,,,,,,,,,,,,,,,,,,,,,,2208.3047016999917,2208.3199872999976,2208.3199872999976,2208.8199321999855,2208.8199321999855,2211.3200058999937,2211.3200058999937,2211.3040159000084,space,1,0.520889499981422,None,,,,,,,,,,,,,,,,,,,,,,,,nback50,001,2024-01-12_12h34.26.209,untitled,2023.2.3,60.022496431766875,2024-01-12 12h51.04.478426 -0500,
1,"[-0.64, 0.4]",None,,,,,0,23,23,23,,,,,2211.3200058999937,,,,,,,,,,,,,,,,,,,,,,,,,,,,,,,,,,,,,,,,,,,,,,2211.3047881000093,2211.3200058999937,2211.3200058999937,2211.8199537000037,2211.8199537000037,2214.3198468000046,2214.3198468000046,2214.304191400006,None,1,,,,,,,,,,,,,,,,,,,,,,,,,,nback50,001,2024-01-12_12h34.26.209,untitled,2023.2.3,60.022496431766875,2024-01-12 12h51.04.478426 -0500,
3,"[0, 0.2]",None,,,,,0,24,24,24,,,,,2214.3198468000046,,,,,,,,,,,,,,,,,,,,,,,,,,,,,,,,,,,,,,,,,,,,,,2214.304936600005,2214.3198468000046,2214.3198468000046,2214.819909599988,2214.819909599988,2217.319873600005,2217.319873600005,2217.3043240999978,None,1,,,,,,,,,,,,,,,,,,,,,,,,,,nback50,001,2024-01-12_12h34.26.209,untitled,2023.2.3,60.022496431766875,2024-01-12 12h51.04.478426 -0500,
6,"[-0.3, 0]",None,,,,,0,25,25,25,,,,,2217.319873600005,,,,,,,,,,,,,,,,,,,,,,,,,,,,,,,,,,,,,,,,,,,,,,2217.3050378999906,2217.319873600005,2217.319873600005,2217.8198742000095,2217.8198742000095,2220.3196702999994,2220.3196702999994,2220.303831099998,None,1,,,,,,,,,,,,,,,,,,,,,,,,,,nback50,001,2024-01-12_12h34.26.209,untitled,2023.2.3,60.022496431766875,2024-01-12 12h51.04.478426 -0500,
1,"[-0.64, 0.4]",None,,,,,0,26,26,26,,,,,2220.3196702999994,,,,,,,,,,,,,,,,,,,,,,,,,,,,,,,,,,,,,,,,,,,,,,2220.3044343999936,2220.3196702999994,2220.3196702999994,2220.8197860000073,2220.8197860000073,2223.319840899989,2223.319840899989,2223.3040630999894,None,1,,,,,,,,,,,,,,,,,,,,,,,,,,nback50,001,2024-01-12_12h34.26.209,untitled,2023.2.3,60.022496431766875,2024-01-12 12h51.04.478426 -0500,
1,"[-0.64, 0.4]",space,,,,,0,27,27,27,,,,,2223.319840899989,,,,,,,,,,,,,,,,,,,,,,,,,,,,,,,,,,,,,,,,,,,,,,2223.304781099985,2223.319840899989,2223.319840899989,2223.8197273999976,2223.8197273999976,2226.3195148000086,2226.3195148000086,2226.30389119999,space,1,0.5134233999997377,None,,,,,,,,,,,,,,,,,,,,,,,,nback50,001,2024-01-12_12h34.26.209,untitled,2023.2.3,60.022496431766875,2024-01-12 12h51.04.478426 -0500,
1,"[-0.64, 0.4]",space,,,,,0,28,28,28,,,,,2226.3195148000086,,,,,,,,,,,,,,,,,,,,,,,,,,,,,,,,,,,,,,,,,,,,,,2226.3047270000097,2226.3195148000086,2226.3195148000086,2226.819663900009,2226.819663900009,2229.319614600012,2229.319614600012,2229.303981600009,space,1,1.7410290999978315,None,,,,,,,,,,,,,,,,,,,,,,,,nback50,001,2024-01-12_12h34.26.209,untitled,2023.2.3,60.022496431766875,2024-01-12 12h51.04.478426 -0500,
3,"[0, 0.2]",None,,,,,0,29,29,29,,,,,2229.319614600012,,,,,,,,,,,,,,,,,,,,,,,,,,,,,,,,,,,,,,,,,,,,,,2229.304857799987,2229.319614600012,2229.319614600012,2229.8195483000018,2229.8195483000018,2232.319458699989,2232.319458699989,2232.3037157999934,None,1,,,,,,,,,,,,,,,,,,,,,,,,,,nback50,001,2024-01-12_12h34.26.209,untitled,2023.2.3,60.022496431766875,2024-01-12 12h51.04.478426 -0500,
12,"[0.64, -0.4]",None,,,,,0,30,30,30,,,,,2232.319458699989,,,,,,,,,,,,,,,,,,,,,,,,,,,,,,,,,,,,,,,,,,,,,,2232.304418099986,2232.319458699989,2232.319458699989,2232.819791999995,2232.819791999995,2235.3195051999937,2235.3195051999937,2235.303550899989,None,1,,,,,,,,,,,,,,,,,,,,,,,,,,nback50,001,2024-01-12_12h34.26.209,untitled,2023.2.3,60.022496431766875,2024-01-12 12h51.04.478426 -0500,
12,"[0.64, -0.4]",space,,,,,0,31,31,31,,,,,2235.3195051999937,,,,,,,,,,,,,,,,,,,,,,,,,,,,,,,,,,,,,,,,,,,,,,2235.304093099985,2235.3195051999937,2235.3195051999937,2235.8195881999854,2235.8195881999854,2238.3195036000106,2238.3195036000106,2238.303573000012,space,1,0.6185942000010982,None,,,,,,,,,,,,,,,,,,,,,,,,nback50,001,2024-01-12_12h34.26.209,untitled,2023.2.3,60.022496431766875,2024-01-12 12h51.04.478426 -0500,
2,"[0.64, 0.4]",None,,,,,0,32,32,32,,,,,2238.3195036000106,,,,,,,,,,,,,,,,,,,,,,,,,,,,,,,,,,,,,,,,,,,,,,2238.3043647999875,2238.3195036000106,2238.3195036000106,2238.8193493,2238.8193493,2241.3196092,2241.3196092,2241.3035284999933,None,1,,,,,,,,,,,,,,,,,,,,,,,,,,nback50,001,2024-01-12_12h34.26.209,untitled,2023.2.3,60.022496431766875,2024-01-12 12h51.04.478426 -0500,
1,"[-0.64, 0.4]",None,,,,,0,33,33,33,,,,,2241.3196092,,,,,,,,,,,,,,,,,,,,,,,,,,,,,,,,,,,,,,,,,,,,,,2241.304153200006,2241.3196092,2241.3196092,2241.819599200011,2241.819599200011,2244.3193175999913,2244.3193175999913,2244.3032063999854,None,1,,,,,,,,,,,,,,,,,,,,,,,,,,nback50,001,2024-01-12_12h34.26.209,untitled,2023.2.3,60.022496431766875,2024-01-12 12h51.04.478426 -0500,
7,"[0.3, 0]",None,,,,,0,34,34,34,,,,,2244.3193175999913,,,,,,,,,,,,,,,,,,,,,,,,,,,,,,,,,,,,,,,,,,,,,,2244.3037324000034,2244.3193175999913,2244.3193175999913,2244.8193876000005,2244.8193876000005,2247.319268799998,2247.319268799998,2247.303416300012,None,1,,,,,,,,,,,,,,,,,,,,,,,,,,nback50,001,2024-01-12_12h34.26.209,untitled,2023.2.3,60.022496431766875,2024-01-12 12h51.04.478426 -0500,
7,"[0.3, 0]",space,,,,,0,35,35,35,,,,,2247.319268799998,,,,,,,,,,,,,,,,,,,,,,,,,,,,,,,,,,,,,,,,,,,,,,2247.3039224999957,2247.319268799998,2247.319268799998,2247.819529200002,2247.819529200002,2250.319205100008,2250.319205100008,2250.3031595000066,space,1,0.6270749999966938,None,,,,,,,,,,,,,,,,,,,,,,,,nback50,001,2024-01-12_12h34.26.209,untitled,2023.2.3,60.022496431766875,2024-01-12 12h51.04.478426 -0500,
11,"[-0.64, -0.4]",None,,,,,0,36,36,36,,,,,2250.319205100008,,,,,,,,,,,,,,,,,,,,,,,,,,,,,,,,,,,,,,,,,,,,,,2250.303958000004,2250.319205100008,2250.319205100008,2250.819389100012,2250.819389100012,2253.319122599991,2253.319122599991,2253.303168000013,None,1,,,,,,,,,,,,,,,,,,,,,,,,,,nback50,001,2024-01-12_12h34.26.209,untitled,2023.2.3,60.022496431766875,2024-01-12 12h51.04.478426 -0500,
2,"[0.64, 0.4]",None,,,,,0,37,37,37,,,,,2253.319122599991,,,,,,,,,,,,,,,,,,,,,,,,,,,,,,,,,,,,,,,,,,,,,,2253.3037287000043,2253.319122599991,2253.319122599991,2253.819131700002,2253.819131700002,2256.319253900001,2256.319253900001,2256.3032648999942,None,1,,,,,,,,,,,,,,,,,,,,,,,,,,nback50,001,2024-01-12_12h34.26.209,untitled,2023.2.3,60.022496431766875,2024-01-12 12h51.04.478426 -0500,
6,"[-0.3, 0]",None,,,,,0,38,38,38,,,,,2256.319253900001,,,,,,,,,,,,,,,,,,,,,,,,,,,,,,,,,,,,,,,,,,,,,,2256.3039055000118,2256.319253900001,2256.319253900001,2256.8192931000085,2256.8192931000085,2259.319346300006,2259.319346300006,2259.3033069999947,None,1,,,,,,,,,,,,,,,,,,,,,,,,,,nback50,001,2024-01-12_12h34.26.209,untitled,2023.2.3,60.022496431766875,2024-01-12 12h51.04.478426 -0500,
10,"[0, -0.2]",None,,,,,0,39,39,39,,,,,2259.319346300006,,,,,,,,,,,,,,,,,,,,,,,,,,,,,,,,,,,,,,,,,,,,,,2259.3038077999954,2259.319346300006,2259.319346300006,2259.8190724999877,2259.8190724999877,2262.319302899996,2262.319302899996,2262.3032650999958,None,1,,,,,,,,,,,,,,,,,,,,,,,,,,nback50,001,2024-01-12_12h34.26.209,untitled,2023.2.3,60.022496431766875,2024-01-12 12h51.04.478426 -0500,
,,,,,,,,,,,,,,,,,,,,,,,,,,,,,,,,,,,,,,,,,,,,,,,,,,,,,,,,,,,,,,,,,,,,,,,,,2262.3037683999864,2262.319302899996,2262.319302899996,2280.004150499997,space,17.67875519997324,None,,,,,,,,,,,,,,,,,nback50,001,2024-01-12_12h34.26.209,untitled,2023.2.3,60.022496431766875,2024-01-12 12h51.04.478426 -0500,
,"[0.2, 0.1]",None,,,,,,,,,0,0,0,0,2281.0186503999867,,,,,,,,,,,,,,,,,,,,,,,,2280.004207799997,2280.0187963999924,2281.0186503999867,2281.0031978999905,,,,,,,,,,,,,,,,,,,,,,,,,,,,,,,,,,,,,,2281.0154320999864,2281.0186503999867,2281.0186503999867,2281.518685099989,2281.518685099989,2284.018719499989,2284.018719499989,2284.002925799985,None,1,,,,,,,nback50,001,2024-01-12_12h34.26.209,untitled,2023.2.3,60.022496431766875,2024-01-12 12h51.04.478426 -0500,
,"[0.64, 0.4]",None,,,,,,,,,0,1,1,1,2284.018719499989,,,,,,,,,,,,,,,,,,,,,,,,,,,,,,,,,,,,,,,,,,,,,,,,,,,,,,,,,,,,,,,,,2284.003716700012,2284.018719499989,2284.018719499989,2284.518656900007,2284.518656900007,2287.0187112999847,2287.0187112999847,2287.0029257000133,None,1,,,,,,,nback50,001,2024-01-12_12h34.26.209,untitled,2023.2.3,60.022496431766875,2024-01-12 12h51.04.478426 -0500,
,"[-0.3, 0]",None,,,,,,,,,0,2,2,2,2287.0187112999847,,,,,,,,,,,,,,,,,,,,,,,,,,,,,,,,,,,,,,,,,,,,,,,,,,,,,,,,,,,,,,,,,2287.0035975000064,2287.0187112999847,2287.0187112999847,2287.5186633999983,2287.5186633999983,2290.0184482999903,2290.0184482999903,2290.0026677999995,None,1,,,,,,,nback50,001,2024-01-12_12h34.26.209,untitled,2023.2.3,60.022496431766875,2024-01-12 12h51.04.478426 -0500,
,"[0.2, -0.1]",None,,,,,,,,,0,3,3,3,2290.0184482999903,,,,,,,,,,,,,,,,,,,,,,,,,,,,,,,,,,,,,,,,,,,,,,,,,,,,,,,,,,,,,,,,,2290.0032546999864,2290.0184482999903,2290.0184482999903,2290.518599800009,2290.518599800009,2293.018634899985,2293.018634899985,2293.0028646000137,None,1,,,,,,,nback50,001,2024-01-12_12h34.26.209,untitled,2023.2.3,60.022496431766875,2024-01-12 12h51.04.478426 -0500,
,"[0, 0.2]",None,,,,,,,,,0,4,4,4,2293.018634899985,,,,,,,,,,,,,,,,,,,,,,,,,,,,,,,,,,,,,,,,,,,,,,,,,,,,,,,,,,,,,,,,,2293.003520500002,2293.018634899985,2293.018634899985,2293.518488200003,2293.518488200003,2296.0184743999853,2296.0184743999853,2296.002392399998,None,1,,,,,,,nback50,001,2024-01-12_12h34.26.209,untitled,2023.2.3,60.022496431766875,2024-01-12 12h51.04.478426 -0500,
,"[0.2, -0.1]",space,,,,,,,,,0,5,5,5,2296.0184743999853,,,,,,,,,,,,,,,,,,,,,,,,,,,,,,,,,,,,,,,,,,,,,,,,,,,,,,,,,,,,,,,,,2296.003027300001,2296.0184743999853,2296.0184743999853,2296.5186070000054,2296.5186070000054,2299.0183346999984,2299.0183346999984,2299.002774099994,space,1,0.5342128000047524,None,,,,,nback50,001,2024-01-12_12h34.26.209,untitled,2023.2.3,60.022496431766875,2024-01-12 12h51.04.478426 -0500,
,"[0, -0.2]",None,,,,,,,,,0,6,6,6,2299.0183346999984,,,,,,,,,,,,,,,,,,,,,,,,,,,,,,,,,,,,,,,,,,,,,,,,,,,,,,,,,,,,,,,,,2299.0039402999973,2299.0183346999984,2299.0183346999984,2299.5183726999967,2299.5183726999967,2302.0184709999885,2302.0184709999885,2302.002950199996,None,1,,,,,,,nback50,001,2024-01-12_12h34.26.209,untitled,2023.2.3,60.022496431766875,2024-01-12 12h51.04.478426 -0500,
,"[0.64, -0.4]",None,,,,,,,,,0,7,7,7,2302.0184709999885,,,,,,,,,,,,,,,,,,,,,,,,,,,,,,,,,,,,,,,,,,,,,,,,,,,,,,,,,,,,,,,,,2302.003802799998,2302.0184709999885,2302.0184709999885,2302.5183327000123,2302.5183327000123,2305.018136700004,2305.018136700004,2305.002210800012,None,1,,,,,,,nback50,001,2024-01-12_12h34.26.209,untitled,2023.2.3,60.022496431766875,2024-01-12 12h51.04.478426 -0500,
,"[0.3, 0]",None,,,,,,,,,0,8,8,8,2305.018136700004,,,,,,,,,,,,,,,,,,,,,,,,,,,,,,,,,,,,,,,,,,,,,,,,,,,,,,,,,,,,,,,,,2305.002759199997,2305.018136700004,2305.018136700004,2305.5183820000093,2305.5183820000093,2308.0182926999987,2308.0182926999987,2308.0024674999877,None,1,,,,,,,nback50,001,2024-01-12_12h34.26.209,untitled,2023.2.3,60.022496431766875,2024-01-12 12h51.04.478426 -0500,
,"[0.64, -0.4]",space,,,,,,,,,0,9,9,9,2308.0182926999987,,,,,,,,,,,,,,,,,,,,,,,,,,,,,,,,,,,,,,,,,,,,,,,,,,,,,,,,,,,,,,,,,2308.0032145000005,2308.0182926999987,2308.0182926999987,2308.5182342999906,2308.5182342999906,2311.0181840999867,2311.0181840999867,2311.002578499989,space,1,0.45282849998329766,None,,,,,nback50,001,2024-01-12_12h34.26.209,untitled,2023.2.3,60.022496431766875,2024-01-12 12h51.04.478426 -0500,
,"[-0.64, 0.4]",None,,,,,,,,,0,10,10,10,2311.0181840999867,,,,,,,,,,,,,,,,,,,,,,,,,,,,,,,,,,,,,,,,,,,,,,,,,,,,,,,,,,,,,,,,,2311.0035297999857,2311.0181840999867,2311.0181840999867,2311.5182773999986,2311.5182773999986,2314.018280999997,2314.018280999997,2314.002524499985,None,1,,,,,,,nback50,001,2024-01-12_12h34.26.209,untitled,2023.2.3,60.022496431766875,2024-01-12 12h51.04.478426 -0500,
,"[0.2, 0.1]",None,,,,,,,,,0,11,11,11,2314.018280999997,,,,,,,,,,,,,,,,,,,,,,,,,,,,,,,,,,,,,,,,,,,,,,,,,,,,,,,,,,,,,,,,,2314.0032613000076,2314.018280999997,2314.018280999997,2314.518269299995,2314.518269299995,2317.0181504999928,2317.0181504999928,2317.00203589999,None,1,,,,,,,nback50,001,2024-01-12_12h34.26.209,untitled,2023.2.3,60.022496431766875,2024-01-12 12h51.04.478426 -0500,
,"[0.3, 0]",None,,,,,,,,,0,12,12,12,2317.0181504999928,,,,,,,,,,,,,,,,,,,,,,,,,,,,,,,,,,,,,,,,,,,,,,,,,,,,,,,,,,,,,,,,,2317.002637800004,2317.0181504999928,2317.0181504999928,2317.5181821000006,2317.5181821000006,2320.0179802000057,2320.0179802000057,2320.0022749000054,None,1,,,,,,,nback50,001,2024-01-12_12h34.26.209,untitled,2023.2.3,60.022496431766875,2024-01-12 12h51.04.478426 -0500,
,"[0.2, 0.1]",space,,,,,,,,,0,13,13,13,2320.0179802000057,,,,,,,,,,,,,,,,,,,,,,,,,,,,,,,,,,,,,,,,,,,,,,,,,,,,,,,,,,,,,,,,,2320.0029459999932,2320.0179802000057,2320.0179802000057,2320.5180724000093,2320.5180724000093,2323.0180163999903,2323.0180163999903,2323.002402699989,space,1,0.5557447000173852,None,,,,,nback50,001,2024-01-12_12h34.26.209,untitled,2023.2.3,60.022496431766875,2024-01-12 12h51.04.478426 -0500,
,"[-0.3, 0]",None,,,,,,,,,0,14,14,14,2323.0180163999903,,,,,,,,,,,,,,,,,,,,,,,,,,,,,,,,,,,,,,,,,,,,,,,,,,,,,,,,,,,,,,,,,2323.003287300002,2323.0180163999903,2323.0180163999903,2323.518031399988,2323.518031399988,2326.0179664999887,2326.0179664999887,2326.002444999991,None,1,,,,,,,nback50,001,2024-01-12_12h34.26.209,untitled,2023.2.3,60.022496431766875,2024-01-12 12h51.04.478426 -0500,
,"[0, 0.2]",None,,,,,,,,,0,15,15,15,2326.0179664999887,,,,,,,,,,,,,,,,,,,,,,,,,,,,,,,,,,,,,,,,,,,,,,,,,,,,,,,,,,,,,,,,,2326.003198999999,2326.0179664999887,2326.0179664999887,2326.5179263000027,2326.5179263000027,2329.0180287999974,2329.0180287999974,2329.002476900001,None,1,,,,,,,nback50,001,2024-01-12_12h34.26.209,untitled,2023.2.3,60.022496431766875,2024-01-12 12h51.04.478426 -0500,
,"[-0.3, 0]",space,,,,,,,,,0,16,16,16,2329.0180287999974,,,,,,,,,,,,,,,,,,,,,,,,,,,,,,,,,,,,,,,,,,,,,,,,,,,,,,,,,,,,,,,,,2329.0032928999863,2329.0180287999974,2329.0180287999974,2329.517902599997,2329.517902599997,2332.017928299989,2332.017928299989,2332.0021223000076,space,1,0.5085672999848612,None,,,,,nback50,001,2024-01-12_12h34.26.209,untitled,2023.2.3,60.022496431766875,2024-01-12 12h51.04.478426 -0500,
,"[-0.64, -0.4]",None,,,,,,,,,0,17,17,17,2332.017928299989,,,,,,,,,,,,,,,,,,,,,,,,,,,,,,,,,,,,,,,,,,,,,,,,,,,,,,,,,,,,,,,,,2332.0028315999953,2332.017928299989,2332.017928299989,2332.5179254999966,2332.5179254999966,2335.0178075000003,2335.0178075000003,2335.0019837,None,1,,,,,,,nback50,001,2024-01-12_12h34.26.209,untitled,2023.2.3,60.022496431766875,2024-01-12 12h51.04.478426 -0500,
,"[-0.2, -0.1]",None,,,,,,,,,0,18,18,18,2335.0178075000003,,,,,,,,,,,,,,,,,,,,,,,,,,,,,,,,,,,,,,,,,,,,,,,,,,,,,,,,,,,,,,,,,2335.0026835000026,2335.0178075000003,2335.0178075000003,2335.5177851000044,2335.5177851000044,2338.017847100011,2338.017847100011,2338.002161100012,None,1,,,,,,,nback50,001,2024-01-12_12h34.26.209,untitled,2023.2.3,60.022496431766875,2024-01-12 12h51.04.478426 -0500,
,"[0.2, -0.1]",None,,,,,,,,,0,19,19,19,2338.017847100011,,,,,,,,,,,,,,,,,,,,,,,,,,,,,,,,,,,,,,,,,,,,,,,,,,,,,,,,,,,,,,,,,2338.0030201000045,2338.017847100011,2338.017847100011,2338.5178032999975,2338.5178032999975,2341.0175582999946,2341.0175582999946,2341.0016767999914,None,1,,,,,,,nback50,001,2024-01-12_12h34.26.209,untitled,2023.2.3,60.022496431766875,2024-01-12 12h51.04.478426 -0500,
,"[0.2, -0.1]",None,,,,,,,,,0,20,20,20,2341.0175582999946,,,,,,,,,,,,,,,,,,,,,,,,,,,,,,,,,,,,,,,,,,,,,,,,,,,,,,,,,,,,,,,,,2341.0022275999945,2341.0175582999946,2341.0175582999946,2341.517471900006,2341.517471900006,2344.01757299999,2344.01757299999,2344.00175570001,None,1,,,,,,,nback50,001,2024-01-12_12h34.26.209,untitled,2023.2.3,60.022496431766875,2024-01-12 12h51.04.478426 -0500,
,"[-0.64, 0.4]",None,,,,,,,,,0,21,21,21,2344.01757299999,,,,,,,,,,,,,,,,,,,,,,,,,,,,,,,,,,,,,,,,,,,,,,,,,,,,,,,,,,,,,,,,,2344.002432899986,2344.01757299999,2344.01757299999,2344.517603199987,2344.517603199987,2347.0176938000077,2347.0176938000077,2347.002096000011,None,1,,,,,,,nback50,001,2024-01-12_12h34.26.209,untitled,2023.2.3,60.022496431766875,2024-01-12 12h51.04.478426 -0500,
,"[0, 0.2]",None,,,,,,,,,0,22,22,22,2347.0176938000077,,,,,,,,,,,,,,,,,,,,,,,,,,,,,,,,,,,,,,,,,,,,,,,,,,,,,,,,,,,,,,,,,2347.0029073999904,2347.0176938000077,2347.0176938000077,2347.5176340999897,2347.5176340999897,2350.017672899994,2350.017672899994,2350.0016677000094,None,1,,,,,,,nback50,001,2024-01-12_12h34.26.209,untitled,2023.2.3,60.022496431766875,2024-01-12 12h51.04.478426 -0500,
,"[0.64, -0.4]",None,,,,,,,,,0,23,23,23,2350.017672899994,,,,,,,,,,,,,,,,,,,,,,,,,,,,,,,,,,,,,,,,,,,,,,,,,,,,,,,,,,,,,,,,,2350.0024275000033,2350.017672899994,2350.017672899994,2350.5174880000122,2350.5174880000122,2353.0175126999966,2353.0175126999966,2353.0017788000114,None,1,,,,,,,nback50,001,2024-01-12_12h34.26.209,untitled,2023.2.3,60.022496431766875,2024-01-12 12h51.04.478426 -0500,
,"[0, 0.2]",space,,,,,,,,,0,24,24,24,2353.0175126999966,,,,,,,,,,,,,,,,,,,,,,,,,,,,,,,,,,,,,,,,,,,,,,,,,,,,,,,,,,,,,,,,,2353.0025289999903,2353.0175126999966,2353.0175126999966,2353.5176737,2353.5176737,2356.0174653999857,2356.0174653999857,2356.0015120999888,space,1,0.7547944000107236,None,,,,,nback50,001,2024-01-12_12h34.26.209,untitled,2023.2.3,60.022496431766875,2024-01-12 12h51.04.478426 -0500,
,"[-0.2, 0.1]",None,,,,,,,,,0,25,25,25,2356.0174653999857,,,,,,,,,,,,,,,,,,,,,,,,,,,,,,,,,,,,,,,,,,,,,,,,,,,,,,,,,,,,,,,,,2356.002259700006,2356.0174653999857,2356.0174653999857,2356.51759470001,2356.51759470001,2359.017488399986,2359.017488399986,2359.001911500003,None,1,,,,,,,nback50,001,2024-01-12_12h34.26.209,untitled,2023.2.3,60.022496431766875,2024-01-12 12h51.04.478426 -0500,
,"[0.3, 0]",None,,,,,,,,,0,26,26,26,2359.017488399986,,,,,,,,,,,,,,,,,,,,,,,,,,,,,,,,,,,,,,,,,,,,,,,,,,,,,,,,,,,,,,,,,2359.0027389999887,2359.017488399986,2359.017488399986,2359.5174844999856,2359.5174844999856,2362.017383700004,2362.017383700004,2362.0014744999935,None,1,,,,,,,nback50,001,2024-01-12_12h34.26.209,untitled,2023.2.3,60.022496431766875,2024-01-12 12h51.04.478426 -0500,
,"[-0.2, 0.1]",space,,,,,,,,,0,27,27,27,2362.017383700004,,,,,,,,,,,,,,,,,,,,,,,,,,,,,,,,,,,,,,,,,,,,,,,,,,,,,,,,,,,,,,,,,2362.002114700008,2362.017383700004,2362.017383700004,2362.517422200006,2362.517422200006,2365.0173495000054,2365.0173495000054,2365.0017919999955,space,1,0.4566071000008378,None,,,,,nback50,001,2024-01-12_12h34.26.209,untitled,2023.2.3,60.022496431766875,2024-01-12 12h51.04.478426 -0500,
,"[-0.2, 0.1]",None,,,,,,,,,0,28,28,28,2365.0173495000054,,,,,,,,,,,,,,,,,,,,,,,,,,,,,,,,,,,,,,,,,,,,,,,,,,,,,,,,,,,,,,,,,2365.002780300012,2365.0173495000054,2365.0173495000054,2365.517454099987,2365.517454099987,2368.0172976999893,2368.0172976999893,2368.0012810000044,None,1,,,,,,,nback50,001,2024-01-12_12h34.26.209,untitled,2023.2.3,60.022496431766875,2024-01-12 12h51.04.478426 -0500,
,"[0.2, 0.1]",None,,,,,,,,,0,29,29,29,2368.0172976999893,,,,,,,,,,,,,,,,,,,,,,,,,,,,,,,,,,,,,,,,,,,,,,,,,,,,,,,,,,,,,,,,,2368.001959299989,2368.0172976999893,2368.0172976999893,2368.5172698000097,2368.5172698000097,2371.0171705000103,2371.0171705000103,2371.0012071999954,None,1,,,,,,,nback50,001,2024-01-12_12h34.26.209,untitled,2023.2.3,60.022496431766875,2024-01-12 12h51.04.478426 -0500,
,"[-0.64, -0.4]",None,,,,,,,,,0,30,30,30,2371.0171705000103,,,,,,,,,,,,,,,,,,,,,,,,,,,,,,,,,,,,,,,,,,,,,,,,,,,,,,,,,,,,,,,,,2371.0018139999884,2371.0171705000103,2371.0171705000103,2371.517306199996,2371.517306199996,2374.017381499987,2374.017381499987,2374.001565399987,None,1,,,,,,,nback50,001,2024-01-12_12h34.26.209,untitled,2023.2.3,60.022496431766875,2024-01-12 12h51.04.478426 -0500,
,"[0, -0.2]",None,,,,,,,,,0,31,31,31,2374.017381499987,,,,,,,,,,,,,,,,,,,,,,,,,,,,,,,,,,,,,,,,,,,,,,,,,,,,,,,,,,,,,,,,,2374.0024080000003,2374.017381499987,2374.017381499987,2374.5171173000126,2374.5171173000126,2377.0169928999967,2377.0169928999967,2377.0011977000104,None,1,,,,,,,nback50,001,2024-01-12_12h34.26.209,untitled,2023.2.3,60.022496431766875,2024-01-12 12h51.04.478426 -0500,
,"[-0.64, -0.4]",space,,,,,,,,,0,32,32,32,2377.0169928999967,,,,,,,,,,,,,,,,,,,,,,,,,,,,,,,,,,,,,,,,,,,,,,,,,,,,,,,,,,,,,,,,,2377.0018523999897,2377.0169928999967,2377.0169928999967,2377.5171007000026,2377.5171007000026,2380.0169291000057,2380.0169291000057,2380.001054799999,space,1,0.5652113000105601,None,,,,,nback50,001,2024-01-12_12h34.26.209,untitled,2023.2.3,60.022496431766875,2024-01-12 12h51.04.478426 -0500,
,"[0.64, 0.4]",None,,,,,,,,,0,33,33,33,2380.0169291000057,,,,,,,,,,,,,,,,,,,,,,,,,,,,,,,,,,,,,,,,,,,,,,,,,,,,,,,,,,,,,,,,,2380.001815399999,2380.0169291000057,2380.0169291000057,2380.5170833999873,2380.5170833999873,2383.0168962999887,2383.0168962999887,2383.00117209999,None,1,,,,,,,nback50,001,2024-01-12_12h34.26.209,untitled,2023.2.3,60.022496431766875,2024-01-12 12h51.04.478426 -0500,
,"[-0.3, 0]",None,,,,,,,,,0,34,34,34,2383.0168962999887,,,,,,,,,,,,,,,,,,,,,,,,,,,,,,,,,,,,,,,,,,,,,,,,,,,,,,,,,,,,,,,,,2383.0018371999904,2383.0168962999887,2383.0168962999887,2383.517081500002,2383.517081500002,2386.0170631000074,2386.0170631000074,2386.001409299992,None,1,,,,,,,nback50,001,2024-01-12_12h34.26.209,untitled,2023.2.3,60.022496431766875,2024-01-12 12h51.04.478426 -0500,
,"[0.3, 0]",None,,,,,,,,,0,35,35,35,2386.0170631000074,,,,,,,,,,,,,,,,,,,,,,,,,,,,,,,,,,,,,,,,,,,,,,,,,,,,,,,,,,,,,,,,,2386.002233600011,2386.0170631000074,2386.0170631000074,2386.517056599987,2386.517056599987,2389.0169860000024,2389.0169860000024,2389.000850899989,None,1,,,,,,,nback50,001,2024-01-12_12h34.26.209,untitled,2023.2.3,60.022496431766875,2024-01-12 12h51.04.478426 -0500,
,"[-0.3, 0]",space,,,,,,,,,0,36,36,36,2389.0169860000024,,,,,,,,,,,,,,,,,,,,,,,,,,,,,,,,,,,,,,,,,,,,,,,,,,,,,,,,,,,,,,,,,2389.0014916000073,2389.0169860000024,2389.0169860000024,2389.5170427999983,2389.5170427999983,2392.016777699988,2392.016777699988,2392.0010132000025,space,1,0.5240739999862853,None,,,,,nback50,001,2024-01-12_12h34.26.209,untitled,2023.2.3,60.022496431766875,2024-01-12 12h51.04.478426 -0500,
,"[0, -0.2]",None,,,,,,,,,0,37,37,37,2392.016777699988,,,,,,,,,,,,,,,,,,,,,,,,,,,,,,,,,,,,,,,,,,,,,,,,,,,,,,,,,,,,,,,,,2392.0018819000106,2392.016777699988,2392.016777699988,2392.5167773999856,2392.5167773999856,2395.016789999994,2395.016789999994,2395.001091299986,None,1,,,,,,,nback50,001,2024-01-12_12h34.26.209,untitled,2023.2.3,60.022496431766875,2024-01-12 12h51.04.478426 -0500,
,"[0.3, 0]",None,,,,,,,,,0,38,38,38,2395.016789999994,,,,,,,,,,,,,,,,,,,,,,,,,,,,,,,,,,,,,,,,,,,,,,,,,,,,,,,,,,,,,,,,,2395.001807499997,2395.016789999994,2395.016789999994,2395.5166720999987,2395.5166720999987,2398.016650800011,2398.016650800011,2398.0017765999946,space,0,0.3973639000032563,None,,,,,nback50,001,2024-01-12_12h34.26.209,untitled,2023.2.3,60.022496431766875,2024-01-12 12h51.04.478426 -0500,
,"[0.2, 0.1]",None,,,,,,,,,0,39,39,39,2398.016650800011,,,,,,,,,,,,,,,,,,,,,,,,,,,,,,,,,,,,,,,,,,,,,,,,,,,,,,,,,,,,,,,,,2398.0024952999956,2398.016650800011,2398.016650800011,2398.516868100007,2398.516868100007,2401.0167297000007,2401.0167297000007,2401.000918000005,None,1,,,,,,,nback50,001,2024-01-12_12h34.26.209,untitled,2023.2.3,60.022496431766875,2024-01-12 12h51.04.478426 -0500,
,,,,,,,,,,,,,,,,,,,,,,,,,,,,,,,,,,,,,,,,,,,,,,,,,,,,,,,,,,,,,,,,,,,,,,,,,,,,,,,,,,,,,,,,,,,,2401.001470499992,2401.0167297000007,2404.0166880000033,2404.0008660999883,,,,,,,,
