square,location,corrAns,trials_0.thisRepN,trials_0.thisTrialN,trials_0.thisN,trials_0.thisIndex,trials_1.thisRepN,trials_1.thisTrialN,trials_1.thisN,trials_1.thisIndex,trials_2.thisRepN,trials_2.thisTrialN,trials_2.thisN,trials_2.thisIndex,thisRow.t,notes,Instructions.started,instructions.started,key_resp.started,inst_sq11.started,Instructions.stopped,key_resp.keys,key_resp.rt,key_resp.duration,All.started,sq_1.started,sq_2.started,sq_3.started,sq_4.started,sq_5.started,sq_6.started,sq_7.started,sq_8.started,sq_9.started,sq_10.started,sq_11.started,sq_12.started,All.stopped,Fixation.started,fixation_3.started,fixation_3.stopped,Fixation.stopped,N_back_0_Trial.started,target_square_0.started,response_0.started,fixation_0.started,target_square_0.stopped,fixation_0.stopped,N_back_0_Trial.stopped,response_0.keys,response_0.corr,response_0.rt,response_0.duration,Instructions_1.started,instructions_1.started,key_resp_1.started,Instructions_1.stopped,key_resp_1.keys,key_resp_1.rt,key_resp_1.duration,N_back_1_Trial.started,target_square_1.started,response_1.started,fixation_1.started,target_square_1.stopped,fixation_1.stopped,N_back_1_Trial.stopped,response_1.keys,response_1.corr,response_1.rt,response_1.duration,Instructions_2.started,instructions_2.started,key_resp_2.started,Instructions_2.stopped,key_resp_2.keys,key_resp_2.rt,key_resp_2.duration,N_back_2_trials.started,target_square_2.started,response_2.started,fixation_2.started,target_square_2.stopped,fixation_2.stopped,N_back_2_trials.stopped,response_2.keys,response_2.corr,response_2.rt,response_2.duration,End.started,thank_you.started,End.stopped,participant,session,date,expName,psychopyVersion,frameRate,expStart,
,,,,,,,,,,,,,,,,,0.0013679999974556267,0.0038520999951288104,0.0038520999951288104,0.0038520999951288104,1935.668629700027,space,1935.6497188999783,None,,,,,,,,,,,,,,,,,,,,,,,,,,,,,,,,,,,,,,,,,,,,,,,,,,,,,,,,,,,,,,,,,,,,,nback65,001,2024-01-22_10h56.39.604,untitled,2023.2.3,59.9115944545982,2024-01-22 10h56.50.396781 -0500,
6,"[-0.3, 0]",None,0,0,0,0,,,,,,,,,1937.688500999997,,,,,,,,,,1935.668695100001,1935.6833829000243,1935.6833829000243,1935.6833829000243,1935.6833829000243,1935.6833829000243,1935.6833829000243,1935.6833829000243,1935.6833829000243,1935.6833829000243,1935.6833829000243,1935.6833829000243,1935.6833829000243,1936.6675628999947,1936.667594700004,1936.683219700004,1937.688500999997,1937.6675246999948,1937.6865392000182,1937.688500999997,1937.688500999997,1938.1832464000327,1938.1998502000351,1940.6832124000066,1940.6834022999974,None,1,,,,,,,,,,,,,,,,,,,,,,,,,,,,,,,,,,,,,,,,,,nback65,001,2024-01-22_10h56.39.604,untitled,2023.2.3,59.9115944545982,2024-01-22 10h56.50.396781 -0500,
10,"[0, -0.2]",None,0,1,1,1,,,,,,,,,1940.699747400009,,,,,,,,,,,,,,,,,,,,,,,,,,,,1940.6843611000222,1940.699747400009,1940.699747400009,1941.1833014999866,1941.1997497000266,1943.68313640001,1943.6833395999856,None,1,,,,,,,,,,,,,,,,,,,,,,,,,,,,,,,,,,,,,,,,,,nback65,001,2024-01-22_10h56.39.604,untitled,2023.2.3,59.9115944545982,2024-01-22 10h56.50.396781 -0500,
11,"[-0.64, -0.4]",space,0,2,2,2,,,,,,,,,1943.699836899992,,,,,,,,,,,,,,,,,,,,,,,,,,,,1943.6841453000088,1943.699836899992,1943.699836899992,1944.1831120999996,1944.1996817000327,1946.683001300029,1946.683208500035,space,1,0.37177329999394715,None,,,,,,,,,,,,,,,,,,,,,,,,,,,,,,,,,,,,,,,,nback65,001,2024-01-22_10h56.39.604,untitled,2023.2.3,59.9115944545982,2024-01-22 10h56.50.396781 -0500,
12,"[0.64, -0.4]",None,0,3,3,3,,,,,,,,,1946.6996691999957,,,,,,,,,,,,,,,,,,,,,,,,,,,,1946.68430860003,1946.6996691999957,1946.6996691999957,1947.1829975,1947.199698899989,1949.6828088000184,1949.6829696000204,None,1,,,,,,,,,,,,,,,,,,,,,,,,,,,,,,,,,,,,,,,,,,nback65,001,2024-01-22_10h56.39.604,untitled,2023.2.3,59.9115944545982,2024-01-22 10h56.50.396781 -0500,
1,"[-0.64, 0.4]",None,0,4,4,4,,,,,,,,,1949.6997016000096,,,,,,,,,,,,,,,,,,,,,,,,,,,,1949.6835797000094,1949.6997016000096,1949.6997016000096,1950.18297850003,1950.1997069999925,1952.6829194999882,1952.6831303000217,None,1,,,,,,,,,,,,,,,,,,,,,,,,,,,,,,,,,,,,,,,,,,nback65,001,2024-01-22_10h56.39.604,untitled,2023.2.3,59.9115944545982,2024-01-22 10h56.50.396781 -0500,
1,"[-0.64, 0.4]",None,0,5,5,5,,,,,,,,,1952.6996093000052,,,,,,,,,,,,,,,,,,,,,,,,,,,,1952.68396200001,1952.6996093000052,1952.6996093000052,1953.1829727999866,1953.199644999986,1955.6828335000318,1955.6830278999987,None,1,,,,,,,,,,,,,,,,,,,,,,,,,,,,,,,,,,,,,,,,,,nback65,001,2024-01-22_10h56.39.604,untitled,2023.2.3,59.9115944545982,2024-01-22 10h56.50.396781 -0500,
4,"[-0.2, 0.1]",None,0,6,6,6,,,,,,,,,1955.6995005999925,,,,,,,,,,,,,,,,,,,,,,,,,,,,1955.6837446000427,1955.6995005999925,1955.6995005999925,1956.1829517000006,1956.1998350000358,1958.682816400018,1958.6830047999974,None,1,,,,,,,,,,,,,,,,,,,,,,,,,,,,,,,,,,,,,,,,,,nback65,001,2024-01-22_10h56.39.604,untitled,2023.2.3,59.9115944545982,2024-01-22 10h56.50.396781 -0500,
5,"[0.2, 0.1]",None,0,7,7,7,,,,,,,,,1958.6994970000233,,,,,,,,,,,,,,,,,,,,,,,,,,,,1958.6837172000087,1958.6994970000233,1958.6994970000233,1959.1828180000302,1959.199545999989,1961.6827999000088,1961.6829954000423,None,1,,,,,,,,,,,,,,,,,,,,,,,,,,,,,,,,,,,,,,,,,,nback65,001,2024-01-22_10h56.39.604,untitled,2023.2.3,59.9115944545982,2024-01-22 10h56.50.396781 -0500,
11,"[-0.64, -0.4]",space,0,8,8,8,,,,,,,,,1961.699470499996,,,,,,,,,,,,,,,,,,,,,,,,,,,,1961.6837885000277,1961.699470499996,1961.699470499996,1962.182857100037,1962.1994231000426,1964.6827223,1964.682924200024,space,1,0.4135195999988355,None,,,,,,,,,,,,,,,,,,,,,,,,,,,,,,,,,,,,,,,,nback65,001,2024-01-22_10h56.39.604,untitled,2023.2.3,59.9115944545982,2024-01-22 10h56.50.396781 -0500,
9,"[0.2, -0.1]",None,0,9,9,9,,,,,,,,,1964.699321800028,,,,,,,,,,,,,,,,,,,,,,,,,,,,1964.6838680999936,1964.699321800028,1964.699321800028,1965.1827854000148,1965.199437000032,1967.6827369999955,1967.6829399000271,None,1,,,,,,,,,,,,,,,,,,,,,,,,,,,,,,,,,,,,,,,,,,nback65,001,2024-01-22_10h56.39.604,untitled,2023.2.3,59.9115944545982,2024-01-22 10h56.50.396781 -0500,
8,"[-0.2, -0.1]",None,0,10,10,10,,,,,,,,,1967.6995051000267,,,,,,,,,,,,,,,,,,,,,,,,,,,,1967.683699199988,1967.6995051000267,1967.6995051000267,1968.182778300019,1968.1993293000269,1970.6825825000415,1970.6827635000227,None,1,,,,,,,,,,,,,,,,,,,,,,,,,,,,,,,,,,,,,,,,,,nback65,001,2024-01-22_10h56.39.604,untitled,2023.2.3,59.9115944545982,2024-01-22 10h56.50.396781 -0500,
9,"[0.2, -0.1]",None,0,11,11,11,,,,,,,,,1970.6992931000423,,,,,,,,,,,,,,,,,,,,,,,,,,,,1970.6835556000005,1970.6992931000423,1970.6992931000423,1971.1827270000358,1971.1991653000005,1973.6825215000426,1973.6827000000048,None,1,,,,,,,,,,,,,,,,,,,,,,,,,,,,,,,,,,,,,,,,,,nback65,001,2024-01-22_10h56.39.604,untitled,2023.2.3,59.9115944545982,2024-01-22 10h56.50.396781 -0500,
6,"[-0.3, 0]",None,0,12,12,12,,,,,,,,,1973.699359100021,,,,,,,,,,,,,,,,,,,,,,,,,,,,1973.6833653000067,1973.699359100021,1973.699359100021,1974.1825202000327,1974.199303100002,1976.6823368000332,1976.682507999998,None,1,,,,,,,,,,,,,,,,,,,,,,,,,,,,,,,,,,,,,,,,,,nback65,001,2024-01-22_10h56.39.604,untitled,2023.2.3,59.9115944545982,2024-01-22 10h56.50.396781 -0500,
9,"[0.2, -0.1]",None,0,13,13,13,,,,,,,,,1976.6990320000332,,,,,,,,,,,,,,,,,,,,,,,,,,,,1976.6829958999879,1976.6990320000332,1976.6990320000332,1977.182484399993,1977.1990911000175,1979.6825370999868,1979.6827194000361,None,1,,,,,,,,,,,,,,,,,,,,,,,,,,,,,,,,,,,,,,,,,,nback65,001,2024-01-22_10h56.39.604,untitled,2023.2.3,59.9115944545982,2024-01-22 10h56.50.396781 -0500,
7,"[0.3, 0]",None,0,14,14,14,,,,,,,,,1979.6990547000314,,,,,,,,,,,,,,,,,,,,,,,,,,,,1979.6835601000348,1979.6990547000314,1979.6990547000314,1980.182433000009,1980.1991127000074,1982.682558200031,1982.682754700014,None,1,,,,,,,,,,,,,,,,,,,,,,,,,,,,,,,,,,,,,,,,,,nback65,001,2024-01-22_10h56.39.604,untitled,2023.2.3,59.9115944545982,2024-01-22 10h56.50.396781 -0500,
2,"[0.64, 0.4]",None,0,15,15,15,,,,,,,,,1982.6990609000204,,,,,,,,,,,,,,,,,,,,,,,,,,,,1982.6834771999856,1982.6990609000204,1982.6990609000204,1983.182525900018,1983.1990450000158,1985.6823617999908,1985.6825546000036,None,1,,,,,,,,,,,,,,,,,,,,,,,,,,,,,,,,,,,,,,,,,,nback65,001,2024-01-22_10h56.39.604,untitled,2023.2.3,59.9115944545982,2024-01-22 10h56.50.396781 -0500,
2,"[0.64, 0.4]",None,0,16,16,16,,,,,,,,,1985.6989549000282,,,,,,,,,,,,,,,,,,,,,,,,,,,,1985.683294699993,1985.6989549000282,1985.6989549000282,1986.182320300024,1986.1990070000174,1988.682468199986,1988.6826795000234,None,1,,,,,,,,,,,,,,,,,,,,,,,,,,,,,,,,,,,,,,,,,,nback65,001,2024-01-22_10h56.39.604,untitled,2023.2.3,59.9115944545982,2024-01-22 10h56.50.396781 -0500,
11,"[-0.64, -0.4]",space,0,17,17,17,,,,,,,,,1988.6989093000302,,,,,,,,,,,,,,,,,,,,,,,,,,,,1988.6835495000123,1988.6989093000302,1988.6989093000302,1989.1824604999856,1989.1989119999926,1991.6823889000225,1991.6825843999977,space,1,0.4858574999962002,None,,,,,,,,,,,,,,,,,,,,,,,,,,,,,,,,,,,,,,,,nback65,001,2024-01-22_10h56.39.604,untitled,2023.2.3,59.9115944545982,2024-01-22 10h56.50.396781 -0500,
11,"[-0.64, -0.4]",space,0,18,18,18,,,,,,,,,1991.6988342000404,,,,,,,,,,,,,,,,,,,,,,,,,,,,1991.6835174000007,1991.6988342000404,1991.6988342000404,1992.182232399995,1992.1988187000388,1994.6821136000217,1994.682276000036,space,1,0.4469965999596752,None,,,,,,,,,,,,,,,,,,,,,,,,,,,,,,,,,,,,,,,,nback65,001,2024-01-22_10h56.39.604,untitled,2023.2.3,59.9115944545982,2024-01-22 10h56.50.396781 -0500,
7,"[0.3, 0]",None,0,19,19,19,,,,,,,,,1994.6988946000347,,,,,,,,,,,,,,,,,,,,,,,,,,,,1994.6829682000098,1994.6988946000347,1994.6988946000347,1995.1822481999989,1995.1987837000052,1997.6821275000111,1997.6823213000316,None,1,,,,,,,,,,,,,,,,,,,,,,,,,,,,,,,,,,,,,,,,,,nback65,001,2024-01-22_10h56.39.604,untitled,2023.2.3,59.9115944545982,2024-01-22 10h56.50.396781 -0500,
3,"[0, 0.2]",None,0,20,20,20,,,,,,,,,1997.6995066000381,,,,,,,,,,,,,,,,,,,,,,,,,,,,1997.6830727999914,1997.6995066000381,1997.6995066000381,1998.1823180000065,1998.1988343000412,2000.6821816000156,2000.6823911000392,None,1,,,,,,,,,,,,,,,,,,,,,,,,,,,,,,,,,,,,,,,,,,nback65,001,2024-01-22_10h56.39.604,untitled,2023.2.3,59.9115944545982,2024-01-22 10h56.50.396781 -0500,
10,"[0, -0.2]",None,0,21,21,21,,,,,,,,,2000.6988072000095,,,,,,,,,,,,,,,,,,,,,,,,,,,,2000.683101600036,2000.6988072000095,2000.6988072000095,2001.1821455000318,2001.198770900024,2003.681982900016,2003.6821531000314,None,1,,,,,,,,,,,,,,,,,,,,,,,,,,,,,,,,,,,,,,,,,,nback65,001,2024-01-22_10h56.39.604,untitled,2023.2.3,59.9115944545982,2024-01-22 10h56.50.396781 -0500,
1,"[-0.64, 0.4]",None,0,22,22,22,,,,,,,,,2003.6986402000184,,,,,,,,,,,,,,,,,,,,,,,,,,,,2003.6828425000422,2003.6986402000184,2003.6986402000184,2004.1819144000183,2004.1992846000358,2006.6821016999893,2006.6823087999946,None,1,,,,,,,,,,,,,,,,,,,,,,,,,,,,,,,,,,,,,,,,,,nback65,001,2024-01-22_10h56.39.604,untitled,2023.2.3,59.9115944545982,2024-01-22 10h56.50.396781 -0500,
2,"[0.64, 0.4]",None,0,23,23,23,,,,,,,,,2006.6985727000283,,,,,,,,,,,,,,,,,,,,,,,,,,,,2006.6831938000396,2006.6985727000283,2006.6985727000283,2007.1820490999962,2007.1987836000044,2009.682090700022,2009.6822923999862,None,1,,,,,,,,,,,,,,,,,,,,,,,,,,,,,,,,,,,,,,,,,,nback65,001,2024-01-22_10h56.39.604,untitled,2023.2.3,59.9115944545982,2024-01-22 10h56.50.396781 -0500,
6,"[-0.3, 0]",None,0,24,24,24,,,,,,,,,2009.6985951000242,,,,,,,,,,,,,,,,,,,,,,,,,,,,2009.6831017000368,2009.6985951000242,2009.6985951000242,2010.1819327000412,2010.1985269000288,2012.681962600036,2012.6821651000064,None,1,,,,,,,,,,,,,,,,,,,,,,,,,,,,,,,,,,,,,,,,,,nback65,001,2024-01-22_10h56.39.604,untitled,2023.2.3,59.9115944545982,2024-01-22 10h56.50.396781 -0500,
3,"[0, 0.2]",None,0,25,25,25,,,,,,,,,2012.6986081000068,,,,,,,,,,,,,,,,,,,,,,,,,,,,2012.6829030000372,2012.6986081000068,2012.6986081000068,2013.1818907000124,2013.198629099992,2015.6817999000195,2015.6819909000187,None,1,,,,,,,,,,,,,,,,,,,,,,,,,,,,,,,,,,,,,,,,,,nback65,001,2024-01-22_10h56.39.604,untitled,2023.2.3,59.9115944545982,2024-01-22 10h56.50.396781 -0500,
11,"[-0.64, -0.4]",space,0,26,26,26,,,,,,,,,2015.6985025000176,,,,,,,,,,,,,,,,,,,,,,,,,,,,2015.6827046000399,2015.6985025000176,2015.6985025000176,2016.1819160000305,2016.1984607999912,2018.6817491000402,2018.6819508000044,space,1,0.41141599998809397,None,,,,,,,,,,,,,,,,,,,,,,,,,,,,,,,,,,,,,,,,nback65,001,2024-01-22_10h56.39.604,untitled,2023.2.3,59.9115944545982,2024-01-22 10h56.50.396781 -0500,
1,"[-0.64, 0.4]",None,0,27,27,27,,,,,,,,,2018.698405000032,,,,,,,,,,,,,,,,,,,,,,,,,,,,2018.682809800026,2018.698405000032,2018.698405000032,2019.18187140004,2019.1991292000166,2021.6817380000139,2021.6819418999949,None,1,,,,,,,,,,,,,,,,,,,,,,,,,,,,,,,,,,,,,,,,,,nback65,001,2024-01-22_10h56.39.604,untitled,2023.2.3,59.9115944545982,2024-01-22 10h56.50.396781 -0500,
3,"[0, 0.2]",None,0,28,28,28,,,,,,,,,2021.698482100037,,,,,,,,,,,,,,,,,,,,,,,,,,,,2021.6827509999857,2021.698482100037,2021.698482100037,2022.181846600026,2022.1983550000004,2024.6816951000364,2024.6818672000081,None,1,,,,,,,,,,,,,,,,,,,,,,,,,,,,,,,,,,,,,,,,,,nback65,001,2024-01-22_10h56.39.604,untitled,2023.2.3,59.9115944545982,2024-01-22 10h56.50.396781 -0500,
9,"[0.2, -0.1]",None,0,29,29,29,,,,,,,,,2024.6983178000082,,,,,,,,,,,,,,,,,,,,,,,,,,,,2024.682665600034,2024.6983178000082,2024.6983178000082,2025.1817530000117,2025.1983339000144,2027.6816842000117,2027.6818978000083,None,1,,,,,,,,,,,,,,,,,,,,,,,,,,,,,,,,,,,,,,,,,,nback65,001,2024-01-22_10h56.39.604,untitled,2023.2.3,59.9115944545982,2024-01-22 10h56.50.396781 -0500,
8,"[-0.2, -0.1]",None,0,30,30,30,,,,,,,,,2027.6983512000297,,,,,,,,,,,,,,,,,,,,,,,,,,,,2027.6827115000342,2027.6983512000297,2027.6983512000297,2028.1814775000094,2028.1983086999971,2030.6815853000153,2030.6817985000089,None,1,,,,,,,,,,,,,,,,,,,,,,,,,,,,,,,,,,,,,,,,,,nback65,001,2024-01-22_10h56.39.604,untitled,2023.2.3,59.9115944545982,2024-01-22 10h56.50.396781 -0500,
12,"[0.64, -0.4]",None,0,31,31,31,,,,,,,,,2030.6983669000329,,,,,,,,,,,,,,,,,,,,,,,,,,,,2030.6826031000237,2030.6983669000329,2030.6983669000329,2031.1815279999864,2031.1983858000021,2033.6816285999957,2033.6818426999962,None,1,,,,,,,,,,,,,,,,,,,,,,,,,,,,,,,,,,,,,,,,,,nback65,001,2024-01-22_10h56.39.604,untitled,2023.2.3,59.9115944545982,2024-01-22 10h56.50.396781 -0500,
9,"[0.2, -0.1]",None,0,32,32,32,,,,,,,,,2033.6981764000375,,,,,,,,,,,,,,,,,,,,,,,,,,,,2033.6826700000092,2033.6981764000375,2033.6981764000375,2034.1815358999884,2034.198193899996,2036.6813850000035,2036.6814850000083,None,1,,,,,,,,,,,,,,,,,,,,,,,,,,,,,,,,,,,,,,,,,,nback65,001,2024-01-22_10h56.39.604,untitled,2023.2.3,59.9115944545982,2024-01-22 10h56.50.396781 -0500,
11,"[-0.64, -0.4]",space,0,33,33,33,,,,,,,,,2036.6978990000207,,,,,,,,,,,,,,,,,,,,,,,,,,,,2036.681825000036,2036.6978990000207,2036.6978990000207,2037.1813552000094,2037.1982685000403,2039.6814626000123,2039.681661300012,space,1,0.389949600037653,None,,,,,,,,,,,,,,,,,,,,,,,,,,,,,,,,,,,,,,,,nback65,001,2024-01-22_10h56.39.604,untitled,2023.2.3,59.9115944545982,2024-01-22 10h56.50.396781 -0500,
7,"[0.3, 0]",None,0,34,34,34,,,,,,,,,2039.6981701999903,,,,,,,,,,,,,,,,,,,,,,,,,,,,2039.682566100033,2039.6981701999903,2039.6981701999903,2040.1814532999997,2040.1980494000018,2042.6814056999865,2042.68156300002,None,1,,,,,,,,,,,,,,,,,,,,,,,,,,,,,,,,,,,,,,,,,,nback65,001,2024-01-22_10h56.39.604,untitled,2023.2.3,59.9115944545982,2024-01-22 10h56.50.396781 -0500,
11,"[-0.64, -0.4]",space,0,35,35,35,,,,,,,,,2042.6980434000143,,,,,,,,,,,,,,,,,,,,,,,,,,,,2042.6822588000214,2042.6980434000143,2042.6980434000143,2043.1813436000375,2043.1978974000085,2045.6812583000283,2045.6814622000093,space,1,0.3734511999646202,None,,,,,,,,,,,,,,,,,,,,,,,,,,,,,,,,,,,,,,,,nback65,001,2024-01-22_10h56.39.604,untitled,2023.2.3,59.9115944545982,2024-01-22 10h56.50.396781 -0500,
4,"[-0.2, 0.1]",None,0,36,36,36,,,,,,,,,2045.6980183999985,,,,,,,,,,,,,,,,,,,,,,,,,,,,2045.68232240004,2045.6980183999985,2045.6980183999985,2046.1812394000008,2046.1980875000008,2048.681302800018,2048.68148259999,None,1,,,,,,,,,,,,,,,,,,,,,,,,,,,,,,,,,,,,,,,,,,nback65,001,2024-01-22_10h56.39.604,untitled,2023.2.3,59.9115944545982,2024-01-22 10h56.50.396781 -0500,
5,"[0.2, 0.1]",None,0,37,37,37,,,,,,,,,2048.697925799992,,,,,,,,,,,,,,,,,,,,,,,,,,,,2048.6822285000235,2048.697925799992,2048.697925799992,2049.1811749000335,2049.197870300035,2051.681194200006,2051.6813910999917,None,1,,,,,,,,,,,,,,,,,,,,,,,,,,,,,,,,,,,,,,,,,,nback65,001,2024-01-22_10h56.39.604,untitled,2023.2.3,59.9115944545982,2024-01-22 10h56.50.396781 -0500,
6,"[-0.3, 0]",None,0,38,38,38,,,,,,,,,2051.6978920000256,,,,,,,,,,,,,,,,,,,,,,,,,,,,2051.682181000011,2051.6978920000256,2051.6978920000256,2052.1810195000144,2052.1978787000407,2054.6812837999896,2054.6814944000216,None,1,,,,,,,,,,,,,,,,,,,,,,,,,,,,,,,,,,,,,,,,,,nback65,001,2024-01-22_10h56.39.604,untitled,2023.2.3,59.9115944545982,2024-01-22 10h56.50.396781 -0500,
11,"[-0.64, -0.4]",space,0,39,39,39,,,,,,,,,2054.6976217000047,,,,,,,,,,,,,,,,,,,,,,,,,,,,2054.6823326000012,2054.6976217000047,2054.6976217000047,2055.1808810000075,2055.197667500004,2057.6812885000254,2057.6815044000396,space,1,0.4210423000040464,None,,,,,,,,,,,,,,,,,,,,,,,,,,,,,,,,,,,,,,,,nback65,001,2024-01-22_10h56.39.604,untitled,2023.2.3,59.9115944545982,2024-01-22 10h56.50.396781 -0500,
,,,,,,,,,,,,,,,,,,,,,,,,,,,,,,,,,,,,,,,,,,,,,,,,,,,,,,2057.6822697999887,2057.698091200029,2057.698091200029,2096.882180800021,space,39.17160900001181,None,,,,,,,,,,,,,,,,,,,,,,,,,,,,,,,,,nback65,001,2024-01-22_10h56.39.604,untitled,2023.2.3,59.9115944545982,2024-01-22 10h56.50.396781 -0500,
10,"[0, -0.2]",None,,,,,0,0,0,0,,,,,2097.9007538000005,,,,,,,,,,,,,,,,,,,,,,,,2096.8822291000397,2096.89695710002,2097.9007538000005,2097.8812819999876,,,,,,,,,,,,,,,,,,,2097.8988224000204,2097.9007538000005,2097.9007538000005,2098.3970917999977,2098.413880600012,2100.8970085000037,2100.897226400033,None,1,,,,,,,,,,,,,,,,,,,,,,,,nback65,001,2024-01-22_10h56.39.604,untitled,2023.2.3,59.9115944545982,2024-01-22 10h56.50.396781 -0500,
5,"[0.2, 0.1]",None,,,,,0,1,1,1,,,,,2100.9135500999982,,,,,,,,,,,,,,,,,,,,,,,,,,,,,,,,,,,,,,,,,,,,,,2100.898109300004,2100.9135500999982,2100.9135500999982,2101.397008300002,2101.4136638999917,2103.8969204000314,2103.897093800013,None,1,,,,,,,,,,,,,,,,,,,,,,,,nback65,001,2024-01-22_10h56.39.604,untitled,2023.2.3,59.9115944545982,2024-01-22 10h56.50.396781 -0500,
6,"[-0.3, 0]",None,,,,,0,2,2,2,,,,,2103.913593000034,,,,,,,,,,,,,,,,,,,,,,,,,,,,,,,,,,,,,,,,,,,,,,2103.897753600031,2103.913593000034,2103.913593000034,2104.39696740004,2104.4136362000136,2106.896634100005,2106.896791300038,None,1,,,,,,,,,,,,,,,,,,,,,,,,nback65,001,2024-01-22_10h56.39.604,untitled,2023.2.3,59.9115944545982,2024-01-22 10h56.50.396781 -0500,
6,"[-0.3, 0]",space,,,,,0,3,3,3,,,,,2106.913517799985,,,,,,,,,,,,,,,,,,,,,,,,,,,,,,,,,,,,,,,,,,,,,,2106.897352800006,2106.913517799985,2106.913517799985,2107.39681559999,2107.4136341999983,2109.8965265000006,2109.8966683000326,space,1,0.3718749000108801,None,,,,,,,,,,,,,,,,,,,,,,nback65,001,2024-01-22_10h56.39.604,untitled,2023.2.3,59.9115944545982,2024-01-22 10h56.50.396781 -0500,
12,"[0.64, -0.4]",None,,,,,0,4,4,4,,,,,2109.9133347999887,,,,,,,,,,,,,,,,,,,,,,,,,,,,,,,,,,,,,,,,,,,,,,2109.897987400007,2109.9133347999887,2109.9133347999887,2110.3967035000096,2110.4135346999974,2112.896669699985,2112.8968297000392,None,1,,,,,,,,,,,,,,,,,,,,,,,,nback65,001,2024-01-22_10h56.39.604,untitled,2023.2.3,59.9115944545982,2024-01-22 10h56.50.396781 -0500,
10,"[0, -0.2]",None,,,,,0,5,5,5,,,,,2112.913547000033,,,,,,,,,,,,,,,,,,,,,,,,,,,,,,,,,,,,,,,,,,,,,,2112.897449699987,2112.913547000033,2112.913547000033,2113.396968199988,2113.4135334999883,2115.896693799994,2115.8969016000046,None,1,,,,,,,,,,,,,,,,,,,,,,,,nback65,001,2024-01-22_10h56.39.604,untitled,2023.2.3,59.9115944545982,2024-01-22 10h56.50.396781 -0500,
2,"[0.64, 0.4]",None,,,,,0,6,6,6,,,,,2115.9133320000255,,,,,,,,,,,,,,,,,,,,,,,,,,,,,,,,,,,,,,,,,,,,,,2115.8977684000274,2115.9133320000255,2115.9133320000255,2116.396734500013,2116.4134175000363,2118.896811500017,2118.897026300023,None,1,,,,,,,,,,,,,,,,,,,,,,,,nback65,001,2024-01-22_10h56.39.604,untitled,2023.2.3,59.9115944545982,2024-01-22 10h56.50.396781 -0500,
9,"[0.2, -0.1]",None,,,,,0,7,7,7,,,,,2118.913413900009,,,,,,,,,,,,,,,,,,,,,,,,,,,,,,,,,,,,,,,,,,,,,,2118.897838600038,2118.913413900009,2118.913413900009,2119.3968228999875,2119.413386200031,2121.8966692000395,2121.896883700043,None,1,,,,,,,,,,,,,,,,,,,,,,,,nback65,001,2024-01-22_10h56.39.604,untitled,2023.2.3,59.9115944545982,2024-01-22 10h56.50.396781 -0500,
9,"[0.2, -0.1]",space,,,,,0,8,8,8,,,,,2121.913280500041,,,,,,,,,,,,,,,,,,,,,,,,,,,,,,,,,,,,,,,,,,,,,,2121.897726700001,2121.913280500041,2121.913280500041,2122.396642000007,2122.4132369,2124.896556499996,2124.8967709999997,space,1,0.5049796999664977,None,,,,,,,,,,,,,,,,,,,,,,nback65,001,2024-01-22_10h56.39.604,untitled,2023.2.3,59.9115944545982,2024-01-22 10h56.50.396781 -0500,
6,"[-0.3, 0]",None,,,,,0,9,9,9,,,,,2124.913396799995,,,,,,,,,,,,,,,,,,,,,,,,,,,,,,,,,,,,,,,,,,,,,,2124.8978163999855,2124.913396799995,2124.913396799995,2125.396584800037,2125.4134929000284,2127.8964414999937,2127.8966145000304,None,1,,,,,,,,,,,,,,,,,,,,,,,,nback65,001,2024-01-22_10h56.39.604,untitled,2023.2.3,59.9115944545982,2024-01-22 10h56.50.396781 -0500,
11,"[-0.64, -0.4]",None,,,,,0,10,10,10,,,,,2127.913051300042,,,,,,,,,,,,,,,,,,,,,,,,,,,,,,,,,,,,,,,,,,,,,,2127.897324300022,2127.913051300042,2127.913051300042,2128.396524400043,2128.413059499988,2130.896402899991,2130.8966088999878,None,1,,,,,,,,,,,,,,,,,,,,,,,,nback65,001,2024-01-22_10h56.39.604,untitled,2023.2.3,59.9115944545982,2024-01-22 10h56.50.396781 -0500,
11,"[-0.64, -0.4]",space,,,,,0,11,11,11,,,,,2130.9133422999876,,,,,,,,,,,,,,,,,,,,,,,,,,,,,,,,,,,,,,,,,,,,,,2130.8974534000154,2130.9133422999876,2130.9133422999876,2131.3964985000202,2131.4131236000103,2133.896959200036,2133.897170100012,space,1,0.3765043999883346,None,,,,,,,,,,,,,,,,,,,,,,nback65,001,2024-01-22_10h56.39.604,untitled,2023.2.3,59.9115944545982,2024-01-22 10h56.50.396781 -0500,
4,"[-0.2, 0.1]",None,,,,,0,12,12,12,,,,,2133.9132193000405,,,,,,,,,,,,,,,,,,,,,,,,,,,,,,,,,,,,,,,,,,,,,,2133.8980178000056,2133.9132193000405,2133.9132193000405,2134.396491900028,2134.4131782000186,2136.8962547000265,2136.8964237000328,None,1,,,,,,,,,,,,,,,,,,,,,,,,nback65,001,2024-01-22_10h56.39.604,untitled,2023.2.3,59.9115944545982,2024-01-22 10h56.50.396781 -0500,
3,"[0, 0.2]",None,,,,,0,13,13,13,,,,,2136.9131110000308,,,,,,,,,,,,,,,,,,,,,,,,,,,,,,,,,,,,,,,,,,,,,,2136.8970571000245,2136.9131110000308,2136.9131110000308,2137.3964391000336,2137.413037099992,2139.8964569999953,2139.896667800029,None,1,,,,,,,,,,,,,,,,,,,,,,,,nback65,001,2024-01-22_10h56.39.604,untitled,2023.2.3,59.9115944545982,2024-01-22 10h56.50.396781 -0500,
3,"[0, 0.2]",space,,,,,0,14,14,14,,,,,2139.9130079000024,,,,,,,,,,,,,,,,,,,,,,,,,,,,,,,,,,,,,,,,,,,,,,2139.8975113999913,2139.9130079000024,2139.9130079000024,2140.396251500002,2140.413103100029,2142.8964354000054,2142.8966589000192,space,1,0.384601500001736,None,,,,,,,,,,,,,,,,,,,,,,nback65,001,2024-01-22_10h56.39.604,untitled,2023.2.3,59.9115944545982,2024-01-22 10h56.50.396781 -0500,
8,"[-0.2, -0.1]",None,,,,,0,15,15,15,,,,,2142.9129987999913,,,,,,,,,,,,,,,,,,,,,,,,,,,,,,,,,,,,,,,,,,,,,,2142.8977107999963,2142.9129987999913,2142.9129987999913,2143.396369200025,2143.4130025000195,2145.89614050003,2145.896336500009,None,1,,,,,,,,,,,,,,,,,,,,,,,,nback65,001,2024-01-22_10h56.39.604,untitled,2023.2.3,59.9115944545982,2024-01-22 10h56.50.396781 -0500,
1,"[-0.64, 0.4]",None,,,,,0,16,16,16,,,,,2145.9130179000203,,,,,,,,,,,,,,,,,,,,,,,,,,,,,,,,,,,,,,,,,,,,,,2145.897210300027,2145.9130179000203,2145.9130179000203,2146.396242499992,2146.4129042000277,2148.8961267000413,2148.8963281000033,None,1,,,,,,,,,,,,,,,,,,,,,,,,nback65,001,2024-01-22_10h56.39.604,untitled,2023.2.3,59.9115944545982,2024-01-22 10h56.50.396781 -0500,
2,"[0.64, 0.4]",None,,,,,0,17,17,17,,,,,2148.912836600037,,,,,,,,,,,,,,,,,,,,,,,,,,,,,,,,,,,,,,,,,,,,,,2148.897161400004,2148.912836600037,2148.912836600037,2149.3961489000358,2149.4128715000115,2151.8961360999965,2151.8963558000396,None,1,,,,,,,,,,,,,,,,,,,,,,,,nback65,001,2024-01-22_10h56.39.604,untitled,2023.2.3,59.9115944545982,2024-01-22 10h56.50.396781 -0500,
4,"[-0.2, 0.1]",None,,,,,0,18,18,18,,,,,2151.912893300003,,,,,,,,,,,,,,,,,,,,,,,,,,,,,,,,,,,,,,,,,,,,,,2151.8971992000006,2151.912893300003,2151.912893300003,2152.396217200032,2152.412917800015,2154.8961495000403,2154.8963669000077,None,1,,,,,,,,,,,,,,,,,,,,,,,,nback65,001,2024-01-22_10h56.39.604,untitled,2023.2.3,59.9115944545982,2024-01-22 10h56.50.396781 -0500,
4,"[-0.2, 0.1]",space,,,,,0,19,19,19,,,,,2154.912822100043,,,,,,,,,,,,,,,,,,,,,,,,,,,,,,,,,,,,,,,,,,,,,,2154.8971868000226,2154.912822100043,2154.912822100043,2155.3959410000243,2155.4124947999953,2157.8960077000083,2157.8962231000187,space,1,0.4872309999773279,None,,,,,,,,,,,,,,,,,,,,,,nback65,001,2024-01-22_10h56.39.604,untitled,2023.2.3,59.9115944545982,2024-01-22 10h56.50.396781 -0500,
8,"[-0.2, -0.1]",None,,,,,0,20,20,20,,,,,2157.9126903000288,,,,,,,,,,,,,,,,,,,,,,,,,,,,,,,,,,,,,,,,,,,,,,2157.8972341000335,2157.9126903000288,2157.9126903000288,2158.3960458000074,2158.412762199994,2160.895993300015,2160.8961920000147,None,1,,,,,,,,,,,,,,,,,,,,,,,,nback65,001,2024-01-22_10h56.39.604,untitled,2023.2.3,59.9115944545982,2024-01-22 10h56.50.396781 -0500,
5,"[0.2, 0.1]",None,,,,,0,21,21,21,,,,,2160.912711800018,,,,,,,,,,,,,,,,,,,,,,,,,,,,,,,,,,,,,,,,,,,,,,2160.896980600024,2160.912711800018,2160.912711800018,2161.3958888000343,2161.412548499997,2163.8960467000143,2163.896258599998,None,1,,,,,,,,,,,,,,,,,,,,,,,,nback65,001,2024-01-22_10h56.39.604,untitled,2023.2.3,59.9115944545982,2024-01-22 10h56.50.396781 -0500,
5,"[0.2, 0.1]",space,,,,,0,22,22,22,,,,,2163.9125668000197,,,,,,,,,,,,,,,,,,,,,,,,,,,,,,,,,,,,,,,,,,,,,,2163.897105699987,2163.9125668000197,2163.9125668000197,2164.395932400017,2164.412569899985,2166.895877300005,2166.896053000004,space,1,0.31892759999027476,None,,,,,,,,,,,,,,,,,,,,,,nback65,001,2024-01-22_10h56.39.604,untitled,2023.2.3,59.9115944545982,2024-01-22 10h56.50.396781 -0500,
1,"[-0.64, 0.4]",None,,,,,0,23,23,23,,,,,2166.9123845000286,,,,,,,,,,,,,,,,,,,,,,,,,,,,,,,,,,,,,,,,,,,,,,2166.8969051000313,2166.9123845000286,2166.9123845000286,2167.3957512000343,2167.4126232000417,2169.89567920001,2169.895842000027,None,1,,,,,,,,,,,,,,,,,,,,,,,,nback65,001,2024-01-22_10h56.39.604,untitled,2023.2.3,59.9115944545982,2024-01-22 10h56.50.396781 -0500,
3,"[0, 0.2]",None,,,,,0,24,24,24,,,,,2169.912423700036,,,,,,,,,,,,,,,,,,,,,,,,,,,,,,,,,,,,,,,,,,,,,,2169.8964041,2169.912423700036,2169.912423700036,2170.395694100007,2170.412300200027,2172.8957773,2172.8959583000396,None,1,,,,,,,,,,,,,,,,,,,,,,,,nback65,001,2024-01-22_10h56.39.604,untitled,2023.2.3,59.9115944545982,2024-01-22 10h56.50.396781 -0500,
6,"[-0.3, 0]",None,,,,,0,25,25,25,,,,,2172.9124226000276,,,,,,,,,,,,,,,,,,,,,,,,,,,,,,,,,,,,,,,,,,,,,,2172.8966438000207,2172.9124226000276,2172.9124226000276,2173.395762400003,2173.412294400041,2175.895595800015,2175.895779100014,None,1,,,,,,,,,,,,,,,,,,,,,,,,nback65,001,2024-01-22_10h56.39.604,untitled,2023.2.3,59.9115944545982,2024-01-22 10h56.50.396781 -0500,
1,"[-0.64, 0.4]",None,,,,,0,26,26,26,,,,,2175.912170800031,,,,,,,,,,,,,,,,,,,,,,,,,,,,,,,,,,,,,,,,,,,,,,2175.8964882,2175.912170800031,2175.912170800031,2176.395611200016,2176.4123016000376,2178.8955631999997,2178.8957531999913,None,1,,,,,,,,,,,,,,,,,,,,,,,,nback65,001,2024-01-22_10h56.39.604,untitled,2023.2.3,59.9115944545982,2024-01-22 10h56.50.396781 -0500,
1,"[-0.64, 0.4]",space,,,,,0,27,27,27,,,,,2178.9123328000423,,,,,,,,,,,,,,,,,,,,,,,,,,,,,,,,,,,,,,,,,,,,,,2178.8964768000296,2178.9123328000423,2178.9123328000423,2179.3956013999996,2179.4123645999935,2181.895478999999,2181.895652200037,space,1,0.39058760000625625,None,,,,,,,,,,,,,,,,,,,,,,nback65,001,2024-01-22_10h56.39.604,untitled,2023.2.3,59.9115944545982,2024-01-22 10h56.50.396781 -0500,
1,"[-0.64, 0.4]",space,,,,,0,28,28,28,,,,,2181.912154600024,,,,,,,,,,,,,,,,,,,,,,,,,,,,,,,,,,,,,,,,,,,,,,2181.8964516000124,2181.912154600024,2181.912154600024,2182.395476900041,2182.412073799991,2184.8954313999857,2184.895612800028,space,1,0.3656938999774866,None,,,,,,,,,,,,,,,,,,,,,,nback65,001,2024-01-22_10h56.39.604,untitled,2023.2.3,59.9115944545982,2024-01-22 10h56.50.396781 -0500,
3,"[0, 0.2]",None,,,,,0,29,29,29,,,,,2184.9123241000343,,,,,,,,,,,,,,,,,,,,,,,,,,,,,,,,,,,,,,,,,,,,,,2184.896471999993,2184.9123241000343,2184.9123241000343,2185.395486399997,2185.412144700007,2187.895493399992,2187.8957074999926,None,1,,,,,,,,,,,,,,,,,,,,,,,,nback65,001,2024-01-22_10h56.39.604,untitled,2023.2.3,59.9115944545982,2024-01-22 10h56.50.396781 -0500,
12,"[0.64, -0.4]",None,,,,,0,30,30,30,,,,,2187.9122080000234,,,,,,,,,,,,,,,,,,,,,,,,,,,,,,,,,,,,,,,,,,,,,,2187.8965528000263,2187.9122080000234,2187.9122080000234,2188.3955308999866,2188.412114100007,2190.895310299995,2190.8954900000244,None,1,,,,,,,,,,,,,,,,,,,,,,,,nback65,001,2024-01-22_10h56.39.604,untitled,2023.2.3,59.9115944545982,2024-01-22 10h56.50.396781 -0500,
12,"[0.64, -0.4]",space,,,,,0,31,31,31,,,,,2190.9120857000235,,,,,,,,,,,,,,,,,,,,,,,,,,,,,,,,,,,,,,,,,,,,,,2190.8962521000067,2190.9120857000235,2190.9120857000235,2191.3955521000316,2191.412092100014,2193.8952187999967,2193.8953594000195,space,1,0.34730550000676885,None,,,,,,,,,,,,,,,,,,,,,,nback65,001,2024-01-22_10h56.39.604,untitled,2023.2.3,59.9115944545982,2024-01-22 10h56.50.396781 -0500,
2,"[0.64, 0.4]",None,,,,,0,32,32,32,,,,,2193.9118871000246,,,,,,,,,,,,,,,,,,,,,,,,,,,,,,,,,,,,,,,,,,,,,,2193.896083200001,2193.9118871000246,2193.9118871000246,2194.395586400002,2194.412136400002,2196.895371999999,2196.8956155999913,None,1,,,,,,,,,,,,,,,,,,,,,,,,nback65,001,2024-01-22_10h56.39.604,untitled,2023.2.3,59.9115944545982,2024-01-22 10h56.50.396781 -0500,
1,"[-0.64, 0.4]",None,,,,,0,33,33,33,,,,,2196.9119441999937,,,,,,,,,,,,,,,,,,,,,,,,,,,,,,,,,,,,,,,,,,,,,,2196.8964090000372,2196.9119441999937,2196.9119441999937,2197.395335900015,2197.4120844000136,2199.895346400037,2199.895549500012,None,1,,,,,,,,,,,,,,,,,,,,,,,,nback65,001,2024-01-22_10h56.39.604,untitled,2023.2.3,59.9115944545982,2024-01-22 10h56.50.396781 -0500,
7,"[0.3, 0]",None,,,,,0,34,34,34,,,,,2199.9119460000074,,,,,,,,,,,,,,,,,,,,,,,,,,,,,,,,,,,,,,,,,,,,,,2199.8963533000206,2199.9119460000074,2199.9119460000074,2200.395347999991,2200.412024900026,2202.8952937999857,2202.8954969000188,None,1,,,,,,,,,,,,,,,,,,,,,,,,nback65,001,2024-01-22_10h56.39.604,untitled,2023.2.3,59.9115944545982,2024-01-22 10h56.50.396781 -0500,
7,"[0.3, 0]",space,,,,,0,35,35,35,,,,,2202.912031200016,,,,,,,,,,,,,,,,,,,,,,,,,,,,,,,,,,,,,,,,,,,,,,2202.8963360000052,2202.912031200016,2202.912031200016,2203.395275500021,2203.4119046000415,2205.895151500008,2205.8953634999925,space,1,0.4566571000032127,None,,,,,,,,,,,,,,,,,,,,,,nback65,001,2024-01-22_10h56.39.604,untitled,2023.2.3,59.9115944545982,2024-01-22 10h56.50.396781 -0500,
11,"[-0.64, -0.4]",None,,,,,0,36,36,36,,,,,2205.911875799997,,,,,,,,,,,,,,,,,,,,,,,,,,,,,,,,,,,,,,,,,,,,,,2205.896353900025,2205.911875799997,2205.911875799997,2206.3951740000048,2206.411987700034,2208.8951127000037,2208.895303199999,None,1,,,,,,,,,,,,,,,,,,,,,,,,nback65,001,2024-01-22_10h56.39.604,untitled,2023.2.3,59.9115944545982,2024-01-22 10h56.50.396781 -0500,
2,"[0.64, 0.4]",None,,,,,0,37,37,37,,,,,2208.912253300019,,,,,,,,,,,,,,,,,,,,,,,,,,,,,,,,,,,,,,,,,,,,,,2208.8960574000375,2208.912253300019,2208.912253300019,2209.395126999996,2209.411894800025,2211.8950290000066,2211.8952318000374,None,1,,,,,,,,,,,,,,,,,,,,,,,,nback65,001,2024-01-22_10h56.39.604,untitled,2023.2.3,59.9115944545982,2024-01-22 10h56.50.396781 -0500,
6,"[-0.3, 0]",None,,,,,0,38,38,38,,,,,2211.911731500004,,,,,,,,,,,,,,,,,,,,,,,,,,,,,,,,,,,,,,,,,,,,,,2211.8960633000243,2211.911731500004,2211.911731500004,2212.3951412999886,2212.4117676999886,2214.894996099989,2214.8951714999857,None,1,,,,,,,,,,,,,,,,,,,,,,,,nback65,001,2024-01-22_10h56.39.604,untitled,2023.2.3,59.9115944545982,2024-01-22 10h56.50.396781 -0500,
10,"[0, -0.2]",None,,,,,0,39,39,39,,,,,2214.911880700034,,,,,,,,,,,,,,,,,,,,,,,,,,,,,,,,,,,,,,,,,,,,,,2214.895967999997,2214.911880700034,2214.911880700034,2215.394943399995,2215.411629999988,2217.8949755000067,2217.895189300005,None,1,,,,,,,,,,,,,,,,,,,,,,,,nback65,001,2024-01-22_10h56.39.604,untitled,2023.2.3,59.9115944545982,2024-01-22 10h56.50.396781 -0500,
,,,,,,,,,,,,,,,,,,,,,,,,,,,,,,,,,,,,,,,,,,,,,,,,,,,,,,,,,,,,,,,,,,,,,,,,2217.8957926000003,2217.9117172000115,2217.9117172000115,2268.2291119000292,space,50.309460400021635,None,,,,,,,,,,,,,,,nback65,001,2024-01-22_10h56.39.604,untitled,2023.2.3,59.9115944545982,2024-01-22 10h56.50.396781 -0500,
,"[0.2, 0.1]",None,,,,,,,,,0,0,0,0,2269.245607000019,,,,,,,,,,,,,,,,,,,,,,,,2268.2291656000307,2268.24398020003,2269.245607000019,2269.2284483000403,,,,,,,,,,,,,,,,,,,,,,,,,,,,,,,,,,,,,2269.2437224999885,2269.245607000019,2269.245607000019,2269.7439724000287,2269.760939300002,2272.244098199997,2272.244321200007,None,1,,,,,,nback65,001,2024-01-22_10h56.39.604,untitled,2023.2.3,59.9115944545982,2024-01-22 10h56.50.396781 -0500,
,"[0.64, 0.4]",None,,,,,,,,,0,1,1,1,2272.260701899999,,,,,,,,,,,,,,,,,,,,,,,,,,,,,,,,,,,,,,,,,,,,,,,,,,,,,,,,,,,,,,,,2272.2453233000124,2272.260701899999,2272.260701899999,2272.7439902999904,2272.7606944,2275.243960599997,2275.2441603000043,None,1,,,,,,nback65,001,2024-01-22_10h56.39.604,untitled,2023.2.3,59.9115944545982,2024-01-22 10h56.50.396781 -0500,
,"[-0.3, 0]",None,,,,,,,,,0,2,2,2,2275.260629700031,,,,,,,,,,,,,,,,,,,,,,,,,,,,,,,,,,,,,,,,,,,,,,,,,,,,,,,,,,,,,,,,2275.244954199996,2275.260629700031,2275.260629700031,2275.7439194000326,2275.7607813000213,2278.243890599988,2278.244104799989,None,1,,,,,,nback65,001,2024-01-22_10h56.39.604,untitled,2023.2.3,59.9115944545982,2024-01-22 10h56.50.396781 -0500,
,"[0.2, -0.1]",None,,,,,,,,,0,3,3,3,2278.260562899988,,,,,,,,,,,,,,,,,,,,,,,,,,,,,,,,,,,,,,,,,,,,,,,,,,,,,,,,,,,,,,,,2278.2449082999956,2278.260562899988,2278.260562899988,2278.7438675999874,2278.760540599993,2281.2439217999927,2281.244112799992,None,1,,,,,,nback65,001,2024-01-22_10h56.39.604,untitled,2023.2.3,59.9115944545982,2024-01-22 10h56.50.396781 -0500,
,"[0, 0.2]",None,,,,,,,,,0,4,4,4,2281.2604438000126,,,,,,,,,,,,,,,,,,,,,,,,,,,,,,,,,,,,,,,,,,,,,,,,,,,,,,,,,,,,,,,,2281.244829100033,2281.2604438000126,2281.2604438000126,2281.7439281000406,2281.7604206000105,2284.2437780000037,2284.2439931000117,None,1,,,,,,nback65,001,2024-01-22_10h56.39.604,untitled,2023.2.3,59.9115944545982,2024-01-22 10h56.50.396781 -0500,
,"[0.2, -0.1]",space,,,,,,,,,0,5,5,5,2284.260554700042,,,,,,,,,,,,,,,,,,,,,,,,,,,,,,,,,,,,,,,,,,,,,,,,,,,,,,,,,,,,,,,,2284.2448262000107,2284.260554700042,2284.260554700042,2284.743811000022,2284.7604595000157,2287.243717000005,2287.2439310000045,space,1,0.38394659996265545,None,,,,nback65,001,2024-01-22_10h56.39.604,untitled,2023.2.3,59.9115944545982,2024-01-22 10h56.50.396781 -0500,
,"[0, -0.2]",None,,,,,,,,,0,6,6,6,2287.260384400026,,,,,,,,,,,,,,,,,,,,,,,,,,,,,,,,,,,,,,,,,,,,,,,,,,,,,,,,,,,,,,,,2287.2451870000223,2287.260384400026,2287.260384400026,2287.7437850999995,2287.7605489999987,2290.243609099998,2290.243804800033,None,1,,,,,,nback65,001,2024-01-22_10h56.39.604,untitled,2023.2.3,59.9115944545982,2024-01-22 10h56.50.396781 -0500,
,"[0.64, -0.4]",None,,,,,,,,,0,7,7,7,2290.2601397000253,,,,,,,,,,,,,,,,,,,,,,,,,,,,,,,,,,,,,,,,,,,,,,,,,,,,,,,,,,,,,,,,2290.24444520002,2290.2601397000253,2290.2601397000253,2290.7434949000017,2290.7602975000045,2293.243664300011,2293.2438753999886,None,1,,,,,,nback65,001,2024-01-22_10h56.39.604,untitled,2023.2.3,59.9115944545982,2024-01-22 10h56.50.396781 -0500,
,"[0.3, 0]",None,,,,,,,,,0,8,8,8,2293.26039390004,,,,,,,,,,,,,,,,,,,,,,,,,,,,,,,,,,,,,,,,,,,,,,,,,,,,,,,,,,,,,,,,2293.2447396999924,2293.26039390004,2293.26039390004,2293.74380310002,2293.7604529000237,2296.2435000000405,2296.2436806000187,None,1,,,,,,nback65,001,2024-01-22_10h56.39.604,untitled,2023.2.3,59.9115944545982,2024-01-22 10h56.50.396781 -0500,
,"[0.64, -0.4]",space,,,,,,,,,0,9,9,9,2296.260264200042,,,,,,,,,,,,,,,,,,,,,,,,,,,,,,,,,,,,,,,,,,,,,,,,,,,,,,,,,,,,,,,,2296.244394899986,2296.260264200042,2296.260264200042,2296.7435601000325,2296.7602023000363,2299.2434875000035,2299.2436686999863,space,1,0.4552479999838397,None,,,,nback65,001,2024-01-22_10h56.39.604,untitled,2023.2.3,59.9115944545982,2024-01-22 10h56.50.396781 -0500,
,"[-0.64, 0.4]",None,,,,,,,,,0,10,10,10,2299.260215700022,,,,,,,,,,,,,,,,,,,,,,,,,,,,,,,,,,,,,,,,,,,,,,,,,,,,,,,,,,,,,,,,2299.2445738000097,2299.260215700022,2299.260215700022,2299.74357640004,2299.760262200027,2302.243437200028,2302.243637900043,None,1,,,,,,nback65,001,2024-01-22_10h56.39.604,untitled,2023.2.3,59.9115944545982,2024-01-22 10h56.50.396781 -0500,
,"[0.2, 0.1]",None,,,,,,,,,0,11,11,11,2302.2601256000344,,,,,,,,,,,,,,,,,,,,,,,,,,,,,,,,,,,,,,,,,,,,,,,,,,,,,,,,,,,,,,,,2302.244394999987,2302.2601256000344,2302.2601256000344,2302.7435774999904,2302.7601918000146,2305.243246100028,2305.2434147000313,None,1,,,,,,nback65,001,2024-01-22_10h56.39.604,untitled,2023.2.3,59.9115944545982,2024-01-22 10h56.50.396781 -0500,
,"[0.3, 0]",None,,,,,,,,,0,12,12,12,2305.2600502000423,,,,,,,,,,,,,,,,,,,,,,,,,,,,,,,,,,,,,,,,,,,,,,,,,,,,,,,,,,,,,,,,2305.2440566000296,2305.2600502000423,2305.2600502000423,2305.743403500004,2305.76012739999,2308.2433577000047,2308.243536600028,None,1,,,,,,nback65,001,2024-01-22_10h56.39.604,untitled,2023.2.3,59.9115944545982,2024-01-22 10h56.50.396781 -0500,
,"[0.2, 0.1]",space,,,,,,,,,0,13,13,13,2308.260077300016,,,,,,,,,,,,,,,,,,,,,,,,,,,,,,,,,,,,,,,,,,,,,,,,,,,,,,,,,,,,,,,,2308.244377200026,2308.260077300016,2308.260077300016,2308.743468300032,2308.759999800008,2311.243452500028,2311.2436421000166,space,1,0.32998209999641404,None,,,,nback65,001,2024-01-22_10h56.39.604,untitled,2023.2.3,59.9115944545982,2024-01-22 10h56.50.396781 -0500,
,"[-0.3, 0]",None,,,,,,,,,0,14,14,14,2311.2600055999937,,,,,,,,,,,,,,,,,,,,,,,,,,,,,,,,,,,,,,,,,,,,,,,,,,,,,,,,,,,,,,,,2311.2445354000083,2311.2600055999937,2311.2600055999937,2311.7432039999985,2311.7598085000063,2314.2433802000014,2314.2435995000415,None,1,,,,,,nback65,001,2024-01-22_10h56.39.604,untitled,2023.2.3,59.9115944545982,2024-01-22 10h56.50.396781 -0500,
,"[0, 0.2]",None,,,,,,,,,0,15,15,15,2314.2599324000184,,,,,,,,,,,,,,,,,,,,,,,,,,,,,,,,,,,,,,,,,,,,,,,,,,,,,,,,,,,,,,,,2314.24429599999,2314.2599324000184,2314.2599324000184,2314.7433272000053,2314.759953300003,2317.2432309000287,2317.2434212000226,None,1,,,,,,nback65,001,2024-01-22_10h56.39.604,untitled,2023.2.3,59.9115944545982,2024-01-22 10h56.50.396781 -0500,
,"[-0.3, 0]",space,,,,,,,,,0,16,16,16,2317.2598577000317,,,,,,,,,,,,,,,,,,,,,,,,,,,,,,,,,,,,,,,,,,,,,,,,,,,,,,,,,,,,,,,,2317.2442654999904,2317.2598577000317,2317.2598577000317,2317.743307100027,2317.759983099997,2320.243194300041,2320.243417699996,space,1,0.33178740000585094,None,,,,nback65,001,2024-01-22_10h56.39.604,untitled,2023.2.3,59.9115944545982,2024-01-22 10h56.50.396781 -0500,
,"[-0.64, -0.4]",None,,,,,,,,,0,17,17,17,2320.25974150002,,,,,,,,,,,,,,,,,,,,,,,,,,,,,,,,,,,,,,,,,,,,,,,,,,,,,,,,,,,,,,,,2320.244435600005,2320.25974150002,2320.25974150002,2320.7431303000194,2320.7599932000157,2323.2431476000347,2323.2433387000347,None,1,,,,,,nback65,001,2024-01-22_10h56.39.604,untitled,2023.2.3,59.9115944545982,2024-01-22 10h56.50.396781 -0500,
,"[-0.2, -0.1]",None,,,,,,,,,0,18,18,18,2323.2598089000094,,,,,,,,,,,,,,,,,,,,,,,,,,,,,,,,,,,,,,,,,,,,,,,,,,,,,,,,,,,,,,,,2323.244091200002,2323.2598089000094,2323.2598089000094,2323.7432965000044,2323.759837699996,2326.2430822000024,2326.2432950999937,None,1,,,,,,nback65,001,2024-01-22_10h56.39.604,untitled,2023.2.3,59.9115944545982,2024-01-22 10h56.50.396781 -0500,
,"[0.2, -0.1]",None,,,,,,,,,0,19,19,19,2326.2596078999923,,,,,,,,,,,,,,,,,,,,,,,,,,,,,,,,,,,,,,,,,,,,,,,,,,,,,,,,,,,,,,,,2326.2441973999958,2326.2596078999923,2326.2596078999923,2326.742939400021,2326.7598290999886,2329.242995300039,2329.2431998000247,None,1,,,,,,nback65,001,2024-01-22_10h56.39.604,untitled,2023.2.3,59.9115944545982,2024-01-22 10h56.50.396781 -0500,
,"[0.2, -0.1]",None,,,,,,,,,0,20,20,20,2329.2596992999897,,,,,,,,,,,,,,,,,,,,,,,,,,,,,,,,,,,,,,,,,,,,,,,,,,,,,,,,,,,,,,,,2329.2439932000125,2329.2596992999897,2329.2596992999897,2329.742927299987,2329.7596374000423,2332.2430387000204,2332.2432807000005,None,1,,,,,,nback65,001,2024-01-22_10h56.39.604,untitled,2023.2.3,59.9115944545982,2024-01-22 10h56.50.396781 -0500,
,"[-0.64, 0.4]",None,,,,,,,,,0,21,21,21,2332.25954540004,,,,,,,,,,,,,,,,,,,,,,,,,,,,,,,,,,,,,,,,,,,,,,,,,,,,,,,,,,,,,,,,2332.244124000019,2332.25954540004,2332.25954540004,2332.7431335999863,2332.7596830000402,2335.2429839000106,2335.2431617000257,None,1,,,,,,nback65,001,2024-01-22_10h56.39.604,untitled,2023.2.3,59.9115944545982,2024-01-22 10h56.50.396781 -0500,
,"[0, 0.2]",None,,,,,,,,,0,22,22,22,2335.2594914000365,,,,,,,,,,,,,,,,,,,,,,,,,,,,,,,,,,,,,,,,,,,,,,,,,,,,,,,,,,,,,,,,2335.2437976000365,2335.2594914000365,2335.2594914000365,2335.742791900004,2335.759519300016,2338.2428481000243,2338.2430647999863,None,1,,,,,,nback65,001,2024-01-22_10h56.39.604,untitled,2023.2.3,59.9115944545982,2024-01-22 10h56.50.396781 -0500,
,"[0.64, -0.4]",None,,,,,,,,,0,23,23,23,2338.2595165999955,,,,,,,,,,,,,,,,,,,,,,,,,,,,,,,,,,,,,,,,,,,,,,,,,,,,,,,,,,,,,,,,2338.243917900021,2338.2595165999955,2338.2595165999955,2338.7427998000057,2338.759482500027,2341.24293930002,2341.243128700007,None,1,,,,,,nback65,001,2024-01-22_10h56.39.604,untitled,2023.2.3,59.9115944545982,2024-01-22 10h56.50.396781 -0500,
,"[0, 0.2]",space,,,,,,,,,0,24,24,24,2341.259581900027,,,,,,,,,,,,,,,,,,,,,,,,,,,,,,,,,,,,,,,,,,,,,,,,,,,,,,,,,,,,,,,,2341.243878100009,2341.259581900027,2341.259581900027,2341.742733900028,2341.759326600004,2344.2428902999964,2344.243142399995,space,1,0.42112739995354787,None,,,,nback65,001,2024-01-22_10h56.39.604,untitled,2023.2.3,59.9115944545982,2024-01-22 10h56.50.396781 -0500,
,"[-0.2, 0.1]",None,,,,,,,,,0,25,25,25,2344.259223400033,,,,,,,,,,,,,,,,,,,,,,,,,,,,,,,,,,,,,,,,,,,,,,,,,,,,,,,,,,,,,,,,2344.2439422000316,2344.259223400033,2344.259223400033,2344.74285780004,2344.759431899991,2347.24270860001,2347.2428985000006,None,1,,,,,,nback65,001,2024-01-22_10h56.39.604,untitled,2023.2.3,59.9115944545982,2024-01-22 10h56.50.396781 -0500,
,"[0.3, 0]",None,,,,,,,,,0,26,26,26,2347.2593180999975,,,,,,,,,,,,,,,,,,,,,,,,,,,,,,,,,,,,,,,,,,,,,,,,,,,,,,,,,,,,,,,,2347.243634000013,2347.2593180999975,2347.2593180999975,2347.7427154000034,2347.759399600036,2350.2426508000353,2350.2427920000046,None,1,,,,,,nback65,001,2024-01-22_10h56.39.604,untitled,2023.2.3,59.9115944545982,2024-01-22 10h56.50.396781 -0500,
,"[-0.2, 0.1]",space,,,,,,,,,0,27,27,27,2350.2589999000193,,,,,,,,,,,,,,,,,,,,,,,,,,,,,,,,,,,,,,,,,,,,,,,,,,,,,,,,,,,,,,,,2350.243184000021,2350.2589999000193,2350.2589999000193,2350.745629300014,2350.7590230000205,,2353.242812100041,space,1,0.34658349998062477,None,,,,nback65,001,2024-01-22_10h56.39.604,untitled,2023.2.3,59.9115944545982,2024-01-22 10h56.50.396781 -0500,
,"[-0.2, 0.1]",None,,,,,,,,,0,28,28,28,2353.2592978000175,,,,,,,,,,,,,,,,,,,,,,,,,,,,,,,,,,,,,,,,,,,,,,,,,,,,,,,,,,,,,,,,2353.2436890000245,2353.2592978000175,2353.2592978000175,2353.7427124000387,2353.759282700019,2356.2425281000324,2356.242743799987,space,0,0.5836806000443175,None,,,,nback65,001,2024-01-22_10h56.39.604,untitled,2023.2.3,59.9115944545982,2024-01-22 10h56.50.396781 -0500,
,"[0.2, 0.1]",None,,,,,,,,,0,29,29,29,2356.259175700019,,,,,,,,,,,,,,,,,,,,,,,,,,,,,,,,,,,,,,,,,,,,,,,,,,,,,,,,,,,,,,,,2356.2437815000303,2356.259175700019,2356.259175700019,2356.742470500001,2356.759268100024,2359.242657100025,2359.2428682000027,None,1,,,,,,nback65,001,2024-01-22_10h56.39.604,untitled,2023.2.3,59.9115944545982,2024-01-22 10h56.50.396781 -0500,
,"[-0.64, -0.4]",None,,,,,,,,,0,30,30,30,2359.259272800002,,,,,,,,,,,,,,,,,,,,,,,,,,,,,,,,,,,,,,,,,,,,,,,,,,,,,,,,,,,,,,,,2359.243678800005,2359.259272800002,2359.259272800002,2359.742530299991,2359.759296300006,2362.242467700038,2362.242683699995,None,1,,,,,,nback65,001,2024-01-22_10h56.39.604,untitled,2023.2.3,59.9115944545982,2024-01-22 10h56.50.396781 -0500,
,"[0, -0.2]",None,,,,,,,,,0,31,31,31,2362.2592347000027,,,,,,,,,,,,,,,,,,,,,,,,,,,,,,,,,,,,,,,,,,,,,,,,,,,,,,,,,,,,,,,,2362.243493999995,2362.2592347000027,2362.2592347000027,2362.7423428000184,2362.7590130000026,2365.242367000028,2365.2425479000085,None,1,,,,,,nback65,001,2024-01-22_10h56.39.604,untitled,2023.2.3,59.9115944545982,2024-01-22 10h56.50.396781 -0500,
,"[-0.64, -0.4]",space,,,,,,,,,0,32,32,32,2365.2590835000155,,,,,,,,,,,,,,,,,,,,,,,,,,,,,,,,,,,,,,,,,,,,,,,,,,,,,,,,,,,,,,,,2365.2432723999955,2365.2590835000155,2365.2590835000155,2365.742447299999,2365.759239100036,2368.242185799987,2368.242342600017,space,1,0.3144462000345811,None,,,,nback65,001,2024-01-22_10h56.39.604,untitled,2023.2.3,59.9115944545982,2024-01-22 10h56.50.396781 -0500,
,"[0.64, 0.4]",None,,,,,,,,,0,33,33,33,2368.2588386000134,,,,,,,,,,,,,,,,,,,,,,,,,,,,,,,,,,,,,,,,,,,,,,,,,,,,,,,,,,,,,,,,2368.243056300038,2368.2588386000134,2368.2588386000134,2368.7423166999943,2368.7589782000287,2371.2422275000135,2371.2424173000036,None,1,,,,,,nback65,001,2024-01-22_10h56.39.604,untitled,2023.2.3,59.9115944545982,2024-01-22 10h56.50.396781 -0500,
,"[-0.3, 0]",None,,,,,,,,,0,34,34,34,2371.2589787000325,,,,,,,,,,,,,,,,,,,,,,,,,,,,,,,,,,,,,,,,,,,,,,,,,,,,,,,,,,,,,,,,2371.2431787000387,2371.2589787000325,2371.2589787000325,2371.741979499988,2371.7587255000253,2374.2422532000346,2374.24244110001,None,1,,,,,,nback65,001,2024-01-22_10h56.39.604,untitled,2023.2.3,59.9115944545982,2024-01-22 10h56.50.396781 -0500,
,"[0.3, 0]",None,,,,,,,,,0,35,35,35,2374.2589094000286,,,,,,,,,,,,,,,,,,,,,,,,,,,,,,,,,,,,,,,,,,,,,,,,,,,,,,,,,,,,,,,,2374.243154900032,2374.2589094000286,2374.2589094000286,2374.742148599995,2374.758946200018,2377.242140599992,2377.2423414000077,None,1,,,,,,nback65,001,2024-01-22_10h56.39.604,untitled,2023.2.3,59.9115944545982,2024-01-22 10h56.50.396781 -0500,
,"[-0.3, 0]",space,,,,,,,,,0,36,36,36,2377.258869400015,,,,,,,,,,,,,,,,,,,,,,,,,,,,,,,,,,,,,,,,,,,,,,,,,,,,,,,,,,,,,,,,2377.2431343999924,2377.258869400015,2377.258869400015,2377.742229900032,2377.7588889999897,2380.241952600016,2380.2421415999997,space,1,0.4219996000174433,None,,,,nback65,001,2024-01-22_10h56.39.604,untitled,2023.2.3,59.9115944545982,2024-01-22 10h56.50.396781 -0500,
,"[0, -0.2]",None,,,,,,,,,0,37,37,37,2380.25875800004,,,,,,,,,,,,,,,,,,,,,,,,,,,,,,,,,,,,,,,,,,,,,,,,,,,,,,,,,,,,,,,,2380.2430022000335,2380.25875800004,2380.25875800004,2380.741982700012,2380.7588224000065,2383.2420701000374,2383.2422706999932,None,1,,,,,,nback65,001,2024-01-22_10h56.39.604,untitled,2023.2.3,59.9115944545982,2024-01-22 10h56.50.396781 -0500,
,"[0.3, 0]",None,,,,,,,,,0,38,38,38,2383.258694900025,,,,,,,,,,,,,,,,,,,,,,,,,,,,,,,,,,,,,,,,,,,,,,,,,,,,,,,,,,,,,,,,2383.2430541000213,2383.258694900025,2383.258694900025,2383.7419905000133,2383.758571400016,2386.2419992000214,2386.2422113000066,space,0,0.4925404000096023,None,,,,nback65,001,2024-01-22_10h56.39.604,untitled,2023.2.3,59.9115944545982,2024-01-22 10h56.50.396781 -0500,
,"[0.2, 0.1]",None,,,,,,,,,0,39,39,39,2386.2586118000327,,,,,,,,,,,,,,,,,,,,,,,,,,,,,,,,,,,,,,,,,,,,,,,,,,,,,,,,,,,,,,,,2386.243221700017,2386.2586118000327,2386.2586118000327,2386.741885400028,2386.758588800032,2389.2418726999895,2389.242084700032,None,1,,,,,,nback65,001,2024-01-22_10h56.39.604,untitled,2023.2.3,59.9115944545982,2024-01-22 10h56.50.396781 -0500,
,,,,,,,,,,,,,,,,,,,,,,,,,,,,,,,,,,,,,,,,,,,,,,,,,,,,,,,,,,,,,,,,,,,,,,,,,,,,,,,,,,,,,,,,,,2389.242672900029,2389.2587813999853,2392.2420513000106,,,,,,,,
