square,location,corrAns,trials_0.thisRepN,trials_0.thisTrialN,trials_0.thisN,trials_0.thisIndex,trials_1.thisRepN,trials_1.thisTrialN,trials_1.thisN,trials_1.thisIndex,trials_2.thisRepN,trials_2.thisTrialN,trials_2.thisN,trials_2.thisIndex,thisRow.t,notes,Instructions.started,instructions.started,key_resp.started,inst_sq11.started,Instructions.stopped,key_resp.keys,key_resp.rt,key_resp.duration,All.started,sq_1.started,sq_2.started,sq_3.started,sq_4.started,sq_5.started,sq_6.started,sq_7.started,sq_8.started,sq_9.started,sq_10.started,sq_11.started,sq_12.started,All.stopped,Fixation.started,fixation_3.started,fixation_3.stopped,Fixation.stopped,N_back_0_Trial.started,target_square_0.started,response_0.started,fixation_0.started,target_square_0.stopped,fixation_0.stopped,N_back_0_Trial.stopped,response_0.keys,response_0.corr,response_0.rt,response_0.duration,Instructions_1.started,instructions_1.started,key_resp_1.started,Instructions_1.stopped,key_resp_1.keys,key_resp_1.rt,key_resp_1.duration,N_back_1_Trial.started,target_square_1.started,response_1.started,fixation_1.started,target_square_1.stopped,fixation_1.stopped,N_back_1_Trial.stopped,response_1.keys,response_1.corr,response_1.rt,response_1.duration,Instructions_2.started,instructions_2.started,key_resp_2.started,Instructions_2.stopped,key_resp_2.keys,key_resp_2.rt,key_resp_2.duration,N_back_2_trials.started,target_square_2.started,response_2.started,fixation_2.started,target_square_2.stopped,fixation_2.stopped,N_back_2_trials.stopped,response_2.keys,response_2.corr,response_2.rt,response_2.duration,End.started,thank_you.started,End.stopped,participant,session,date,expName,psychopyVersion,frameRate,expStart,
,,,,,,,,,,,,,,,,,0.0015703000826761127,0.004012700053863227,0.004012700053863227,0.004012700053863227,1769.9174955000635,space,1769.9074422999984,None,,,,,,,,,,,,,,,,,,,,,,,,,,,,,,,,,,,,,,,,,,,,,,,,,,,,,,,,,,,,,,,,,,,,,nback68,001,2024-01-23_09h23.21.458,untitled,2023.2.3,59.92886446829918,2024-01-23 09h42.43.416623 -0500,
6,"[-0.3, 0]",None,0,0,0,0,,,,,,,,,1771.9358901000815,,,,,,,,,,1769.9175389000447,1769.932390000089,1769.932390000089,1769.932390000089,1769.932390000089,1769.932390000089,1769.932390000089,1769.932390000089,1769.932390000089,1769.932390000089,1769.932390000089,1769.932390000089,1769.932390000089,1770.9163841999834,1770.9164034000132,1770.9324244000018,1771.9358901000815,1771.9166418000823,1771.9340096000815,1771.9358901000815,1771.9358901000815,1772.415793800028,1772.4492137000198,1774.9158128000563,1774.9327471000142,None,1,,,,,,,,,,,,,,,,,,,,,,,,,,,,,,,,,,,,,,,,,,nback68,001,2024-01-23_09h23.21.458,untitled,2023.2.3,59.92886446829918,2024-01-23 09h42.43.416623 -0500,
10,"[0, -0.2]",None,0,1,1,1,,,,,,,,,1774.9492372000823,,,,,,,,,,,,,,,,,,,,,,,,,,,,1774.933818200021,1774.9492372000823,1774.9492372000823,1775.4158260000404,1775.4491831000196,1777.9156402000226,1777.9326355999801,None,1,,,,,,,,,,,,,,,,,,,,,,,,,,,,,,,,,,,,,,,,,,nback68,001,2024-01-23_09h23.21.458,untitled,2023.2.3,59.92886446829918,2024-01-23 09h42.43.416623 -0500,
11,"[-0.64, -0.4]",space,0,2,2,2,,,,,,,,,1777.9490547000896,,,,,,,,,,,,,,,,,,,,,,,,,,,,1777.933398900088,1777.9490547000896,1777.9490547000896,1778.4156358999899,1778.4490693000844,1780.9158926000819,1780.932496500085,space,1,0.4852903999853879,None,,,,,,,,,,,,,,,,,,,,,,,,,,,,,,,,,,,,,,,,nback68,001,2024-01-23_09h23.21.458,untitled,2023.2.3,59.92886446829918,2024-01-23 09h42.43.416623 -0500,
12,"[0.64, -0.4]",None,0,3,3,3,,,,,,,,,1780.9488870999776,,,,,,,,,,,,,,,,,,,,,,,,,,,,1780.9337284000358,1780.9488870999776,1780.9488870999776,1781.4156389000127,1781.448901200085,1783.9157464000164,1783.9324087999994,None,1,,,,,,,,,,,,,,,,,,,,,,,,,,,,,,,,,,,,,,,,,,nback68,001,2024-01-23_09h23.21.458,untitled,2023.2.3,59.92886446829918,2024-01-23 09h42.43.416623 -0500,
1,"[-0.64, 0.4]",None,0,4,4,4,,,,,,,,,1783.9489321000874,,,,,,,,,,,,,,,,,,,,,,,,,,,,1783.9332050000085,1783.9489321000874,1783.9489321000874,1784.4158859000308,1784.4489841000177,1786.9156681000022,1786.9324888000265,None,1,,,,,,,,,,,,,,,,,,,,,,,,,,,,,,,,,,,,,,,,,,nback68,001,2024-01-23_09h23.21.458,untitled,2023.2.3,59.92886446829918,2024-01-23 09h42.43.416623 -0500,
1,"[-0.64, 0.4]",None,0,5,5,5,,,,,,,,,1786.9489130000584,,,,,,,,,,,,,,,,,,,,,,,,,,,,1786.9332217000192,1786.9489130000584,1786.9489130000584,1787.415503700031,1787.4488139000023,1789.9155470000114,1789.9324265000178,None,1,,,,,,,,,,,,,,,,,,,,,,,,,,,,,,,,,,,,,,,,,,nback68,001,2024-01-23_09h23.21.458,untitled,2023.2.3,59.92886446829918,2024-01-23 09h42.43.416623 -0500,
4,"[-0.2, 0.1]",None,0,6,6,6,,,,,,,,,1789.9488964000484,,,,,,,,,,,,,,,,,,,,,,,,,,,,1789.9331561999861,1789.9488964000484,1789.9488964000484,1790.4153245000634,1790.4487702000188,1792.9155520000495,1792.932405999978,None,1,,,,,,,,,,,,,,,,,,,,,,,,,,,,,,,,,,,,,,,,,,nback68,001,2024-01-23_09h23.21.458,untitled,2023.2.3,59.92886446829918,2024-01-23 09h42.43.416623 -0500,
5,"[0.2, 0.1]",None,0,7,7,7,,,,,,,,,1792.9489160000812,,,,,,,,,,,,,,,,,,,,,,,,,,,,1792.9331819000654,1792.9489160000812,1792.9489160000812,1793.4154313000618,1793.448630800005,1795.9155863000778,1795.9324793000706,space,0,0.31031139998231083,None,,,,,,,,,,,,,,,,,,,,,,,,,,,,,,,,,,,,,,,,nback68,001,2024-01-23_09h23.21.458,untitled,2023.2.3,59.92886446829918,2024-01-23 09h42.43.416623 -0500,
11,"[-0.64, -0.4]",space,0,8,8,8,,,,,,,,,1795.948725400027,,,,,,,,,,,,,,,,,,,,,,,,,,,,1795.9334707000526,1795.948725400027,1795.948725400027,1796.4153080000542,1796.4486946000252,1798.9153399000643,1798.9323980000336,space,1,0.4322898000245914,None,,,,,,,,,,,,,,,,,,,,,,,,,,,,,,,,,,,,,,,,nback68,001,2024-01-23_09h23.21.458,untitled,2023.2.3,59.92886446829918,2024-01-23 09h42.43.416623 -0500,
9,"[0.2, -0.1]",None,0,9,9,9,,,,,,,,,1798.9486977000488,,,,,,,,,,,,,,,,,,,,,,,,,,,,1798.9334296000889,1798.9486977000488,1798.9486977000488,1799.4320172000444,1799.4486124999821,1801.931993199978,1801.9321988000302,None,1,,,,,,,,,,,,,,,,,,,,,,,,,,,,,,,,,,,,,,,,,,nback68,001,2024-01-23_09h23.21.458,untitled,2023.2.3,59.92886446829918,2024-01-23 09h42.43.416623 -0500,
8,"[-0.2, -0.1]",None,0,10,10,10,,,,,,,,,1801.948478300008,,,,,,,,,,,,,,,,,,,,,,,,,,,,1801.9329897999996,1801.948478300008,1801.948478300008,1802.4152107000118,1802.4487310000695,1804.9153162000002,1804.931814600015,None,1,,,,,,,,,,,,,,,,,,,,,,,,,,,,,,,,,,,,,,,,,,nback68,001,2024-01-23_09h23.21.458,untitled,2023.2.3,59.92886446829918,2024-01-23 09h42.43.416623 -0500,
9,"[0.2, -0.1]",None,0,11,11,11,,,,,,,,,1804.9483601000393,,,,,,,,,,,,,,,,,,,,,,,,,,,,1804.9321356000146,1804.9483601000393,1804.9483601000393,1805.4321083000395,1805.4485522999894,1807.931829100009,1807.9320189000573,None,1,,,,,,,,,,,,,,,,,,,,,,,,,,,,,,,,,,,,,,,,,,nback68,001,2024-01-23_09h23.21.458,untitled,2023.2.3,59.92886446829918,2024-01-23 09h42.43.416623 -0500,
6,"[-0.3, 0]",None,0,12,12,12,,,,,,,,,1807.9484771999996,,,,,,,,,,,,,,,,,,,,,,,,,,,,1807.9327562000835,1807.9484771999996,1807.9484771999996,1808.4319065000163,1808.4486139999935,1810.931846600026,1810.9320357000688,None,1,,,,,,,,,,,,,,,,,,,,,,,,,,,,,,,,,,,,,,,,,,nback68,001,2024-01-23_09h23.21.458,untitled,2023.2.3,59.92886446829918,2024-01-23 09h42.43.416623 -0500,
9,"[0.2, -0.1]",None,0,13,13,13,,,,,,,,,1810.948490299983,,,,,,,,,,,,,,,,,,,,,,,,,,,,1810.9327561000828,1810.948490299983,1810.948490299983,1811.4320098999888,1811.4484423000831,1813.931844000006,1813.9320606000256,None,1,,,,,,,,,,,,,,,,,,,,,,,,,,,,,,,,,,,,,,,,,,nback68,001,2024-01-23_09h23.21.458,untitled,2023.2.3,59.92886446829918,2024-01-23 09h42.43.416623 -0500,
7,"[0.3, 0]",None,0,14,14,14,,,,,,,,,1813.948282300029,,,,,,,,,,,,,,,,,,,,,,,,,,,,1813.9329347000457,1813.948282300029,1813.948282300029,1814.431932699983,1814.448437700048,1816.9317070000106,1816.9318693000823,None,1,,,,,,,,,,,,,,,,,,,,,,,,,,,,,,,,,,,,,,,,,,nback68,001,2024-01-23_09h23.21.458,untitled,2023.2.3,59.92886446829918,2024-01-23 09h42.43.416623 -0500,
2,"[0.64, 0.4]",None,0,15,15,15,,,,,,,,,1816.9482515000273,,,,,,,,,,,,,,,,,,,,,,,,,,,,1816.932653900003,1816.9482515000273,1816.9482515000273,1817.431638600072,1817.4483395999996,1819.9316193000413,1819.9318013000302,None,1,,,,,,,,,,,,,,,,,,,,,,,,,,,,,,,,,,,,,,,,,,nback68,001,2024-01-23_09h23.21.458,untitled,2023.2.3,59.92886446829918,2024-01-23 09h42.43.416623 -0500,
2,"[0.64, 0.4]",None,0,16,16,16,,,,,,,,,1819.9484141999856,,,,,,,,,,,,,,,,,,,,,,,,,,,,1819.9325963000301,1819.9484141999856,1819.9484141999856,1820.4316450000042,1820.4484392000595,1822.9315490000881,1822.9317150000716,None,1,,,,,,,,,,,,,,,,,,,,,,,,,,,,,,,,,,,,,,,,,,nback68,001,2024-01-23_09h23.21.458,untitled,2023.2.3,59.92886446829918,2024-01-23 09h42.43.416623 -0500,
11,"[-0.64, -0.4]",space,0,17,17,17,,,,,,,,,1822.9481552999932,,,,,,,,,,,,,,,,,,,,,,,,,,,,1822.9323439000873,1822.9481552999932,1822.9481552999932,1823.4316082000732,1823.4482343000127,1825.9316572999815,1825.9318394000875,space,1,0.3876612999010831,None,,,,,,,,,,,,,,,,,,,,,,,,,,,,,,,,,,,,,,,,nback68,001,2024-01-23_09h23.21.458,untitled,2023.2.3,59.92886446829918,2024-01-23 09h42.43.416623 -0500,
11,"[-0.64, -0.4]",space,0,18,18,18,,,,,,,,,1825.9482982000336,,,,,,,,,,,,,,,,,,,,,,,,,,,,1825.932656000019,1825.9482982000336,1825.9482982000336,1826.4314378000563,1826.4480194000062,1828.9314357000403,1828.931636900059,space,1,0.4574795999797061,None,,,,,,,,,,,,,,,,,,,,,,,,,,,,,,,,,,,,,,,,nback68,001,2024-01-23_09h23.21.458,untitled,2023.2.3,59.92886446829918,2024-01-23 09h42.43.416623 -0500,
7,"[0.3, 0]",None,0,19,19,19,,,,,,,,,1828.9482168999966,,,,,,,,,,,,,,,,,,,,,,,,,,,,1828.9325572000816,1828.9482168999966,1828.9482168999966,1829.4315252000233,1829.4481349000707,1831.93143960007,1831.9316133999964,None,1,,,,,,,,,,,,,,,,,,,,,,,,,,,,,,,,,,,,,,,,,,nback68,001,2024-01-23_09h23.21.458,untitled,2023.2.3,59.92886446829918,2024-01-23 09h42.43.416623 -0500,
3,"[0, 0.2]",None,0,20,20,20,,,,,,,,,1831.9481848999858,,,,,,,,,,,,,,,,,,,,,,,,,,,,1831.9322556999978,1831.9481848999858,1831.9481848999858,1832.431473899982,1832.4481191000668,1834.9314111000858,1834.9315791000845,None,1,,,,,,,,,,,,,,,,,,,,,,,,,,,,,,,,,,,,,,,,,,nback68,001,2024-01-23_09h23.21.458,untitled,2023.2.3,59.92886446829918,2024-01-23 09h42.43.416623 -0500,
10,"[0, -0.2]",None,0,21,21,21,,,,,,,,,1834.9480914000887,,,,,,,,,,,,,,,,,,,,,,,,,,,,1834.9322563000023,1834.9480914000887,1834.9480914000887,1835.4315669999924,1835.4481432000175,1837.9312979000388,1837.9314779000124,None,1,,,,,,,,,,,,,,,,,,,,,,,,,,,,,,,,,,,,,,,,,,nback68,001,2024-01-23_09h23.21.458,untitled,2023.2.3,59.92886446829918,2024-01-23 09h42.43.416623 -0500,
1,"[-0.64, 0.4]",None,0,22,22,22,,,,,,,,,1837.947929100017,,,,,,,,,,,,,,,,,,,,,,,,,,,,1837.9322363000829,1837.947929100017,1837.947929100017,1838.4315488000866,1838.4479816000676,1840.9313242000062,1840.9314865000779,None,1,,,,,,,,,,,,,,,,,,,,,,,,,,,,,,,,,,,,,,,,,,nback68,001,2024-01-23_09h23.21.458,untitled,2023.2.3,59.92886446829918,2024-01-23 09h42.43.416623 -0500,
2,"[0.64, 0.4]",None,0,23,23,23,,,,,,,,,1840.9478480999824,,,,,,,,,,,,,,,,,,,,,,,,,,,,1840.9320993000874,1840.9478480999824,1840.9478480999824,1841.4311748000327,1841.447985899984,1843.9313854000065,1843.9315993000055,None,1,,,,,,,,,,,,,,,,,,,,,,,,,,,,,,,,,,,,,,,,,,nback68,001,2024-01-23_09h23.21.458,untitled,2023.2.3,59.92886446829918,2024-01-23 09h42.43.416623 -0500,
6,"[-0.3, 0]",None,0,24,24,24,,,,,,,,,1843.9480409000535,,,,,,,,,,,,,,,,,,,,,,,,,,,,1843.9324087999994,1843.9480409000535,1843.9480409000535,1844.431441700086,1844.4478924000869,1846.9311670000898,1846.9313565000193,None,1,,,,,,,,,,,,,,,,,,,,,,,,,,,,,,,,,,,,,,,,,,nback68,001,2024-01-23_09h23.21.458,untitled,2023.2.3,59.92886446829918,2024-01-23 09h42.43.416623 -0500,
3,"[0, 0.2]",None,0,25,25,25,,,,,,,,,1846.9479168000398,,,,,,,,,,,,,,,,,,,,,,,,,,,,1846.9321752000833,1846.9479168000398,1846.9479168000398,1847.4311873000115,1847.4478816000046,1849.9313504000893,1849.9315493000904,None,1,,,,,,,,,,,,,,,,,,,,,,,,,,,,,,,,,,,,,,,,,,nback68,001,2024-01-23_09h23.21.458,untitled,2023.2.3,59.92886446829918,2024-01-23 09h42.43.416623 -0500,
11,"[-0.64, -0.4]",space,0,26,26,26,,,,,,,,,1849.9477819000604,,,,,,,,,,,,,,,,,,,,,,,,,,,,1849.932364200009,1849.9477819000604,1849.9477819000604,1850.4311603000388,1850.4477598000085,1852.9312943000114,1852.931514200056,space,1,0.3595516999484971,None,,,,,,,,,,,,,,,,,,,,,,,,,,,,,,,,,,,,,,,,nback68,001,2024-01-23_09h23.21.458,untitled,2023.2.3,59.92886446829918,2024-01-23 09h42.43.416623 -0500,
1,"[-0.64, 0.4]",None,0,27,27,27,,,,,,,,,1852.947817999986,,,,,,,,,,,,,,,,,,,,,,,,,,,,1852.9324000000488,1852.947817999986,1852.947817999986,1853.431382699986,1853.447883100016,1855.931166900089,1855.9313714000164,None,1,,,,,,,,,,,,,,,,,,,,,,,,,,,,,,,,,,,,,,,,,,nback68,001,2024-01-23_09h23.21.458,untitled,2023.2.3,59.92886446829918,2024-01-23 09h42.43.416623 -0500,
3,"[0, 0.2]",None,0,28,28,28,,,,,,,,,1855.9477137000067,,,,,,,,,,,,,,,,,,,,,,,,,,,,1855.93214550009,1855.9477137000067,1855.9477137000067,1856.4311207000865,1856.4476924000774,1858.930995700066,1858.9312025000108,None,1,,,,,,,,,,,,,,,,,,,,,,,,,,,,,,,,,,,,,,,,,,nback68,001,2024-01-23_09h23.21.458,untitled,2023.2.3,59.92886446829918,2024-01-23 09h42.43.416623 -0500,
9,"[0.2, -0.1]",None,0,29,29,29,,,,,,,,,1858.9477048000554,,,,,,,,,,,,,,,,,,,,,,,,,,,,1858.9319787999848,1858.9477048000554,1858.9477048000554,1859.4310474999947,1859.4476702000247,1861.9310240000486,1861.9312188000185,None,1,,,,,,,,,,,,,,,,,,,,,,,,,,,,,,,,,,,,,,,,,,nback68,001,2024-01-23_09h23.21.458,untitled,2023.2.3,59.92886446829918,2024-01-23 09h42.43.416623 -0500,
8,"[-0.2, -0.1]",None,0,30,30,30,,,,,,,,,1861.9475544000743,,,,,,,,,,,,,,,,,,,,,,,,,,,,1861.9319301000796,1861.9475544000743,1861.9475544000743,1862.431046599988,1862.4476749000605,1864.9309614000376,1864.9311742000282,None,1,,,,,,,,,,,,,,,,,,,,,,,,,,,,,,,,,,,,,,,,,,nback68,001,2024-01-23_09h23.21.458,untitled,2023.2.3,59.92886446829918,2024-01-23 09h42.43.416623 -0500,
12,"[0.64, -0.4]",None,0,31,31,31,,,,,,,,,1864.9475700000767,,,,,,,,,,,,,,,,,,,,,,,,,,,,1864.9319929000922,1864.9475700000767,1864.9475700000767,1865.431028900086,1865.4476077000145,1867.9309082999825,1867.9311144000385,None,1,,,,,,,,,,,,,,,,,,,,,,,,,,,,,,,,,,,,,,,,,,nback68,001,2024-01-23_09h23.21.458,untitled,2023.2.3,59.92886446829918,2024-01-23 09h42.43.416623 -0500,
9,"[0.2, -0.1]",None,0,32,32,32,,,,,,,,,1867.9474035000894,,,,,,,,,,,,,,,,,,,,,,,,,,,,1867.9318718999857,1867.9474035000894,1867.9474035000894,1868.4308748000767,1868.4475315000163,1870.9309892000165,1870.9311910000397,None,1,,,,,,,,,,,,,,,,,,,,,,,,,,,,,,,,,,,,,,,,,,nback68,001,2024-01-23_09h23.21.458,untitled,2023.2.3,59.92886446829918,2024-01-23 09h42.43.416623 -0500,
11,"[-0.64, -0.4]",space,0,33,33,33,,,,,,,,,1870.9474590000464,,,,,,,,,,,,,,,,,,,,,,,,,,,,1870.9319766000845,1870.9474590000464,1870.9474590000464,1871.4309871000005,1871.4474266000325,1873.9307570999954,1873.9309525000863,space,1,0.4081121999770403,None,,,,,,,,,,,,,,,,,,,,,,,,,,,,,,,,,,,,,,,,nback68,001,2024-01-23_09h23.21.458,untitled,2023.2.3,59.92886446829918,2024-01-23 09h42.43.416623 -0500,
7,"[0.3, 0]",None,0,34,34,34,,,,,,,,,1873.9473977000453,,,,,,,,,,,,,,,,,,,,,,,,,,,,1873.9318616000237,1873.9473977000453,1873.9473977000453,1874.4307893000077,1874.447402000078,1876.9307334000478,1876.9308379000286,None,1,,,,,,,,,,,,,,,,,,,,,,,,,,,,,,,,,,,,,,,,,,nback68,001,2024-01-23_09h23.21.458,untitled,2023.2.3,59.92886446829918,2024-01-23 09h42.43.416623 -0500,
11,"[-0.64, -0.4]",space,0,35,35,35,,,,,,,,,1876.947371300077,,,,,,,,,,,,,,,,,,,,,,,,,,,,1876.9314397000708,1876.947371300077,1876.947371300077,1877.430594400037,1877.4472247000085,1879.9306185999885,1879.9308201000094,space,1,0.4669147999957204,None,,,,,,,,,,,,,,,,,,,,,,,,,,,,,,,,,,,,,,,,nback68,001,2024-01-23_09h23.21.458,untitled,2023.2.3,59.92886446829918,2024-01-23 09h42.43.416623 -0500,
4,"[-0.2, 0.1]",None,0,36,36,36,,,,,,,,,1879.9472490000771,,,,,,,,,,,,,,,,,,,,,,,,,,,,1879.9317657999927,1879.9472490000771,1879.9472490000771,1880.4305736999959,1880.4473332000198,1882.930593200028,1882.93076690007,space,0,0.20765850006137043,None,,,,,,,,,,,,,,,,,,,,,,,,,,,,,,,,,,,,,,,,nback68,001,2024-01-23_09h23.21.458,untitled,2023.2.3,59.92886446829918,2024-01-23 09h42.43.416623 -0500,
5,"[0.2, 0.1]",None,0,37,37,37,,,,,,,,,1882.9471208000323,,,,,,,,,,,,,,,,,,,,,,,,,,,,1882.9315671999939,1882.9471208000323,1882.9471208000323,1883.430753700086,1883.4472551000072,1885.930507900077,1885.9306889000582,None,1,,,,,,,,,,,,,,,,,,,,,,,,,,,,,,,,,,,,,,,,,,nback68,001,2024-01-23_09h23.21.458,untitled,2023.2.3,59.92886446829918,2024-01-23 09h42.43.416623 -0500,
6,"[-0.3, 0]",None,0,38,38,38,,,,,,,,,1885.9472160000587,,,,,,,,,,,,,,,,,,,,,,,,,,,,1885.9313829999883,1885.9472160000587,1885.9472160000587,1886.4305212000618,1886.4470573000144,1888.9304050999926,1888.930606000009,None,1,,,,,,,,,,,,,,,,,,,,,,,,,,,,,,,,,,,,,,,,,,nback68,001,2024-01-23_09h23.21.458,untitled,2023.2.3,59.92886446829918,2024-01-23 09h42.43.416623 -0500,
11,"[-0.64, -0.4]",space,0,39,39,39,,,,,,,,,1888.9471902999794,,,,,,,,,,,,,,,,,,,,,,,,,,,,1888.931453300058,1888.9471902999794,1888.9471902999794,1889.4304037999827,1889.4470205000835,1891.9302785000764,1891.9304459000705,space,1,0.3551286000292748,None,,,,,,,,,,,,,,,,,,,,,,,,,,,,,,,,,,,,,,,,nback68,001,2024-01-23_09h23.21.458,untitled,2023.2.3,59.92886446829918,2024-01-23 09h42.43.416623 -0500,
,,,,,,,,,,,,,,,,,,,,,,,,,,,,,,,,,,,,,,,,,,,,,,,,,,,,,,1891.9310372000327,1891.9471335000126,1891.9471335000126,1907.1486243000254,space,15.198650500038639,None,,,,,,,,,,,,,,,,,,,,,,,,,,,,,,,,,nback68,001,2024-01-23_09h23.21.458,untitled,2023.2.3,59.92886446829918,2024-01-23 09h42.43.416623 -0500,
10,"[0, -0.2]",None,,,,,0,0,0,0,,,,,1908.1654956000857,,,,,,,,,,,,,,,,,,,,,,,,1907.148675500066,1907.1633934000274,1908.1654956000857,1908.1477278000675,,,,,,,,,,,,,,,,,,,1908.1635626000352,1908.1654956000857,1908.1654956000857,1908.663455800037,1908.6801170000108,1911.1635336000472,1911.1637388999807,None,1,,,,,,,,,,,,,,,,,,,,,,,,nback68,001,2024-01-23_09h23.21.458,untitled,2023.2.3,59.92886446829918,2024-01-23 09h42.43.416623 -0500,
5,"[0.2, 0.1]",None,,,,,0,1,1,1,,,,,1911.1799055000301,,,,,,,,,,,,,,,,,,,,,,,,,,,,,,,,,,,,,,,,,,,,,,1911.1646057000617,1911.1799055000301,1911.1799055000301,1911.663434999995,1911.6802461000625,1914.1633333000354,1914.1635264999932,None,1,,,,,,,,,,,,,,,,,,,,,,,,nback68,001,2024-01-23_09h23.21.458,untitled,2023.2.3,59.92886446829918,2024-01-23 09h42.43.416623 -0500,
6,"[-0.3, 0]",None,,,,,0,2,2,2,,,,,1914.1799870000686,,,,,,,,,,,,,,,,,,,,,,,,,,,,,,,,,,,,,,,,,,,,,,1914.16426650004,1914.1799870000686,1914.1799870000686,1914.6633350000484,1914.680019200081,1917.1634742000606,1917.1636857000412,None,1,,,,,,,,,,,,,,,,,,,,,,,,nback68,001,2024-01-23_09h23.21.458,untitled,2023.2.3,59.92886446829918,2024-01-23 09h42.43.416623 -0500,
6,"[-0.3, 0]",space,,,,,0,3,3,3,,,,,1917.1802227000007,,,,,,,,,,,,,,,,,,,,,,,,,,,,,,,,,,,,,,,,,,,,,,1917.164506400004,1917.1802227000007,1917.1802227000007,1917.6632835000055,1917.6801481000148,1920.1633676000638,1920.1635865999851,space,1,0.6683114999905229,None,,,,,,,,,,,,,,,,,,,,,,nback68,001,2024-01-23_09h23.21.458,untitled,2023.2.3,59.92886446829918,2024-01-23 09h42.43.416623 -0500,
12,"[0.64, -0.4]",None,,,,,0,4,4,4,,,,,1920.18002780003,,,,,,,,,,,,,,,,,,,,,,,,,,,,,,,,,,,,,,,,,,,,,,1920.1647400000365,1920.18002780003,1920.18002780003,1920.6634409000399,1920.6801345000276,1923.1632046999875,1923.163398200064,None,1,,,,,,,,,,,,,,,,,,,,,,,,nback68,001,2024-01-23_09h23.21.458,untitled,2023.2.3,59.92886446829918,2024-01-23 09h42.43.416623 -0500,
10,"[0, -0.2]",None,,,,,0,5,5,5,,,,,1923.1798174000578,,,,,,,,,,,,,,,,,,,,,,,,,,,,,,,,,,,,,,,,,,,,,,1923.1641183000756,1923.1798174000578,1923.1798174000578,1923.6630878000287,1923.6799148999853,1926.163149500033,1926.1633708000882,None,1,,,,,,,,,,,,,,,,,,,,,,,,nback68,001,2024-01-23_09h23.21.458,untitled,2023.2.3,59.92886446829918,2024-01-23 09h42.43.416623 -0500,
2,"[0.64, 0.4]",None,,,,,0,6,6,6,,,,,1926.179889000021,,,,,,,,,,,,,,,,,,,,,,,,,,,,,,,,,,,,,,,,,,,,,,1926.1642148999963,1926.179889000021,1926.179889000021,1926.6631052000448,1926.6799218000378,1929.1631684000604,1929.163371300092,None,1,,,,,,,,,,,,,,,,,,,,,,,,nback68,001,2024-01-23_09h23.21.458,untitled,2023.2.3,59.92886446829918,2024-01-23 09h42.43.416623 -0500,
9,"[0.2, -0.1]",None,,,,,0,7,7,7,,,,,1929.1797706000507,,,,,,,,,,,,,,,,,,,,,,,,,,,,,,,,,,,,,,,,,,,,,,1929.164177000057,1929.1797706000507,1929.1797706000507,1929.6630333000794,1929.6796621000394,1932.1629763999954,1932.1631628000177,None,1,,,,,,,,,,,,,,,,,,,,,,,,nback68,001,2024-01-23_09h23.21.458,untitled,2023.2.3,59.92886446829918,2024-01-23 09h42.43.416623 -0500,
9,"[0.2, -0.1]",space,,,,,0,8,8,8,,,,,1932.1797198000131,,,,,,,,,,,,,,,,,,,,,,,,,,,,,,,,,,,,,,,,,,,,,,1932.1638687000377,1932.1797198000131,1932.1797198000131,1932.6629517000401,1932.679584800033,1935.163002000074,1935.163179300027,space,1,0.523060999927111,None,,,,,,,,,,,,,,,,,,,,,,nback68,001,2024-01-23_09h23.21.458,untitled,2023.2.3,59.92886446829918,2024-01-23 09h42.43.416623 -0500,
6,"[-0.3, 0]",None,,,,,0,9,9,9,,,,,1935.1795994000277,,,,,,,,,,,,,,,,,,,,,,,,,,,,,,,,,,,,,,,,,,,,,,1935.1639729000162,1935.1795994000277,1935.1795994000277,1935.663051099982,1935.6795680000214,1938.1628390999977,1938.1630068999948,None,1,,,,,,,,,,,,,,,,,,,,,,,,nback68,001,2024-01-23_09h23.21.458,untitled,2023.2.3,59.92886446829918,2024-01-23 09h42.43.416623 -0500,
11,"[-0.64, -0.4]",None,,,,,0,10,10,10,,,,,1938.1796399999876,,,,,,,,,,,,,,,,,,,,,,,,,,,,,,,,,,,,,,,,,,,,,,1938.1636405000463,1938.1796399999876,1938.1796399999876,1938.6629912999924,1938.6795773000922,1941.1630365999881,1941.1632561000297,None,1,,,,,,,,,,,,,,,,,,,,,,,,nback68,001,2024-01-23_09h23.21.458,untitled,2023.2.3,59.92886446829918,2024-01-23 09h42.43.416623 -0500,
11,"[-0.64, -0.4]",space,,,,,0,11,11,11,,,,,1941.1796259999974,,,,,,,,,,,,,,,,,,,,,,,,,,,,,,,,,,,,,,,,,,,,,,1941.164103700081,1941.1796259999974,1941.1796259999974,1941.6627445000922,1941.6797374000307,1944.1628014000598,1944.1629920999985,space,1,0.3706352000590414,None,,,,,,,,,,,,,,,,,,,,,,nback68,001,2024-01-23_09h23.21.458,untitled,2023.2.3,59.92886446829918,2024-01-23 09h42.43.416623 -0500,
4,"[-0.2, 0.1]",None,,,,,0,12,12,12,,,,,1944.1794758000178,,,,,,,,,,,,,,,,,,,,,,,,,,,,,,,,,,,,,,,,,,,,,,1944.163879300002,1944.1794758000178,1944.1794758000178,1944.6630038000876,1944.6795733000617,1947.1628281000303,1947.1630437000422,None,1,,,,,,,,,,,,,,,,,,,,,,,,nback68,001,2024-01-23_09h23.21.458,untitled,2023.2.3,59.92886446829918,2024-01-23 09h42.43.416623 -0500,
3,"[0, 0.2]",None,,,,,0,13,13,13,,,,,1947.1797502000118,,,,,,,,,,,,,,,,,,,,,,,,,,,,,,,,,,,,,,,,,,,,,,1947.16387639998,1947.1797502000118,1947.1797502000118,1947.6626524000894,1947.6793672000058,1950.1627994000446,1950.163015200058,None,1,,,,,,,,,,,,,,,,,,,,,,,,nback68,001,2024-01-23_09h23.21.458,untitled,2023.2.3,59.92886446829918,2024-01-23 09h42.43.416623 -0500,
3,"[0, 0.2]",space,,,,,0,14,14,14,,,,,1950.179551600013,,,,,,,,,,,,,,,,,,,,,,,,,,,,,,,,,,,,,,,,,,,,,,1950.1638202000177,1950.179551600013,1950.179551600013,1950.662829900044,1950.6794686000794,1953.1627419000724,1953.1629353000317,space,1,0.5522467000409961,None,,,,,,,,,,,,,,,,,,,,,,nback68,001,2024-01-23_09h23.21.458,untitled,2023.2.3,59.92886446829918,2024-01-23 09h42.43.416623 -0500,
8,"[-0.2, -0.1]",None,,,,,0,15,15,15,,,,,1953.1794942000415,,,,,,,,,,,,,,,,,,,,,,,,,,,,,,,,,,,,,,,,,,,,,,1953.163807200035,1953.1794942000415,1953.1794942000415,1953.6626027000602,1953.6793031999841,1956.1627479000017,1956.1629652000265,None,1,,,,,,,,,,,,,,,,,,,,,,,,nback68,001,2024-01-23_09h23.21.458,untitled,2023.2.3,59.92886446829918,2024-01-23 09h42.43.416623 -0500,
1,"[-0.64, 0.4]",None,,,,,0,16,16,16,,,,,1956.1794657000573,,,,,,,,,,,,,,,,,,,,,,,,,,,,,,,,,,,,,,,,,,,,,,1956.163839600049,1956.1794657000573,1956.1794657000573,1956.6625656000106,1956.6794205000624,1959.1625726000639,1959.1627949000103,None,1,,,,,,,,,,,,,,,,,,,,,,,,nback68,001,2024-01-23_09h23.21.458,untitled,2023.2.3,59.92886446829918,2024-01-23 09h42.43.416623 -0500,
2,"[0.64, 0.4]",None,,,,,0,17,17,17,,,,,1959.1793802999891,,,,,,,,,,,,,,,,,,,,,,,,,,,,,,,,,,,,,,,,,,,,,,1959.1636468999786,1959.1793802999891,1959.1793802999891,1959.6627107000677,1959.6791880000383,1962.162611000007,1962.162784300046,None,1,,,,,,,,,,,,,,,,,,,,,,,,nback68,001,2024-01-23_09h23.21.458,untitled,2023.2.3,59.92886446829918,2024-01-23 09h42.43.416623 -0500,
4,"[-0.2, 0.1]",None,,,,,0,18,18,18,,,,,1962.1791726000374,,,,,,,,,,,,,,,,,,,,,,,,,,,,,,,,,,,,,,,,,,,,,,1962.1634622000856,1962.1791726000374,1962.1791726000374,1962.6626645000651,1962.6792168000247,1965.1625329999952,1965.1627334000077,None,1,,,,,,,,,,,,,,,,,,,,,,,,nback68,001,2024-01-23_09h23.21.458,untitled,2023.2.3,59.92886446829918,2024-01-23 09h42.43.416623 -0500,
4,"[-0.2, 0.1]",space,,,,,0,19,19,19,,,,,1965.179244800005,,,,,,,,,,,,,,,,,,,,,,,,,,,,,,,,,,,,,,,,,,,,,,1965.1635052000638,1965.179244800005,1965.179244800005,1965.662600300042,1965.679129300057,1968.1624002000317,1968.1626133000245,space,1,0.5053249000338838,None,,,,,,,,,,,,,,,,,,,,,,nback68,001,2024-01-23_09h23.21.458,untitled,2023.2.3,59.92886446829918,2024-01-23 09h42.43.416623 -0500,
8,"[-0.2, -0.1]",None,,,,,0,20,20,20,,,,,1968.1789660999784,,,,,,,,,,,,,,,,,,,,,,,,,,,,,,,,,,,,,,,,,,,,,,1968.1636055000126,1968.1789660999784,1968.1789660999784,1968.662427400006,1968.6789555000141,1971.1626490000635,1971.1628445000388,None,1,,,,,,,,,,,,,,,,,,,,,,,,nback68,001,2024-01-23_09h23.21.458,untitled,2023.2.3,59.92886446829918,2024-01-23 09h42.43.416623 -0500,
5,"[0.2, 0.1]",None,,,,,0,21,21,21,,,,,1971.1789180000778,,,,,,,,,,,,,,,,,,,,,,,,,,,,,,,,,,,,,,,,,,,,,,1971.1636316999793,1971.1789180000778,1971.1789180000778,1971.6624321000418,1971.679106800002,1974.1624147000257,1974.1626128000207,None,1,,,,,,,,,,,,,,,,,,,,,,,,nback68,001,2024-01-23_09h23.21.458,untitled,2023.2.3,59.92886446829918,2024-01-23 09h42.43.416623 -0500,
5,"[0.2, 0.1]",space,,,,,0,22,22,22,,,,,1974.1789645000827,,,,,,,,,,,,,,,,,,,,,,,,,,,,,,,,,,,,,,,,,,,,,,1974.1634278000565,1974.1789645000827,1974.1789645000827,1974.6623447000748,1974.6790282999864,1977.162258299999,1977.1624512000708,space,1,0.32213940005749464,None,,,,,,,,,,,,,,,,,,,,,,nback68,001,2024-01-23_09h23.21.458,untitled,2023.2.3,59.92886446829918,2024-01-23 09h42.43.416623 -0500,
1,"[-0.64, 0.4]",None,,,,,0,23,23,23,,,,,1977.1791161000729,,,,,,,,,,,,,,,,,,,,,,,,,,,,,,,,,,,,,,,,,,,,,,1977.163320700056,1977.1791161000729,1977.1791161000729,1977.662238900084,1977.6788647000212,1980.1622680000728,1980.1624884000048,None,1,,,,,,,,,,,,,,,,,,,,,,,,nback68,001,2024-01-23_09h23.21.458,untitled,2023.2.3,59.92886446829918,2024-01-23 09h42.43.416623 -0500,
3,"[0, 0.2]",None,,,,,0,24,24,24,,,,,1980.1787818000885,,,,,,,,,,,,,,,,,,,,,,,,,,,,,,,,,,,,,,,,,,,,,,1980.1633179000346,1980.1787818000885,1980.1787818000885,1980.6623915000819,1980.678924900014,1983.1621771000791,1983.1623787999852,None,1,,,,,,,,,,,,,,,,,,,,,,,,nback68,001,2024-01-23_09h23.21.458,untitled,2023.2.3,59.92886446829918,2024-01-23 09h42.43.416623 -0500,
6,"[-0.3, 0]",None,,,,,0,25,25,25,,,,,1983.1788165000034,,,,,,,,,,,,,,,,,,,,,,,,,,,,,,,,,,,,,,,,,,,,,,1983.1631932000164,1983.1788165000034,1983.1788165000034,1983.6620153000113,1983.6787603000412,1986.1620131999953,1986.1622199000558,None,1,,,,,,,,,,,,,,,,,,,,,,,,nback68,001,2024-01-23_09h23.21.458,untitled,2023.2.3,59.92886446829918,2024-01-23 09h42.43.416623 -0500,
1,"[-0.64, 0.4]",None,,,,,0,26,26,26,,,,,1986.1792403000873,,,,,,,,,,,,,,,,,,,,,,,,,,,,,,,,,,,,,,,,,,,,,,1986.162993200007,1986.1792403000873,1986.1792403000873,1986.6622052000603,1986.67871560005,1989.1621268000454,1989.1623044000007,None,1,,,,,,,,,,,,,,,,,,,,,,,,nback68,001,2024-01-23_09h23.21.458,untitled,2023.2.3,59.92886446829918,2024-01-23 09h42.43.416623 -0500,
1,"[-0.64, 0.4]",space,,,,,0,27,27,27,,,,,1989.178717700066,,,,,,,,,,,,,,,,,,,,,,,,,,,,,,,,,,,,,,,,,,,,,,1989.163020899985,1989.178717700066,1989.178717700066,1989.6620671000564,1989.6787561000092,1992.1621545000235,1992.1623830000171,space,1,0.6150712000671774,None,,,,,,,,,,,,,,,,,,,,,,nback68,001,2024-01-23_09h23.21.458,untitled,2023.2.3,59.92886446829918,2024-01-23 09h42.43.416623 -0500,
1,"[-0.64, 0.4]",space,,,,,0,28,28,28,,,,,1992.178813299979,,,,,,,,,,,,,,,,,,,,,,,,,,,,,,,,,,,,,,,,,,,,,,1992.1632097000256,1992.178813299979,1992.178813299979,1992.6619716000278,1992.6786710000597,1995.1619285000488,1995.1621102000354,space,1,1.2382513999473304,None,,,,,,,,,,,,,,,,,,,,,,nback68,001,2024-01-23_09h23.21.458,untitled,2023.2.3,59.92886446829918,2024-01-23 09h42.43.416623 -0500,
3,"[0, 0.2]",None,,,,,0,29,29,29,,,,,1995.1784286000766,,,,,,,,,,,,,,,,,,,,,,,,,,,,,,,,,,,,,,,,,,,,,,1995.1628744000336,1995.1784286000766,1995.1784286000766,1995.6622046000557,1995.6787334000692,1998.162017500028,1998.162231000024,None,1,,,,,,,,,,,,,,,,,,,,,,,,nback68,001,2024-01-23_09h23.21.458,untitled,2023.2.3,59.92886446829918,2024-01-23 09h42.43.416623 -0500,
12,"[0.64, -0.4]",None,,,,,0,30,30,30,,,,,1998.17859460006,,,,,,,,,,,,,,,,,,,,,,,,,,,,,,,,,,,,,,,,,,,,,,1998.1630406000186,1998.17859460006,1998.17859460006,1998.662392300088,1998.67833600007,2001.1618851000676,2001.1620887999889,None,1,,,,,,,,,,,,,,,,,,,,,,,,nback68,001,2024-01-23_09h23.21.458,untitled,2023.2.3,59.92886446829918,2024-01-23 09h42.43.416623 -0500,
12,"[0.64, -0.4]",space,,,,,0,31,31,31,,,,,2001.1784285000758,,,,,,,,,,,,,,,,,,,,,,,,,,,,,,,,,,,,,,,,,,,,,,2001.1628752000397,2001.1784285000758,2001.1784285000758,2001.661867100047,2001.6784738000715,2004.161736399983,2004.1619073000038,space,1,0.6660099000437185,None,,,,,,,,,,,,,,,,,,,,,,nback68,001,2024-01-23_09h23.21.458,untitled,2023.2.3,59.92886446829918,2024-01-23 09h42.43.416623 -0500,
2,"[0.64, 0.4]",None,,,,,0,32,32,32,,,,,2004.1785226999782,,,,,,,,,,,,,,,,,,,,,,,,,,,,,,,,,,,,,,,,,,,,,,2004.1627001999877,2004.1785226999782,2004.1785226999782,2004.6617235000012,2004.6784794999985,2007.1616895000916,2007.1618503000354,None,1,,,,,,,,,,,,,,,,,,,,,,,,nback68,001,2024-01-23_09h23.21.458,untitled,2023.2.3,59.92886446829918,2024-01-23 09h42.43.416623 -0500,
1,"[-0.64, 0.4]",None,,,,,0,33,33,33,,,,,2007.1782893000636,,,,,,,,,,,,,,,,,,,,,,,,,,,,,,,,,,,,,,,,,,,,,,2007.1625655000098,2007.1782893000636,2007.1782893000636,2007.6617775000632,2007.6785139000276,2010.1615783000598,2010.1617148000514,None,1,,,,,,,,,,,,,,,,,,,,,,,,nback68,001,2024-01-23_09h23.21.458,untitled,2023.2.3,59.92886446829918,2024-01-23 09h42.43.416623 -0500,
7,"[0.3, 0]",None,,,,,0,34,34,34,,,,,2010.178583699977,,,,,,,,,,,,,,,,,,,,,,,,,,,,,,,,,,,,,,,,,,,,,,2010.1622783000348,2010.178583699977,2010.178583699977,2010.661987300031,2010.6784169999883,2013.1617680999916,2013.161976100062,None,1,,,,,,,,,,,,,,,,,,,,,,,,nback68,001,2024-01-23_09h23.21.458,untitled,2023.2.3,59.92886446829918,2024-01-23 09h42.43.416623 -0500,
7,"[0.3, 0]",space,,,,,0,35,35,35,,,,,2013.1783521000762,,,,,,,,,,,,,,,,,,,,,,,,,,,,,,,,,,,,,,,,,,,,,,2013.1628106000135,2013.1783521000762,2013.1783521000762,2013.6617433000356,2013.678327200003,2016.161667700042,2016.1618868000805,space,1,0.4119415999157354,None,,,,,,,,,,,,,,,,,,,,,,nback68,001,2024-01-23_09h23.21.458,untitled,2023.2.3,59.92886446829918,2024-01-23 09h42.43.416623 -0500,
11,"[-0.64, -0.4]",None,,,,,0,36,36,36,,,,,2016.1783141000196,,,,,,,,,,,,,,,,,,,,,,,,,,,,,,,,,,,,,,,,,,,,,,2016.1633185000392,2016.1783141000196,2016.1783141000196,2016.661506100092,2016.678256000043,2019.1615221999818,2019.1617109000217,None,1,,,,,,,,,,,,,,,,,,,,,,,,nback68,001,2024-01-23_09h23.21.458,untitled,2023.2.3,59.92886446829918,2024-01-23 09h42.43.416623 -0500,
2,"[0.64, 0.4]",None,,,,,0,37,37,37,,,,,2019.1781327000353,,,,,,,,,,,,,,,,,,,,,,,,,,,,,,,,,,,,,,,,,,,,,,2019.1624548999825,2019.1781327000353,2019.1781327000353,2019.6616600999841,2019.6782304000808,2022.1615228999872,2022.1616906999843,None,1,,,,,,,,,,,,,,,,,,,,,,,,nback68,001,2024-01-23_09h23.21.458,untitled,2023.2.3,59.92886446829918,2024-01-23 09h42.43.416623 -0500,
6,"[-0.3, 0]",None,,,,,0,38,38,38,,,,,2022.1781802000478,,,,,,,,,,,,,,,,,,,,,,,,,,,,,,,,,,,,,,,,,,,,,,2022.1623299000785,2022.1781802000478,2022.1781802000478,2022.6615896000294,2022.6782703000354,2025.1615073999856,2025.1616901999805,None,1,,,,,,,,,,,,,,,,,,,,,,,,nback68,001,2024-01-23_09h23.21.458,untitled,2023.2.3,59.92886446829918,2024-01-23 09h42.43.416623 -0500,
10,"[0, -0.2]",None,,,,,0,39,39,39,,,,,2025.1782531000208,,,,,,,,,,,,,,,,,,,,,,,,,,,,,,,,,,,,,,,,,,,,,,2025.162369800033,2025.1782531000208,2025.1782531000208,2025.6614149999805,2025.678068100009,2028.1612974000163,2028.1614763999823,None,1,,,,,,,,,,,,,,,,,,,,,,,,nback68,001,2024-01-23_09h23.21.458,untitled,2023.2.3,59.92886446829918,2024-01-23 09h42.43.416623 -0500,
,,,,,,,,,,,,,,,,,,,,,,,,,,,,,,,,,,,,,,,,,,,,,,,,,,,,,,,,,,,,,,,,,,,,,,,,2028.1619550000178,2028.1781699000858,2028.1781699000858,2041.4458273000782,space,13.26355859998148,None,,,,,,,,,,,,,,,nback68,001,2024-01-23_09h23.21.458,untitled,2023.2.3,59.92886446829918,2024-01-23 09h42.43.416623 -0500,
,"[0.2, 0.1]",None,,,,,,,,,0,0,0,0,2042.4623102000915,,,,,,,,,,,,,,,,,,,,,,,,2041.4458710000617,2041.4612153000198,2042.4623102000915,2042.4453633000376,,,,,,,,,,,,,,,,,,,,,,,,,,,,,,,,,,,,,2042.4603075999767,2042.4623102000915,2042.4623102000915,2042.961145700072,2042.9778853000607,2045.460924700019,2045.4611183999805,None,1,,,,,,nback68,001,2024-01-23_09h23.21.458,untitled,2023.2.3,59.92886446829918,2024-01-23 09h42.43.416623 -0500,
,"[0.64, 0.4]",None,,,,,,,,,0,1,1,1,2045.4777927000541,,,,,,,,,,,,,,,,,,,,,,,,,,,,,,,,,,,,,,,,,,,,,,,,,,,,,,,,,,,,,,,,2045.4620187000837,2045.4777927000541,2045.4777927000541,2045.9611318000825,2045.9778244000627,2048.4608256000793,2048.4609781000763,None,1,,,,,,nback68,001,2024-01-23_09h23.21.458,untitled,2023.2.3,59.92886446829918,2024-01-23 09h42.43.416623 -0500,
,"[-0.3, 0]",None,,,,,,,,,0,2,2,2,2048.477605300024,,,,,,,,,,,,,,,,,,,,,,,,,,,,,,,,,,,,,,,,,,,,,,,,,,,,,,,,,,,,,,,,2048.4615765000926,2048.477605300024,2048.477605300024,2048.9610460000113,2048.977593800053,2051.461069900077,2051.4612843000796,None,1,,,,,,nback68,001,2024-01-23_09h23.21.458,untitled,2023.2.3,59.92886446829918,2024-01-23 09h42.43.416623 -0500,
,"[0.2, -0.1]",None,,,,,,,,,0,3,3,3,2051.477581900079,,,,,,,,,,,,,,,,,,,,,,,,,,,,,,,,,,,,,,,,,,,,,,,,,,,,,,,,,,,,,,,,2051.46210470004,2051.477581900079,2051.477581900079,2051.961071000085,2051.977561000036,2054.46086500003,2054.461035000044,None,1,,,,,,nback68,001,2024-01-23_09h23.21.458,untitled,2023.2.3,59.92886446829918,2024-01-23 09h42.43.416623 -0500,
,"[0, 0.2]",None,,,,,,,,,0,4,4,4,2054.4774605000857,,,,,,,,,,,,,,,,,,,,,,,,,,,,,,,,,,,,,,,,,,,,,,,,,,,,,,,,,,,,,,,,2054.461690200027,2054.4774605000857,2054.4774605000857,2054.960839400068,2054.97748900007,2057.460727000027,2057.46089820005,None,1,,,,,,nback68,001,2024-01-23_09h23.21.458,untitled,2023.2.3,59.92886446829918,2024-01-23 09h42.43.416623 -0500,
,"[0.2, -0.1]",space,,,,,,,,,0,5,5,5,2057.4774491999997,,,,,,,,,,,,,,,,,,,,,,,,,,,,,,,,,,,,,,,,,,,,,,,,,,,,,,,,,,,,,,,,2057.4615596000804,2057.4774491999997,2057.4774491999997,2057.9608819000423,2057.977390600019,2060.460816400009,2060.4610211000545,space,1,0.515748200006783,None,,,,nback68,001,2024-01-23_09h23.21.458,untitled,2023.2.3,59.92886446829918,2024-01-23 09h42.43.416623 -0500,
,"[0, -0.2]",None,,,,,,,,,0,6,6,6,2060.477525299997,,,,,,,,,,,,,,,,,,,,,,,,,,,,,,,,,,,,,,,,,,,,,,,,,,,,,,,,,,,,,,,,2060.4622826999985,2060.477525299997,2060.477525299997,2060.960895700031,2060.977610900067,2063.4608742999844,2063.4610880999826,None,1,,,,,,nback68,001,2024-01-23_09h23.21.458,untitled,2023.2.3,59.92886446829918,2024-01-23 09h42.43.416623 -0500,
,"[0.64, -0.4]",None,,,,,,,,,0,7,7,7,2063.477278599981,,,,,,,,,,,,,,,,,,,,,,,,,,,,,,,,,,,,,,,,,,,,,,,,,,,,,,,,,,,,,,,,2063.4619495000225,2063.477278599981,2063.477278599981,2063.960759800044,2063.9773964000633,2066.4607882000273,2066.4609913000604,None,1,,,,,,nback68,001,2024-01-23_09h23.21.458,untitled,2023.2.3,59.92886446829918,2024-01-23 09h42.43.416623 -0500,
,"[0.3, 0]",None,,,,,,,,,0,8,8,8,2066.477266300004,,,,,,,,,,,,,,,,,,,,,,,,,,,,,,,,,,,,,,,,,,,,,,,,,,,,,,,,,,,,,,,,2066.461734500015,2066.477266300004,2066.477266300004,2066.9605934000574,2066.9775365000824,2069.460719100083,2069.4609530000016,None,1,,,,,,nback68,001,2024-01-23_09h23.21.458,untitled,2023.2.3,59.92886446829918,2024-01-23 09h42.43.416623 -0500,
,"[0.64, -0.4]",space,,,,,,,,,0,9,9,9,2069.477386099985,,,,,,,,,,,,,,,,,,,,,,,,,,,,,,,,,,,,,,,,,,,,,,,,,,,,,,,,,,,,,,,,2069.4618582000257,2069.477386099985,2069.477386099985,2069.9608519000467,2069.9773981000762,2072.4606424000813,2072.460841100081,space,1,0.8603885000338778,None,,,,nback68,001,2024-01-23_09h23.21.458,untitled,2023.2.3,59.92886446829918,2024-01-23 09h42.43.416623 -0500,
,"[-0.64, 0.4]",None,,,,,,,,,0,10,10,10,2072.47722650005,,,,,,,,,,,,,,,,,,,,,,,,,,,,,,,,,,,,,,,,,,,,,,,,,,,,,,,,,,,,,,,,2072.4618608000455,2072.47722650005,2072.47722650005,2072.960598899983,2072.9771331000375,2075.460490500089,2075.460672400077,None,1,,,,,,nback68,001,2024-01-23_09h23.21.458,untitled,2023.2.3,59.92886446829918,2024-01-23 09h42.43.416623 -0500,
,"[0.2, 0.1]",None,,,,,,,,,0,11,11,11,2075.4772323999787,,,,,,,,,,,,,,,,,,,,,,,,,,,,,,,,,,,,,,,,,,,,,,,,,,,,,,,,,,,,,,,,2075.461389800068,2075.4772323999787,2075.4772323999787,2075.9605623000534,2075.977345000021,2078.4605704999994,2078.4607676999876,None,1,,,,,,nback68,001,2024-01-23_09h23.21.458,untitled,2023.2.3,59.92886446829918,2024-01-23 09h42.43.416623 -0500,
,"[0.3, 0]",None,,,,,,,,,0,12,12,12,2078.4770271000452,,,,,,,,,,,,,,,,,,,,,,,,,,,,,,,,,,,,,,,,,,,,,,,,,,,,,,,,,,,,,,,,2078.4615294000832,2078.4770271000452,2078.4770271000452,2078.960479600006,2078.9769554000814,2081.4603749000235,2081.4605551999994,None,1,,,,,,nback68,001,2024-01-23_09h23.21.458,untitled,2023.2.3,59.92886446829918,2024-01-23 09h42.43.416623 -0500,
,"[0.2, 0.1]",space,,,,,,,,,0,13,13,13,2081.4770194999874,,,,,,,,,,,,,,,,,,,,,,,,,,,,,,,,,,,,,,,,,,,,,,,,,,,,,,,,,,,,,,,,2081.4612546000862,2081.4770194999874,2081.4770194999874,2081.9604441000847,2081.977103900048,2084.4603053000756,2084.460488700075,space,1,0.7546629999997094,None,,,,nback68,001,2024-01-23_09h23.21.458,untitled,2023.2.3,59.92886446829918,2024-01-23 09h42.43.416623 -0500,
,"[-0.3, 0]",None,,,,,,,,,0,14,14,14,2084.476994400029,,,,,,,,,,,,,,,,,,,,,,,,,,,,,,,,,,,,,,,,,,,,,,,,,,,,,,,,,,,,,,,,2084.461284900084,2084.476994400029,2084.476994400029,2084.960410700063,2084.9770261000376,2087.4604296000907,2087.4606481000083,None,1,,,,,,nback68,001,2024-01-23_09h23.21.458,untitled,2023.2.3,59.92886446829918,2024-01-23 09h42.43.416623 -0500,
,"[0, 0.2]",None,,,,,,,,,0,15,15,15,2087.4769557000836,,,,,,,,,,,,,,,,,,,,,,,,,,,,,,,,,,,,,,,,,,,,,,,,,,,,,,,,,,,,,,,,2087.4614924000343,2087.4769557000836,2087.4769557000836,2087.9604699000483,2087.9770631000865,2090.460303400061,2090.460474300082,None,1,,,,,,nback68,001,2024-01-23_09h23.21.458,untitled,2023.2.3,59.92886446829918,2024-01-23 09h42.43.416623 -0500,
,"[-0.3, 0]",space,,,,,,,,,0,16,16,16,2090.4770059,,,,,,,,,,,,,,,,,,,,,,,,,,,,,,,,,,,,,,,,,,,,,,,,,,,,,,,,,,,,,,,,2090.461228500004,2090.4770059,2090.4770059,2090.9601674000733,2090.9768114000326,2093.4602095000446,2093.460385399987,space,1,0.4108939999714494,None,,,,nback68,001,2024-01-23_09h23.21.458,untitled,2023.2.3,59.92886446829918,2024-01-23 09h42.43.416623 -0500,
,"[-0.64, -0.4]",None,,,,,,,,,0,17,17,17,2093.476949200034,,,,,,,,,,,,,,,,,,,,,,,,,,,,,,,,,,,,,,,,,,,,,,,,,,,,,,,,,,,,,,,,2093.4611779000843,2093.476949200034,2093.476949200034,2093.9601465000305,2093.976884100004,2096.4600950999884,2096.460274900077,None,1,,,,,,nback68,001,2024-01-23_09h23.21.458,untitled,2023.2.3,59.92886446829918,2024-01-23 09h42.43.416623 -0500,
,"[-0.2, -0.1]",None,,,,,,,,,0,18,18,18,2096.4768023000797,,,,,,,,,,,,,,,,,,,,,,,,,,,,,,,,,,,,,,,,,,,,,,,,,,,,,,,,,,,,,,,,2096.460985600017,2096.4768023000797,2096.4768023000797,2096.9601598000154,2096.9769342000363,2099.4601195000578,2099.4603242999874,None,1,,,,,,nback68,001,2024-01-23_09h23.21.458,untitled,2023.2.3,59.92886446829918,2024-01-23 09h42.43.416623 -0500,
,"[0.2, -0.1]",None,,,,,,,,,0,19,19,19,2099.4768272000365,,,,,,,,,,,,,,,,,,,,,,,,,,,,,,,,,,,,,,,,,,,,,,,,,,,,,,,,,,,,,,,,2099.4610624000197,2099.4768272000365,2099.4768272000365,2099.9599443000043,2099.9767803000286,2102.4599740999984,2102.4601806000574,None,1,,,,,,nback68,001,2024-01-23_09h23.21.458,untitled,2023.2.3,59.92886446829918,2024-01-23 09h42.43.416623 -0500,
,"[0.2, -0.1]",None,,,,,,,,,0,20,20,20,2102.4767590999836,,,,,,,,,,,,,,,,,,,,,,,,,,,,,,,,,,,,,,,,,,,,,,,,,,,,,,,,,,,,,,,,2102.4609163000714,2102.4767590999836,2102.4767590999836,2102.96000750002,2102.9766481000697,2105.4599836000707,2105.4601444000145,None,1,,,,,,nback68,001,2024-01-23_09h23.21.458,untitled,2023.2.3,59.92886446829918,2024-01-23 09h42.43.416623 -0500,
,"[-0.64, 0.4]",None,,,,,,,,,0,21,21,21,2105.47669140005,,,,,,,,,,,,,,,,,,,,,,,,,,,,,,,,,,,,,,,,,,,,,,,,,,,,,,,,,,,,,,,,2105.4607791000744,2105.47669140005,2105.47669140005,2105.959998400067,2105.9767100000754,2108.459998000064,2108.4602342,None,1,,,,,,nback68,001,2024-01-23_09h23.21.458,untitled,2023.2.3,59.92886446829918,2024-01-23 09h42.43.416623 -0500,
,"[0, 0.2]",None,,,,,,,,,0,22,22,22,2108.4764582000207,,,,,,,,,,,,,,,,,,,,,,,,,,,,,,,,,,,,,,,,,,,,,,,,,,,,,,,,,,,,,,,,2108.4610283999937,2108.4764582000207,2108.4764582000207,2108.9599253000924,2108.976604100084,2111.459824300022,2111.459960200009,None,1,,,,,,nback68,001,2024-01-23_09h23.21.458,untitled,2023.2.3,59.92886446829918,2024-01-23 09h42.43.416623 -0500,
,"[0.64, -0.4]",None,,,,,,,,,0,23,23,23,2111.476462600054,,,,,,,,,,,,,,,,,,,,,,,,,,,,,,,,,,,,,,,,,,,,,,,,,,,,,,,,,,,,,,,,2111.460470800055,2111.476462600054,2111.476462600054,2111.9598884000443,2111.976489200024,2114.4601776000345,2114.4603894000174,None,1,,,,,,nback68,001,2024-01-23_09h23.21.458,untitled,2023.2.3,59.92886446829918,2024-01-23 09h42.43.416623 -0500,
,"[0, 0.2]",space,,,,,,,,,0,24,24,24,2114.476598700043,,,,,,,,,,,,,,,,,,,,,,,,,,,,,,,,,,,,,,,,,,,,,,,,,,,,,,,,,,,,,,,,2114.461339600035,2114.476598700043,2114.476598700043,2114.959929900011,2114.976494600065,2117.4596231000032,2117.4597367000533,space,1,0.9589484999887645,None,,,,nback68,001,2024-01-23_09h23.21.458,untitled,2023.2.3,59.92886446829918,2024-01-23 09h42.43.416623 -0500,
,"[-0.2, 0.1]",None,,,,,,,,,0,25,25,25,2117.476463600062,,,,,,,,,,,,,,,,,,,,,,,,,,,,,,,,,,,,,,,,,,,,,,,,,,,,,,,,,,,,,,,,2117.4601959000574,2117.476463600062,2117.476463600062,2117.959754700074,2117.976533900015,2120.4598798999796,2120.460086700041,None,1,,,,,,nback68,001,2024-01-23_09h23.21.458,untitled,2023.2.3,59.92886446829918,2024-01-23 09h42.43.416623 -0500,
,"[0.3, 0]",None,,,,,,,,,0,26,26,26,2120.476414200035,,,,,,,,,,,,,,,,,,,,,,,,,,,,,,,,,,,,,,,,,,,,,,,,,,,,,,,,,,,,,,,,2120.4608951000264,2120.476414200035,2120.476414200035,2120.9596422000322,2120.9765924999956,2123.459755600081,2123.459962600027,None,1,,,,,,nback68,001,2024-01-23_09h23.21.458,untitled,2023.2.3,59.92886446829918,2024-01-23 09h42.43.416623 -0500,
,"[-0.2, 0.1]",space,,,,,,,,,0,27,27,27,2123.476364800008,,,,,,,,,,,,,,,,,,,,,,,,,,,,,,,,,,,,,,,,,,,,,,,,,,,,,,,,,,,,,,,,2123.4607416000217,2123.476364800008,2123.476364800008,2123.9596773000667,2123.976322100032,2126.459630700061,2126.459837500006,space,1,0.8156727000605315,None,,,,nback68,001,2024-01-23_09h23.21.458,untitled,2023.2.3,59.92886446829918,2024-01-23 09h42.43.416623 -0500,
,"[-0.2, 0.1]",None,,,,,,,,,0,28,28,28,2126.476075100014,,,,,,,,,,,,,,,,,,,,,,,,,,,,,,,,,,,,,,,,,,,,,,,,,,,,,,,,,,,,,,,,2126.4607902000425,2126.476075100014,2126.476075100014,2126.9595020000124,2126.976197300013,2129.4595924000023,2129.45979350002,None,1,,,,,,nback68,001,2024-01-23_09h23.21.458,untitled,2023.2.3,59.92886446829918,2024-01-23 09h42.43.416623 -0500,
,"[0.2, 0.1]",None,,,,,,,,,0,29,29,29,2129.4761263000546,,,,,,,,,,,,,,,,,,,,,,,,,,,,,,,,,,,,,,,,,,,,,,,,,,,,,,,,,,,,,,,,2129.460542500019,2129.4761263000546,2129.4761263000546,2129.95957070007,2129.976300899987,2132.4596762000583,2132.459905100055,None,1,,,,,,nback68,001,2024-01-23_09h23.21.458,untitled,2023.2.3,59.92886446829918,2024-01-23 09h42.43.416623 -0500,
,"[-0.64, -0.4]",None,,,,,,,,,0,30,30,30,2132.476313600084,,,,,,,,,,,,,,,,,,,,,,,,,,,,,,,,,,,,,,,,,,,,,,,,,,,,,,,,,,,,,,,,2132.4606291999808,2132.476313600084,2132.476313600084,2132.959471900016,2132.9760880999966,2135.4596554000163,2135.4598665999947,None,1,,,,,,nback68,001,2024-01-23_09h23.21.458,untitled,2023.2.3,59.92886446829918,2024-01-23 09h42.43.416623 -0500,
,"[0, -0.2]",None,,,,,,,,,0,31,31,31,2135.476057599997,,,,,,,,,,,,,,,,,,,,,,,,,,,,,,,,,,,,,,,,,,,,,,,,,,,,,,,,,,,,,,,,2135.460503600072,2135.476057599997,2135.476057599997,2135.9596501000924,2135.9763033000054,2138.4594402000075,2138.4596313000657,None,1,,,,,,nback68,001,2024-01-23_09h23.21.458,untitled,2023.2.3,59.92886446829918,2024-01-23 09h42.43.416623 -0500,
,"[-0.64, -0.4]",space,,,,,,,,,0,32,32,32,2138.4760033000493,,,,,,,,,,,,,,,,,,,,,,,,,,,,,,,,,,,,,,,,,,,,,,,,,,,,,,,,,,,,,,,,2138.460420600022,2138.4760033000493,2138.4760033000493,2138.959239699994,2138.9760578999994,2141.4594820999773,2141.4596943000797,space,1,0.4421055999118835,None,,,,nback68,001,2024-01-23_09h23.21.458,untitled,2023.2.3,59.92886446829918,2024-01-23 09h42.43.416623 -0500,
,"[0.64, 0.4]",None,,,,,,,,,0,33,33,33,2141.4762771000387,,,,,,,,,,,,,,,,,,,,,,,,,,,,,,,,,,,,,,,,,,,,,,,,,,,,,,,,,,,,,,,,2141.460697900038,2141.4762771000387,2141.4762771000387,2141.9594634000678,2141.9762628000462,2144.4592786000576,2144.459443800035,None,1,,,,,,nback68,001,2024-01-23_09h23.21.458,untitled,2023.2.3,59.92886446829918,2024-01-23 09h42.43.416623 -0500,
,"[-0.3, 0]",None,,,,,,,,,0,34,34,34,2144.475930200075,,,,,,,,,,,,,,,,,,,,,,,,,,,,,,,,,,,,,,,,,,,,,,,,,,,,,,,,,,,,,,,,2144.4600822000066,2144.475930200075,2144.475930200075,2144.9591444000835,2144.975895300042,2147.4591887000715,2147.4593574000755,None,1,,,,,,nback68,001,2024-01-23_09h23.21.458,untitled,2023.2.3,59.92886446829918,2024-01-23 09h42.43.416623 -0500,
,"[0.3, 0]",None,,,,,,,,,0,35,35,35,2147.4761132000713,,,,,,,,,,,,,,,,,,,,,,,,,,,,,,,,,,,,,,,,,,,,,,,,,,,,,,,,,,,,,,,,2147.459977200022,2147.4761132000713,2147.4761132000713,2147.959064500057,2147.976016600034,2150.459238899988,2150.4594200000865,None,1,,,,,,nback68,001,2024-01-23_09h23.21.458,untitled,2023.2.3,59.92886446829918,2024-01-23 09h42.43.416623 -0500,
,"[-0.3, 0]",space,,,,,,,,,0,36,36,36,2150.4758013000246,,,,,,,,,,,,,,,,,,,,,,,,,,,,,,,,,,,,,,,,,,,,,,,,,,,,,,,,,,,,,,,,2150.4601290000137,2150.4758013000246,2150.4758013000246,2150.9594014000613,2150.97604660003,2153.4592033000663,2153.4593924999936,space,1,0.6205845000222325,None,,,,nback68,001,2024-01-23_09h23.21.458,untitled,2023.2.3,59.92886446829918,2024-01-23 09h42.43.416623 -0500,
,"[0, -0.2]",None,,,,,,,,,0,37,37,37,2153.475909300032,,,,,,,,,,,,,,,,,,,,,,,,,,,,,,,,,,,,,,,,,,,,,,,,,,,,,,,,,,,,,,,,2153.4602559000487,2153.475909300032,2153.475909300032,2153.959185100044,2153.975675099995,2156.459156900062,2156.4593979000347,None,1,,,,,,nback68,001,2024-01-23_09h23.21.458,untitled,2023.2.3,59.92886446829918,2024-01-23 09h42.43.416623 -0500,
,"[0.3, 0]",None,,,,,,,,,0,38,38,38,2156.475838500075,,,,,,,,,,,,,,,,,,,,,,,,,,,,,,,,,,,,,,,,,,,,,,,,,,,,,,,,,,,,,,,,2156.460209300043,2156.475838500075,2156.475838500075,2156.9590712999925,2156.975867900066,2159.459133299999,2159.4593465999933,space,0,0.7309278999455273,None,,,,nback68,001,2024-01-23_09h23.21.458,untitled,2023.2.3,59.92886446829918,2024-01-23 09h42.43.416623 -0500,
,"[0.2, 0.1]",None,,,,,,,,,0,39,39,39,2159.4757797999773,,,,,,,,,,,,,,,,,,,,,,,,,,,,,,,,,,,,,,,,,,,,,,,,,,,,,,,,,,,,,,,,2159.460336600081,2159.4757797999773,2159.4757797999773,2159.9589686000254,2159.975759800058,2162.459144500084,2162.45933480002,None,1,,,,,,nback68,001,2024-01-23_09h23.21.458,untitled,2023.2.3,59.92886446829918,2024-01-23 09h42.43.416623 -0500,
,,,,,,,,,,,,,,,,,,,,,,,,,,,,,,,,,,,,,,,,,,,,,,,,,,,,,,,,,,,,,,,,,,,,,,,,,,,,,,,,,,,,,,,,,,2162.4598551000236,2162.47576880001,2165.4592395999935,,,,,,,,
