square,location,corrAns,trials_0.thisRepN,trials_0.thisTrialN,trials_0.thisN,trials_0.thisIndex,trials_1.thisRepN,trials_1.thisTrialN,trials_1.thisN,trials_1.thisIndex,trials_2.thisRepN,trials_2.thisTrialN,trials_2.thisN,trials_2.thisIndex,thisRow.t,notes,Instructions.started,instructions.started,key_resp.started,inst_sq11.started,Instructions.stopped,key_resp.keys,key_resp.rt,key_resp.duration,All.started,sq_1.started,sq_2.started,sq_3.started,sq_4.started,sq_5.started,sq_6.started,sq_7.started,sq_8.started,sq_9.started,sq_10.started,sq_11.started,sq_12.started,All.stopped,Fixation.started,fixation_3.started,fixation_3.stopped,Fixation.stopped,N_back_0_Trial.started,target_square_0.started,response_0.started,fixation_0.started,target_square_0.stopped,fixation_0.stopped,N_back_0_Trial.stopped,response_0.keys,response_0.corr,response_0.rt,response_0.duration,Instructions_1.started,instructions_1.started,key_resp_1.started,Instructions_1.stopped,key_resp_1.keys,key_resp_1.rt,key_resp_1.duration,N_back_1_Trial.started,target_square_1.started,response_1.started,target_square_1.stopped,fixation_1.started,fixation_1.stopped,response_1.stopped,N_back_1_Trial.stopped,response_1.keys,response_1.corr,response_1.rt,response_1.duration,Instructions_2.started,instructions_2.started,key_resp_2.started,Instructions_2.stopped,key_resp_2.keys,key_resp_2.rt,key_resp_2.duration,N_back_2_trials.started,target_square_2.started,response_2.started,fixation_2.started,target_square_2.stopped,fixation_2.stopped,response_2.stopped,N_back_2_trials.stopped,response_2.keys,response_2.corr,response_2.rt,response_2.duration,End.started,thank_you.started,thank_you.stopped,End.stopped,participant,session,date,expName,psychopyVersion,frameRate,expStart,Unnamed: 103
,,,,,,,,,,,,,,,,,0.0013686999445781,0.0037090999539941,0.0037090999539941,0.0037090999539941,3861.276153999963,space,3861.256254700013,None,,,,,,,,,,,,,,,,,,,,,,,,,,,,,,,,,,,,,,,,,,,,,,,,,,,,,,,,,,,,,,,,,,,,,,,,nback4,1.0,2023-12-07_16h19.18.069,untitled,2023.2.3,59.83362663259776,2023-12-07 16h19.36.138566 -0500,
6.0,"[-0.3, 0]",None,0.0,0.0,0.0,0.0,,,,,,,,,3863.298754599993,,,,,,,,,,3861.2761884999927,3861.291240200051,3861.291240200051,3861.291240200051,3861.291240200051,3861.291240200051,3861.291240200051,3861.291240200051,3861.291240200051,3861.291240200051,3861.291240200051,3861.291240200051,3861.291240200051,3862.275047400035,3862.275062300032,3862.291096900008,3863.298754599993,3863.275098999962,3863.2966524000512,3863.298754599993,3863.298754599993,3863.774544400047,3863.807831299957,3866.2744917999953,3866.2914240000537,None,1.0,,,,,,,,,,,,,,,,,,,,,,,,,,,,,,,,,,,,,,,,,,,,,nback4,1.0,2023-12-07_16h19.18.069,untitled,2023.2.3,59.83362663259776,2023-12-07 16h19.36.138566 -0500,
10.0,"[0, -0.2]",None,0.0,1.0,1.0,1.0,,,,,,,,,3866.307895999984,,,,,,,,,,,,,,,,,,,,,,,,,,,,3866.292458100012,3866.307895999984,3866.307895999984,3866.7743188999593,3866.8077692999514,3869.2743698999984,3869.291223300039,None,1.0,,,,,,,,,,,,,,,,,,,,,,,,,,,,,,,,,,,,,,,,,,,,,nback4,1.0,2023-12-07_16h19.18.069,untitled,2023.2.3,59.83362663259776,2023-12-07 16h19.36.138566 -0500,
11.0,"[-0.64, -0.4]",space,0.0,2.0,2.0,2.0,,,,,,,,,3869.3078066000016,,,,,,,,,,,,,,,,,,,,,,,,,,,,3869.29186290002,3869.3078066000016,3869.3078066000016,3869.7742369000334,3869.8078625999615,3872.274409599952,3872.291319699958,space,1.0,0.5292678999248892,None,,,,,,,,,,,,,,,,,,,,,,,,,,,,,,,,,,,,,,,,,,,nback4,1.0,2023-12-07_16h19.18.069,untitled,2023.2.3,59.83362663259776,2023-12-07 16h19.36.138566 -0500,
12.0,"[0.64, -0.4]",None,0.0,3.0,3.0,3.0,,,,,,,,,3872.307757299976,,,,,,,,,,,,,,,,,,,,,,,,,,,,3872.292455399991,3872.307757299976,3872.307757299976,3872.774462500005,3872.807731000008,3875.2743058999768,3875.291151199956,None,1.0,,,,,,,,,,,,,,,,,,,,,,,,,,,,,,,,,,,,,,,,,,,,,nback4,1.0,2023-12-07_16h19.18.069,untitled,2023.2.3,59.83362663259776,2023-12-07 16h19.36.138566 -0500,
1.0,"[-0.64, 0.4]",None,0.0,4.0,4.0,4.0,,,,,,,,,3875.307863799972,,,,,,,,,,,,,,,,,,,,,,,,,,,,3875.291884099948,3875.307863799972,3875.307863799972,3875.774124399992,3875.807677299949,3878.2743212999776,3878.291134299943,None,1.0,,,,,,,,,,,,,,,,,,,,,,,,,,,,,,,,,,,,,,,,,,,,,nback4,1.0,2023-12-07_16h19.18.069,untitled,2023.2.3,59.83362663259776,2023-12-07 16h19.36.138566 -0500,
1.0,"[-0.64, 0.4]",None,0.0,5.0,5.0,5.0,,,,,,,,,3878.3076809999766,,,,,,,,,,,,,,,,,,,,,,,,,,,,3878.2918599999975,3878.3076809999766,3878.3076809999766,3878.774373800028,3878.807727499981,3881.2742416999536,3881.2911426000064,None,1.0,,,,,,,,,,,,,,,,,,,,,,,,,,,,,,,,,,,,,,,,,,,,,nback4,1.0,2023-12-07_16h19.18.069,untitled,2023.2.3,59.83362663259776,2023-12-07 16h19.36.138566 -0500,
4.0,"[-0.2, 0.1]",None,0.0,6.0,6.0,6.0,,,,,,,,,3881.30765079998,,,,,,,,,,,,,,,,,,,,,,,,,,,,3881.291891600005,3881.30765079998,3881.30765079998,3881.7741768000415,3881.80758360005,3884.274382899981,3884.2912179999994,None,1.0,,,,,,,,,,,,,,,,,,,,,,,,,,,,,,,,,,,,,,,,,,,,,nback4,1.0,2023-12-07_16h19.18.069,untitled,2023.2.3,59.83362663259776,2023-12-07 16h19.36.138566 -0500,
5.0,"[0.2, 0.1]",None,0.0,7.0,7.0,7.0,,,,,,,,,3884.3075006,,,,,,,,,,,,,,,,,,,,,,,,,,,,3884.2920559999766,3884.3075006,3884.3075006,3884.77417530003,3884.8075761999935,3887.274249900016,3887.291044399957,None,1.0,,,,,,,,,,,,,,,,,,,,,,,,,,,,,,,,,,,,,,,,,,,,,nback4,1.0,2023-12-07_16h19.18.069,untitled,2023.2.3,59.83362663259776,2023-12-07 16h19.36.138566 -0500,
11.0,"[-0.64, -0.4]",space,0.0,8.0,8.0,8.0,,,,,,,,,3887.3075450999895,,,,,,,,,,,,,,,,,,,,,,,,,,,,3887.291825199965,3887.3075450999895,3887.3075450999895,3887.790869600023,3887.8075220000464,3890.2907527999487,3890.29090719996,space,1.0,0.3889405999798327,None,,,,,,,,,,,,,,,,,,,,,,,,,,,,,,,,,,,,,,,,,,,nback4,1.0,2023-12-07_16h19.18.069,untitled,2023.2.3,59.83362663259776,2023-12-07 16h19.36.138566 -0500,
9.0,"[0.2, -0.1]",None,0.0,9.0,9.0,9.0,,,,,,,,,3890.307428300032,,,,,,,,,,,,,,,,,,,,,,,,,,,,3890.291639299947,3890.307428300032,3890.307428300032,3890.7907314000186,3890.807366100024,3893.290781000047,3893.2909649000494,None,1.0,,,,,,,,,,,,,,,,,,,,,,,,,,,,,,,,,,,,,,,,,,,,,nback4,1.0,2023-12-07_16h19.18.069,untitled,2023.2.3,59.83362663259776,2023-12-07 16h19.36.138566 -0500,
8.0,"[-0.2, -0.1]",None,0.0,10.0,10.0,10.0,,,,,,,,,3893.3074867000105,,,,,,,,,,,,,,,,,,,,,,,,,,,,3893.2916802000254,3893.3074867000105,3893.3074867000105,3893.773930400028,3893.80740099994,3896.274019900011,3896.290803299984,None,1.0,,,,,,,,,,,,,,,,,,,,,,,,,,,,,,,,,,,,,,,,,,,,,nback4,1.0,2023-12-07_16h19.18.069,untitled,2023.2.3,59.83362663259776,2023-12-07 16h19.36.138566 -0500,
9.0,"[0.2, -0.1]",None,0.0,11.0,11.0,11.0,,,,,,,,,3896.307275100029,,,,,,,,,,,,,,,,,,,,,,,,,,,,3896.291504999972,3896.307275100029,3896.307275100029,3896.773934499943,3896.8074535999913,3899.273948700051,3899.290821200004,None,1.0,,,,,,,,,,,,,,,,,,,,,,,,,,,,,,,,,,,,,,,,,,,,,nback4,1.0,2023-12-07_16h19.18.069,untitled,2023.2.3,59.83362663259776,2023-12-07 16h19.36.138566 -0500,
6.0,"[-0.3, 0]",None,0.0,12.0,12.0,12.0,,,,,,,,,3899.3072835999774,,,,,,,,,,,,,,,,,,,,,,,,,,,,3899.291565599968,3899.3072835999774,3899.3072835999774,3899.790517600021,3899.807237299974,3902.2905914,3902.29076949996,None,1.0,,,,,,,,,,,,,,,,,,,,,,,,,,,,,,,,,,,,,,,,,,,,,nback4,1.0,2023-12-07_16h19.18.069,untitled,2023.2.3,59.83362663259776,2023-12-07 16h19.36.138566 -0500,
9.0,"[0.2, -0.1]",None,0.0,13.0,13.0,13.0,,,,,,,,,3902.3074181999546,,,,,,,,,,,,,,,,,,,,,,,,,,,,3902.29145010002,3902.3074181999546,3902.3074181999546,3902.774071799941,3902.807306300034,3905.273984199972,3905.290801699972,None,1.0,,,,,,,,,,,,,,,,,,,,,,,,,,,,,,,,,,,,,,,,,,,,,nback4,1.0,2023-12-07_16h19.18.069,untitled,2023.2.3,59.83362663259776,2023-12-07 16h19.36.138566 -0500,
7.0,"[0.3, 0]",None,0.0,14.0,14.0,14.0,,,,,,,,,3905.307183700032,,,,,,,,,,,,,,,,,,,,,,,,,,,,3905.291672099964,3905.307183700032,3905.307183700032,3905.790633599973,3905.807131999987,3908.290575899999,3908.290745300008,None,1.0,,,,,,,,,,,,,,,,,,,,,,,,,,,,,,,,,,,,,,,,,,,,,nback4,1.0,2023-12-07_16h19.18.069,untitled,2023.2.3,59.83362663259776,2023-12-07 16h19.36.138566 -0500,
2.0,"[0.64, 0.4]",None,0.0,15.0,15.0,15.0,,,,,,,,,3908.3069941999856,,,,,,,,,,,,,,,,,,,,,,,,,,,,3908.291420800029,3908.3069941999856,3908.3069941999856,3908.79051359999,3908.8071628999896,3911.290525499964,3911.2906927999575,None,1.0,,,,,,,,,,,,,,,,,,,,,,,,,,,,,,,,,,,,,,,,,,,,,nback4,1.0,2023-12-07_16h19.18.069,untitled,2023.2.3,59.83362663259776,2023-12-07 16h19.36.138566 -0500,
2.0,"[0.64, 0.4]",None,0.0,16.0,16.0,16.0,,,,,,,,,3911.3071654000087,,,,,,,,,,,,,,,,,,,,,,,,,,,,3911.2913440000266,3911.3071654000087,3911.3071654000087,3911.7903860999504,3911.807151100016,3914.290361799998,3914.290535600041,None,1.0,,,,,,,,,,,,,,,,,,,,,,,,,,,,,,,,,,,,,,,,,,,,,nback4,1.0,2023-12-07_16h19.18.069,untitled,2023.2.3,59.83362663259776,2023-12-07 16h19.36.138566 -0500,
11.0,"[-0.64, -0.4]",space,0.0,17.0,17.0,17.0,,,,,,,,,3914.3072716000015,,,,,,,,,,,,,,,,,,,,,,,,,,,,3914.291214799974,3914.3072716000015,3914.3072716000015,3914.790406199987,3914.806999800028,3917.290254099993,3917.290422799997,space,1.0,0.426214599981904,None,,,,,,,,,,,,,,,,,,,,,,,,,,,,,,,,,,,,,,,,,,,nback4,1.0,2023-12-07_16h19.18.069,untitled,2023.2.3,59.83362663259776,2023-12-07 16h19.36.138566 -0500,
11.0,"[-0.64, -0.4]",space,0.0,18.0,18.0,18.0,,,,,,,,,3917.307001900044,,,,,,,,,,,,,,,,,,,,,,,,,,,,3917.2911583000096,3917.307001900044,3917.307001900044,3917.79018380004,3917.8068412999855,3920.2901056000255,3920.290230200044,space,1.0,0.4254145000595599,None,,,,,,,,,,,,,,,,,,,,,,,,,,,,,,,,,,,,,,,,,,,nback4,1.0,2023-12-07_16h19.18.069,untitled,2023.2.3,59.83362663259776,2023-12-07 16h19.36.138566 -0500,
7.0,"[0.3, 0]",None,0.0,19.0,19.0,19.0,,,,,,,,,3920.306890700013,,,,,,,,,,,,,,,,,,,,,,,,,,,,3920.290708699962,3920.306890700013,3920.306890700013,3920.79032359994,3920.80697549996,3923.2899927999824,3923.290105200024,None,1.0,,,,,,,,,,,,,,,,,,,,,,,,,,,,,,,,,,,,,,,,,,,,,nback4,1.0,2023-12-07_16h19.18.069,untitled,2023.2.3,59.83362663259776,2023-12-07 16h19.36.138566 -0500,
3.0,"[0, 0.2]",None,0.0,20.0,20.0,20.0,,,,,,,,,3923.306636500056,,,,,,,,,,,,,,,,,,,,,,,,,,,,3923.2905278999824,3923.306636500056,3923.306636500056,3923.790144199971,3923.806667599944,3926.290190299973,3926.29036460002,None,1.0,,,,,,,,,,,,,,,,,,,,,,,,,,,,,,,,,,,,,,,,,,,,,nback4,1.0,2023-12-07_16h19.18.069,untitled,2023.2.3,59.83362663259776,2023-12-07 16h19.36.138566 -0500,
10.0,"[0, -0.2]",None,0.0,21.0,21.0,21.0,,,,,,,,,3926.307011099998,,,,,,,,,,,,,,,,,,,,,,,,,,,,3926.291053100024,3926.307011099998,3926.307011099998,3926.790215100045,3926.806905800011,3929.290104300017,3929.290266699973,None,1.0,,,,,,,,,,,,,,,,,,,,,,,,,,,,,,,,,,,,,,,,,,,,,nback4,1.0,2023-12-07_16h19.18.069,untitled,2023.2.3,59.83362663259776,2023-12-07 16h19.36.138566 -0500,
1.0,"[-0.64, 0.4]",None,0.0,22.0,22.0,22.0,,,,,,,,,3929.3067821,,,,,,,,,,,,,,,,,,,,,,,,,,,,3929.290910899989,3929.3067821,3929.3067821,3929.78994139994,3929.806650900049,3932.290028900025,3932.290167500032,None,1.0,,,,,,,,,,,,,,,,,,,,,,,,,,,,,,,,,,,,,,,,,,,,,nback4,1.0,2023-12-07_16h19.18.069,untitled,2023.2.3,59.83362663259776,2023-12-07 16h19.36.138566 -0500,
2.0,"[0.64, 0.4]",None,0.0,23.0,23.0,23.0,,,,,,,,,3932.306802000036,,,,,,,,,,,,,,,,,,,,,,,,,,,,3932.290664799977,3932.306802000036,3932.306802000036,3932.790047300048,3932.806644700002,3935.290014100028,3935.290189599968,None,1.0,,,,,,,,,,,,,,,,,,,,,,,,,,,,,,,,,,,,,,,,,,,,,nback4,1.0,2023-12-07_16h19.18.069,untitled,2023.2.3,59.83362663259776,2023-12-07 16h19.36.138566 -0500,
6.0,"[-0.3, 0]",None,0.0,24.0,24.0,24.0,,,,,,,,,3935.306699299952,,,,,,,,,,,,,,,,,,,,,,,,,,,,3935.2908408000367,3935.306699299952,3935.306699299952,3935.790039899992,3935.806590500055,3938.2900475000497,3938.290218699956,None,1.0,,,,,,,,,,,,,,,,,,,,,,,,,,,,,,,,,,,,,,,,,,,,,nback4,1.0,2023-12-07_16h19.18.069,untitled,2023.2.3,59.83362663259776,2023-12-07 16h19.36.138566 -0500,
3.0,"[0, 0.2]",None,0.0,25.0,25.0,25.0,,,,,,,,,3938.3067250000313,,,,,,,,,,,,,,,,,,,,,,,,,,,,3938.290875599952,3938.3067250000313,3938.3067250000313,3938.7899753999664,3938.8066099999705,3941.289869499975,3941.2900256,None,1.0,,,,,,,,,,,,,,,,,,,,,,,,,,,,,,,,,,,,,,,,,,,,,nback4,1.0,2023-12-07_16h19.18.069,untitled,2023.2.3,59.83362663259776,2023-12-07 16h19.36.138566 -0500,
11.0,"[-0.64, -0.4]",space,0.0,26.0,26.0,26.0,,,,,,,,,3941.306541500031,,,,,,,,,,,,,,,,,,,,,,,,,,,,3941.290754699963,3941.306541500031,3941.306541500031,3941.78980030003,3941.806551299989,3944.289825899992,3944.28998989996,space,1.0,0.3552187000168487,None,,,,,,,,,,,,,,,,,,,,,,,,,,,,,,,,,,,,,,,,,,,nback4,1.0,2023-12-07_16h19.18.069,untitled,2023.2.3,59.83362663259776,2023-12-07 16h19.36.138566 -0500,
1.0,"[-0.64, 0.4]",None,0.0,27.0,27.0,27.0,,,,,,,,,3944.306473299978,,,,,,,,,,,,,,,,,,,,,,,,,,,,3944.2909232999664,3944.306473299978,3944.306473299978,3944.7897132999497,3944.806345100049,3947.289838599973,3947.290005599964,None,1.0,,,,,,,,,,,,,,,,,,,,,,,,,,,,,,,,,,,,,,,,,,,,,nback4,1.0,2023-12-07_16h19.18.069,untitled,2023.2.3,59.83362663259776,2023-12-07 16h19.36.138566 -0500,
3.0,"[0, 0.2]",None,0.0,28.0,28.0,28.0,,,,,,,,,3947.306525400025,,,,,,,,,,,,,,,,,,,,,,,,,,,,3947.290660599945,3947.306525400025,3947.306525400025,3947.789774999954,3947.806403400027,3950.289961099974,3950.2901709999423,None,1.0,,,,,,,,,,,,,,,,,,,,,,,,,,,,,,,,,,,,,,,,,,,,,nback4,1.0,2023-12-07_16h19.18.069,untitled,2023.2.3,59.83362663259776,2023-12-07 16h19.36.138566 -0500,
9.0,"[0.2, -0.1]",None,0.0,29.0,29.0,29.0,,,,,,,,,3950.306513800053,,,,,,,,,,,,,,,,,,,,,,,,,,,,3950.2910189999966,3950.306513800053,3950.306513800053,3950.7897426999407,3950.806397099979,3953.289690200007,3953.28989200003,None,1.0,,,,,,,,,,,,,,,,,,,,,,,,,,,,,,,,,,,,,,,,,,,,,nback4,1.0,2023-12-07_16h19.18.069,untitled,2023.2.3,59.83362663259776,2023-12-07 16h19.36.138566 -0500,
8.0,"[-0.2, -0.1]",None,0.0,30.0,30.0,30.0,,,,,,,,,3953.3062797000166,,,,,,,,,,,,,,,,,,,,,,,,,,,,3953.290569699952,3953.3062797000166,3953.3062797000166,3953.7897996000247,3953.806514699944,3956.2897840000223,3956.289987999946,None,1.0,,,,,,,,,,,,,,,,,,,,,,,,,,,,,,,,,,,,,,,,,,,,,nback4,1.0,2023-12-07_16h19.18.069,untitled,2023.2.3,59.83362663259776,2023-12-07 16h19.36.138566 -0500,
12.0,"[0.64, -0.4]",None,0.0,31.0,31.0,31.0,,,,,,,,,3956.3062830000417,,,,,,,,,,,,,,,,,,,,,,,,,,,,3956.290798199945,3956.3062830000417,3956.3062830000417,3956.7897643999895,3956.8064675000496,3959.2895621999633,3959.289740800042,None,1.0,,,,,,,,,,,,,,,,,,,,,,,,,,,,,,,,,,,,,,,,,,,,,nback4,1.0,2023-12-07_16h19.18.069,untitled,2023.2.3,59.83362663259776,2023-12-07 16h19.36.138566 -0500,
9.0,"[0.2, -0.1]",None,0.0,32.0,32.0,32.0,,,,,,,,,3959.306357500027,,,,,,,,,,,,,,,,,,,,,,,,,,,,3959.290435199975,3959.306357500027,3959.306357500027,3959.7895041999873,3959.806166999973,3962.289540000027,3962.289698899957,None,1.0,,,,,,,,,,,,,,,,,,,,,,,,,,,,,,,,,,,,,,,,,,,,,nback4,1.0,2023-12-07_16h19.18.069,untitled,2023.2.3,59.83362663259776,2023-12-07 16h19.36.138566 -0500,
11.0,"[-0.64, -0.4]",space,0.0,33.0,33.0,33.0,,,,,,,,,3962.306169299991,,,,,,,,,,,,,,,,,,,,,,,,,,,,3962.290311499965,3962.306169299991,3962.306169299991,3962.78955700004,3962.8063368999865,3965.289600600023,3965.289798000013,space,1.0,0.3376754999626428,None,,,,,,,,,,,,,,,,,,,,,,,,,,,,,,,,,,,,,,,,,,,nback4,1.0,2023-12-07_16h19.18.069,untitled,2023.2.3,59.83362663259776,2023-12-07 16h19.36.138566 -0500,
7.0,"[0.3, 0]",None,0.0,34.0,34.0,34.0,,,,,,,,,3965.306176800048,,,,,,,,,,,,,,,,,,,,,,,,,,,,3965.290699300007,3965.306176800048,3965.306176800048,3965.789542400045,3965.806169599993,3968.289449600037,3968.2896268999903,None,1.0,,,,,,,,,,,,,,,,,,,,,,,,,,,,,,,,,,,,,,,,,,,,,nback4,1.0,2023-12-07_16h19.18.069,untitled,2023.2.3,59.83362663259776,2023-12-07 16h19.36.138566 -0500,
11.0,"[-0.64, -0.4]",space,0.0,35.0,35.0,35.0,,,,,,,,,3968.306193000055,,,,,,,,,,,,,,,,,,,,,,,,,,,,3968.2903191000223,3968.306193000055,3968.306193000055,3968.789699199959,3968.806207900052,3971.289445400005,3971.289631500025,space,1.0,0.4630709000630304,None,,,,,,,,,,,,,,,,,,,,,,,,,,,,,,,,,,,,,,,,,,,nback4,1.0,2023-12-07_16h19.18.069,untitled,2023.2.3,59.83362663259776,2023-12-07 16h19.36.138566 -0500,
4.0,"[-0.2, 0.1]",None,0.0,36.0,36.0,36.0,,,,,,,,,3971.306112500024,,,,,,,,,,,,,,,,,,,,,,,,,,,,3971.2905701999553,3971.306112500024,3971.306112500024,3971.789473699988,3971.806188700022,3974.289374700049,3974.289535899996,None,1.0,,,,,,,,,,,,,,,,,,,,,,,,,,,,,,,,,,,,,,,,,,,,,nback4,1.0,2023-12-07_16h19.18.069,untitled,2023.2.3,59.83362663259776,2023-12-07 16h19.36.138566 -0500,
5.0,"[0.2, 0.1]",None,0.0,37.0,37.0,37.0,,,,,,,,,3974.305958000012,,,,,,,,,,,,,,,,,,,,,,,,,,,,3974.290169600048,3974.305958000012,3974.305958000012,3974.789323500008,3974.805996199954,3977.2894535999512,3977.2897016999777,None,1.0,,,,,,,,,,,,,,,,,,,,,,,,,,,,,,,,,,,,,,,,,,,,,nback4,1.0,2023-12-07_16h19.18.069,untitled,2023.2.3,59.83362663259776,2023-12-07 16h19.36.138566 -0500,
6.0,"[-0.3, 0]",None,0.0,38.0,38.0,38.0,,,,,,,,,3977.306036000024,,,,,,,,,,,,,,,,,,,,,,,,,,,,3977.290536100045,3977.306036000024,3977.306036000024,3977.789276199997,3977.8059109000014,3980.2890892999712,3980.289210999967,None,1.0,,,,,,,,,,,,,,,,,,,,,,,,,,,,,,,,,,,,,,,,,,,,,nback4,1.0,2023-12-07_16h19.18.069,untitled,2023.2.3,59.83362663259776,2023-12-07 16h19.36.138566 -0500,
11.0,"[-0.64, -0.4]",space,0.0,39.0,39.0,39.0,,,,,,,,,3980.305750299944,,,,,,,,,,,,,,,,,,,,,,,,,,,,3980.289765099995,3980.305750299944,3980.305750299944,3980.789285599953,3980.805900100037,3983.2893337999694,3983.28951589996,space,1.0,0.3118487999308854,None,,,,,,,,,,,,,,,,,,,,,,,,,,,,,,,,,,,,,,,,,,,nback4,1.0,2023-12-07_16h19.18.069,untitled,2023.2.3,59.83362663259776,2023-12-07 16h19.36.138566 -0500,
,,,,,,,,,,,,,,,,,,,,,,,,,,,,,,,,,,,,,,,,,,,,,,,,,,,,,,3983.2901546000494,3983.305955999997,3983.305955999997,4001.7568158999775,space,18.43667540000752,None,,,,,,,,,,,,,,,,,,,,,,,,,,,,,,,,,,,,nback4,1.0,2023-12-07_16h19.18.069,untitled,2023.2.3,59.83362663259776,2023-12-07 16h19.36.138566 -0500,
10.0,"[0, -0.2]",None,,,,,0.0,0.0,0.0,0.0,,,,,4002.772100499948,,,,,,,,,,,,,,,,,,,,,,,,4001.756851300015,4001.772173400037,4002.772100499948,4002.755826100009,,,,,,,,,,,,,,,,,,,4002.7686614999543,4002.772100499948,4002.772100499948,4003.272337200004,4003.272337200004,4005.772140200017,4005.772140200017,4005.756279899972,None,1.0,,,,,,,,,,,,,,,,,,,,,,,,,,nback4,1.0,2023-12-07_16h19.18.069,untitled,2023.2.3,59.83362663259776,2023-12-07 16h19.36.138566 -0500,
5.0,"[0.2, 0.1]",None,,,,,0.0,1.0,1.0,1.0,,,,,4005.772140200017,,,,,,,,,,,,,,,,,,,,,,,,,,,,,,,,,,,,,,,,,,,,,,4005.757132999948,4005.772140200017,4005.772140200017,4006.272062500008,4006.272062500008,4008.7721051999833,4008.7721051999833,4008.756214000052,None,1.0,,,,,,,,,,,,,,,,,,,,,,,,,,nback4,1.0,2023-12-07_16h19.18.069,untitled,2023.2.3,59.83362663259776,2023-12-07 16h19.36.138566 -0500,
6.0,"[-0.3, 0]",None,,,,,0.0,2.0,2.0,2.0,,,,,4008.7721051999833,,,,,,,,,,,,,,,,,,,,,,,,,,,,,,,,,,,,,,,,,,,,,,4008.756854700041,4008.7721051999833,4008.7721051999833,4009.272077400005,4009.272077400005,4011.77208689996,4011.77208689996,4011.756306499941,None,1.0,,,,,,,,,,,,,,,,,,,,,,,,,,nback4,1.0,2023-12-07_16h19.18.069,untitled,2023.2.3,59.83362663259776,2023-12-07 16h19.36.138566 -0500,
6.0,"[-0.3, 0]",space,,,,,0.0,3.0,3.0,3.0,,,,,4011.77208689996,,,,,,,,,,,,,,,,,,,,,,,,,,,,,,,,,,,,,,,,,,,,,,4011.757070999942,4011.77208689996,4011.77208689996,4012.271969499998,4012.271969499998,4014.7720594999846,4014.7720594999846,4014.75621589995,space,1.0,0.6704267000313848,None,,,,,,,,,,,,,,,,,,,,,,,,nback4,1.0,2023-12-07_16h19.18.069,untitled,2023.2.3,59.83362663259776,2023-12-07 16h19.36.138566 -0500,
12.0,"[0.64, -0.4]",None,,,,,0.0,4.0,4.0,4.0,,,,,4014.7720594999846,,,,,,,,,,,,,,,,,,,,,,,,,,,,,,,,,,,,,,,,,,,,,,4014.757121599978,4014.7720594999846,4014.7720594999846,4015.271709499997,4015.271709499997,4017.7719111000183,4017.7719111000183,4017.7560327999527,None,1.0,,,,,,,,,,,,,,,,,,,,,,,,,,nback4,1.0,2023-12-07_16h19.18.069,untitled,2023.2.3,59.83362663259776,2023-12-07 16h19.36.138566 -0500,
10.0,"[0, -0.2]",None,,,,,0.0,5.0,5.0,5.0,,,,,4017.7719111000183,,,,,,,,,,,,,,,,,,,,,,,,,,,,,,,,,,,,,,,,,,,,,,4017.75667849998,4017.7719111000183,4017.7719111000183,4018.271848700009,4018.271848700009,4020.7720053000376,4020.7720053000376,4020.756084699999,None,1.0,,,,,,,,,,,,,,,,,,,,,,,,,,nback4,1.0,2023-12-07_16h19.18.069,untitled,2023.2.3,59.83362663259776,2023-12-07 16h19.36.138566 -0500,
2.0,"[0.64, 0.4]",None,,,,,0.0,6.0,6.0,6.0,,,,,4020.7720053000376,,,,,,,,,,,,,,,,,,,,,,,,,,,,,,,,,,,,,,,,,,,,,,4020.756710199989,4020.7720053000376,4020.7720053000376,4021.271656899946,4021.271656899946,4023.7718695000513,4023.7718695000513,4023.756020699977,None,1.0,,,,,,,,,,,,,,,,,,,,,,,,,,nback4,1.0,2023-12-07_16h19.18.069,untitled,2023.2.3,59.83362663259776,2023-12-07 16h19.36.138566 -0500,
9.0,"[0.2, -0.1]",None,,,,,0.0,7.0,7.0,7.0,,,,,4023.7718695000513,,,,,,,,,,,,,,,,,,,,,,,,,,,,,,,,,,,,,,,,,,,,,,4023.756675099954,4023.7718695000513,4023.7718695000513,4024.2719145000447,4024.2719145000447,4026.771765299956,4026.771765299956,4026.755843300023,None,1.0,,,,,,,,,,,,,,,,,,,,,,,,,,nback4,1.0,2023-12-07_16h19.18.069,untitled,2023.2.3,59.83362663259776,2023-12-07 16h19.36.138566 -0500,
9.0,"[0.2, -0.1]",space,,,,,0.0,8.0,8.0,8.0,,,,,4026.771765299956,,,,,,,,,,,,,,,,,,,,,,,,,,,,,,,,,,,,,,,,,,,,,,4026.7565328000346,4026.771765299956,4026.771765299956,4027.2718745999737,4027.2718745999737,4029.7717639999455,4029.7717639999455,4029.755919500021,None,0.0,,,,,,,,,,,,,,,,,,,,,,,,,,nback4,1.0,2023-12-07_16h19.18.069,untitled,2023.2.3,59.83362663259776,2023-12-07 16h19.36.138566 -0500,
6.0,"[-0.3, 0]",None,,,,,0.0,9.0,9.0,9.0,,,,,4029.7717639999455,,,,,,,,,,,,,,,,,,,,,,,,,,,,,,,,,,,,,,,,,,,,,,4029.756569099962,4029.7717639999455,4029.7717639999455,4030.271567099961,4030.271567099961,4032.771777200047,4032.771777200047,4032.756134200026,None,1.0,,,,,,,,,,,,,,,,,,,,,,,,,,nback4,1.0,2023-12-07_16h19.18.069,untitled,2023.2.3,59.83362663259776,2023-12-07 16h19.36.138566 -0500,
11.0,"[-0.64, -0.4]",None,,,,,0.0,10.0,10.0,10.0,,,,,4032.771777200047,,,,,,,,,,,,,,,,,,,,,,,,,,,,,,,,,,,,,,,,,,,,,,4032.756824700045,4032.771777200047,4032.771777200047,4033.271686700056,4033.271686700056,4035.771508899983,4035.771508899983,4035.755902300007,None,1.0,,,,,,,,,,,,,,,,,,,,,,,,,,nback4,1.0,2023-12-07_16h19.18.069,untitled,2023.2.3,59.83362663259776,2023-12-07 16h19.36.138566 -0500,
11.0,"[-0.64, -0.4]",space,,,,,0.0,11.0,11.0,11.0,,,,,4035.771508899983,,,,,,,,,,,,,,,,,,,,,,,,,,,,,,,,,,,,,,,,,,,,,,4035.756575700012,4035.771508899983,4035.771508899983,4036.271488099941,4036.271488099941,4038.771464499994,4038.771464499994,4038.755512299947,None,0.0,,,,,,,,,,,,,,,,,,,,,,,,,,nback4,1.0,2023-12-07_16h19.18.069,untitled,2023.2.3,59.83362663259776,2023-12-07 16h19.36.138566 -0500,
4.0,"[-0.2, 0.1]",None,,,,,0.0,12.0,12.0,12.0,,,,,4038.771464499994,,,,,,,,,,,,,,,,,,,,,,,,,,,,,,,,,,,,,,,,,,,,,,4038.756088700029,4038.771464499994,4038.771464499994,4039.27148580004,4039.27148580004,4041.771649800008,4041.771649800008,4041.755467299954,None,1.0,,,,,,,,,,,,,,,,,,,,,,,,,,nback4,1.0,2023-12-07_16h19.18.069,untitled,2023.2.3,59.83362663259776,2023-12-07 16h19.36.138566 -0500,
3.0,"[0, 0.2]",None,,,,,0.0,13.0,13.0,13.0,,,,,4041.771649800008,,,,,,,,,,,,,,,,,,,,,,,,,,,,,,,,,,,,,,,,,,,,,,4041.756039900007,4041.771649800008,4041.771649800008,4042.271537499968,4042.271537499968,4044.771516500041,4044.771516500041,4044.755777299986,None,1.0,,,,,,,,,,,,,,,,,,,,,,,,,,nback4,1.0,2023-12-07_16h19.18.069,untitled,2023.2.3,59.83362663259776,2023-12-07 16h19.36.138566 -0500,
3.0,"[0, 0.2]",space,,,,,0.0,14.0,14.0,14.0,,,,,4044.771516500041,,,,,,,,,,,,,,,,,,,,,,,,,,,,,,,,,,,,,,,,,,,,,,4044.756467500003,4044.771516500041,4044.771516500041,4045.271477399976,4045.271477399976,4047.7714259000495,4047.7714259000495,4047.755307200016,None,0.0,,,,,,,,,,,,,,,,,,,,,,,,,,nback4,1.0,2023-12-07_16h19.18.069,untitled,2023.2.3,59.83362663259776,2023-12-07 16h19.36.138566 -0500,
8.0,"[-0.2, -0.1]",None,,,,,0.0,15.0,15.0,15.0,,,,,4047.7714259000495,,,,,,,,,,,,,,,,,,,,,,,,,,,,,,,,,,,,,,,,,,,,,,4047.755838299985,4047.7714259000495,4047.7714259000495,4048.271419800003,4048.271419800003,4050.7713902000105,4050.7713902000105,4050.755876500043,None,1.0,,,,,,,,,,,,,,,,,,,,,,,,,,nback4,1.0,2023-12-07_16h19.18.069,untitled,2023.2.3,59.83362663259776,2023-12-07 16h19.36.138566 -0500,
1.0,"[-0.64, 0.4]",None,,,,,0.0,16.0,16.0,16.0,,,,,4050.7713902000105,,,,,,,,,,,,,,,,,,,,,,,,,,,,,,,,,,,,,,,,,,,,,,4050.75672960002,4050.7713902000105,4050.7713902000105,4051.271331900032,4051.271331900032,4053.771269600024,4053.771269600024,4053.755222299951,None,1.0,,,,,,,,,,,,,,,,,,,,,,,,,,nback4,1.0,2023-12-07_16h19.18.069,untitled,2023.2.3,59.83362663259776,2023-12-07 16h19.36.138566 -0500,
2.0,"[0.64, 0.4]",None,,,,,0.0,17.0,17.0,17.0,,,,,4053.771269600024,,,,,,,,,,,,,,,,,,,,,,,,,,,,,,,,,,,,,,,,,,,,,,4053.755899699987,4053.771269600024,4053.771269600024,4054.271133800037,4054.271133800037,4056.771259699948,4056.771259699948,4056.755417100037,None,1.0,,,,,,,,,,,,,,,,,,,,,,,,,,nback4,1.0,2023-12-07_16h19.18.069,untitled,2023.2.3,59.83362663259776,2023-12-07 16h19.36.138566 -0500,
4.0,"[-0.2, 0.1]",None,,,,,0.0,18.0,18.0,18.0,,,,,4056.771259699948,,,,,,,,,,,,,,,,,,,,,,,,,,,,,,,,,,,,,,,,,,,,,,4056.756080099964,4056.771259699948,4056.771259699948,4057.271259399946,4057.271259399946,4059.771136999945,4059.771136999945,4059.75561360002,None,1.0,,,,,,,,,,,,,,,,,,,,,,,,,,nback4,1.0,2023-12-07_16h19.18.069,untitled,2023.2.3,59.83362663259776,2023-12-07 16h19.36.138566 -0500,
4.0,"[-0.2, 0.1]",space,,,,,0.0,19.0,19.0,19.0,,,,,4059.771136999945,,,,,,,,,,,,,,,,,,,,,,,,,,,,,,,,,,,,,,,,,,,,,,4059.7564167999662,4059.771136999945,4059.771136999945,4060.2710978999967,4060.2710978999967,4062.771050199983,4062.771050199983,4062.7554800000503,None,0.0,,,,,,,,,,,,,,,,,,,,,,,,,,nback4,1.0,2023-12-07_16h19.18.069,untitled,2023.2.3,59.83362663259776,2023-12-07 16h19.36.138566 -0500,
8.0,"[-0.2, -0.1]",None,,,,,0.0,20.0,20.0,20.0,,,,,4062.771050199983,,,,,,,,,,,,,,,,,,,,,,,,,,,,,,,,,,,,,,,,,,,,,,4062.756100700004,4062.771050199983,4062.771050199983,4063.271124299965,4063.271124299965,4065.771211800049,4065.771211800049,4065.755184800015,None,1.0,,,,,,,,,,,,,,,,,,,,,,,,,,nback4,1.0,2023-12-07_16h19.18.069,untitled,2023.2.3,59.83362663259776,2023-12-07 16h19.36.138566 -0500,
5.0,"[0.2, 0.1]",None,,,,,0.0,21.0,21.0,21.0,,,,,4065.771211800049,,,,,,,,,,,,,,,,,,,,,,,,,,,,,,,,,,,,,,,,,,,,,,4065.7557980000274,4065.771211800049,4065.771211800049,4066.2711350000463,4066.2711350000463,4068.7711325000273,4068.7711325000273,4068.7552821999416,None,1.0,,,,,,,,,,,,,,,,,,,,,,,,,,nback4,1.0,2023-12-07_16h19.18.069,untitled,2023.2.3,59.83362663259776,2023-12-07 16h19.36.138566 -0500,
5.0,"[0.2, 0.1]",space,,,,,0.0,22.0,22.0,22.0,,,,,4068.7711325000273,,,,,,,,,,,,,,,,,,,,,,,,,,,,,,,,,,,,,,,,,,,,,,4068.755913599976,4068.7711325000273,4068.7711325000273,4069.270883499994,4069.270883499994,4071.7710770999543,4071.7710770999543,4071.75570530002,None,0.0,,,,,,,,,,,,,,,,,,,,,,,,,,nback4,1.0,2023-12-07_16h19.18.069,untitled,2023.2.3,59.83362663259776,2023-12-07 16h19.36.138566 -0500,
1.0,"[-0.64, 0.4]",None,,,,,0.0,23.0,23.0,23.0,,,,,4071.7710770999543,,,,,,,,,,,,,,,,,,,,,,,,,,,,,,,,,,,,,,,,,,,,,,4071.756461599958,4071.7710770999543,4071.7710770999543,4072.270916400012,4072.270916400012,4074.770794200013,4074.770794200013,4074.755154800019,None,1.0,,,,,,,,,,,,,,,,,,,,,,,,,,nback4,1.0,2023-12-07_16h19.18.069,untitled,2023.2.3,59.83362663259776,2023-12-07 16h19.36.138566 -0500,
3.0,"[0, 0.2]",None,,,,,0.0,24.0,24.0,24.0,,,,,4074.770794200013,,,,,,,,,,,,,,,,,,,,,,,,,,,,,,,,,,,,,,,,,,,,,,4074.755816400051,4074.770794200013,4074.770794200013,4075.2708593000425,4075.2708593000425,4077.770879299962,4077.770879299962,4077.755565700005,None,1.0,,,,,,,,,,,,,,,,,,,,,,,,,,nback4,1.0,2023-12-07_16h19.18.069,untitled,2023.2.3,59.83362663259776,2023-12-07 16h19.36.138566 -0500,
6.0,"[-0.3, 0]",None,,,,,0.0,25.0,25.0,25.0,,,,,4077.770879299962,,,,,,,,,,,,,,,,,,,,,,,,,,,,,,,,,,,,,,,,,,,,,,4077.755875700037,4077.770879299962,4077.770879299962,4078.2710511999903,4078.2710511999903,4080.770923399949,4080.770923399949,4080.75500200002,None,1.0,,,,,,,,,,,,,,,,,,,,,,,,,,nback4,1.0,2023-12-07_16h19.18.069,untitled,2023.2.3,59.83362663259776,2023-12-07 16h19.36.138566 -0500,
1.0,"[-0.64, 0.4]",None,,,,,0.0,26.0,26.0,26.0,,,,,4080.770923399949,,,,,,,,,,,,,,,,,,,,,,,,,,,,,,,,,,,,,,,,,,,,,,4080.7556523999674,4080.770923399949,4080.770923399949,4081.2707494000206,4081.2707494000206,4083.770842800033,4083.770842800033,4083.7548556999536,None,1.0,,,,,,,,,,,,,,,,,,,,,,,,,,nback4,1.0,2023-12-07_16h19.18.069,untitled,2023.2.3,59.83362663259776,2023-12-07 16h19.36.138566 -0500,
1.0,"[-0.64, 0.4]",space,,,,,0.0,27.0,27.0,27.0,,,,,4083.770842800033,,,,,,,,,,,,,,,,,,,,,,,,,,,,,,,,,,,,,,,,,,,,,,4083.7554942000415,4083.770842800033,4083.770842800033,4084.270798600046,4084.270798600046,4086.770791399991,4086.770791399991,4086.754808499944,space,1.0,0.3849897999316454,None,,,,,,,,,,,,,,,,,,,,,,,,nback4,1.0,2023-12-07_16h19.18.069,untitled,2023.2.3,59.83362663259776,2023-12-07 16h19.36.138566 -0500,
1.0,"[-0.64, 0.4]",space,,,,,0.0,28.0,28.0,28.0,,,,,4086.770791399991,,,,,,,,,,,,,,,,,,,,,,,,,,,,,,,,,,,,,,,,,,,,,,4086.755577899981,4086.770791399991,4086.770791399991,4087.2708171999543,4087.2708171999543,4089.770693099941,4089.770693099941,4089.7548953000223,None,0.0,,,,,,,,,,,,,,,,,,,,,,,,,,nback4,1.0,2023-12-07_16h19.18.069,untitled,2023.2.3,59.83362663259776,2023-12-07 16h19.36.138566 -0500,
3.0,"[0, 0.2]",None,,,,,0.0,29.0,29.0,29.0,,,,,4089.770693099941,,,,,,,,,,,,,,,,,,,,,,,,,,,,,,,,,,,,,,,,,,,,,,4089.7554524999578,4089.770693099941,4089.770693099941,4090.270745699992,4090.270745699992,4092.7705953000113,4092.7705953000113,4092.75477270002,None,1.0,,,,,,,,,,,,,,,,,,,,,,,,,,nback4,1.0,2023-12-07_16h19.18.069,untitled,2023.2.3,59.83362663259776,2023-12-07 16h19.36.138566 -0500,
12.0,"[0.64, -0.4]",None,,,,,0.0,30.0,30.0,30.0,,,,,4092.7705953000113,,,,,,,,,,,,,,,,,,,,,,,,,,,,,,,,,,,,,,,,,,,,,,4092.7554064999567,4092.7705953000113,4092.7705953000113,4093.270578399999,4093.270578399999,4095.770623499993,4095.770623499993,4095.754738699994,None,1.0,,,,,,,,,,,,,,,,,,,,,,,,,,nback4,1.0,2023-12-07_16h19.18.069,untitled,2023.2.3,59.83362663259776,2023-12-07 16h19.36.138566 -0500,
12.0,"[0.64, -0.4]",space,,,,,0.0,31.0,31.0,31.0,,,,,4095.770623499993,,,,,,,,,,,,,,,,,,,,,,,,,,,,,,,,,,,,,,,,,,,,,,4095.755345299957,4095.770623499993,4095.770623499993,4096.270302899997,4096.270302899997,4098.770494799945,4098.770494799945,4098.7547048999695,space,1.0,0.900918599916622,None,,,,,,,,,,,,,,,,,,,,,,,,nback4,1.0,2023-12-07_16h19.18.069,untitled,2023.2.3,59.83362663259776,2023-12-07 16h19.36.138566 -0500,
2.0,"[0.64, 0.4]",None,,,,,0.0,32.0,32.0,32.0,,,,,4098.770494799945,,,,,,,,,,,,,,,,,,,,,,,,,,,,,,,,,,,,,,,,,,,,,,4098.755438399967,4098.770494799945,4098.770494799945,4099.270484899986,4099.270484899986,4101.770437599975,4101.770437599975,4101.754598599975,None,1.0,,,,,,,,,,,,,,,,,,,,,,,,,,nback4,1.0,2023-12-07_16h19.18.069,untitled,2023.2.3,59.83362663259776,2023-12-07 16h19.36.138566 -0500,
1.0,"[-0.64, 0.4]",None,,,,,0.0,33.0,33.0,33.0,,,,,4101.770437599975,,,,,,,,,,,,,,,,,,,,,,,,,,,,,,,,,,,,,,,,,,,,,,4101.755245400011,4101.770437599975,4101.770437599975,4102.2704009000445,4102.2704009000445,4104.77056189999,4104.77056189999,4104.755006700056,None,1.0,,,,,,,,,,,,,,,,,,,,,,,,,,nback4,1.0,2023-12-07_16h19.18.069,untitled,2023.2.3,59.83362663259776,2023-12-07 16h19.36.138566 -0500,
7.0,"[0.3, 0]",None,,,,,0.0,34.0,34.0,34.0,,,,,4104.77056189999,,,,,,,,,,,,,,,,,,,,,,,,,,,,,,,,,,,,,,,,,,,,,,4104.755865999963,4104.77056189999,4104.77056189999,4105.27053400001,4105.27053400001,4107.770320700016,4107.770320700016,4107.754870699951,None,1.0,,,,,,,,,,,,,,,,,,,,,,,,,,nback4,1.0,2023-12-07_16h19.18.069,untitled,2023.2.3,59.83362663259776,2023-12-07 16h19.36.138566 -0500,
7.0,"[0.3, 0]",space,,,,,0.0,35.0,35.0,35.0,,,,,4107.770320700016,,,,,,,,,,,,,,,,,,,,,,,,,,,,,,,,,,,,,,,,,,,,,,4107.755644400022,4107.770320700016,4107.770320700016,4108.270529299974,4108.270529299974,4110.77047410002,4110.77047410002,4110.75456869998,space,1.0,0.6425060000037774,None,,,,,,,,,,,,,,,,,,,,,,,,nback4,1.0,2023-12-07_16h19.18.069,untitled,2023.2.3,59.83362663259776,2023-12-07 16h19.36.138566 -0500,
11.0,"[-0.64, -0.4]",None,,,,,0.0,36.0,36.0,36.0,,,,,4110.77047410002,,,,,,,,,,,,,,,,,,,,,,,,,,,,,,,,,,,,,,,,,,,,,,4110.755276800017,4110.77047410002,4110.77047410002,4111.270160999964,4111.270160999964,4113.770380900009,4113.770380900009,4113.754338799976,None,1.0,,,,,,,,,,,,,,,,,,,,,,,,,,nback4,1.0,2023-12-07_16h19.18.069,untitled,2023.2.3,59.83362663259776,2023-12-07 16h19.36.138566 -0500,
2.0,"[0.64, 0.4]",None,,,,,0.0,37.0,37.0,37.0,,,,,4113.770380900009,,,,,,,,,,,,,,,,,,,,,,,,,,,,,,,,,,,,,,,,,,,,,,4113.754945500055,4113.770380900009,4113.770380900009,4114.270092000021,4114.270092000021,4116.770116699976,4116.770116699976,4116.754245999968,None,1.0,,,,,,,,,,,,,,,,,,,,,,,,,,nback4,1.0,2023-12-07_16h19.18.069,untitled,2023.2.3,59.83362663259776,2023-12-07 16h19.36.138566 -0500,
6.0,"[-0.3, 0]",None,,,,,0.0,38.0,38.0,38.0,,,,,4116.770116699976,,,,,,,,,,,,,,,,,,,,,,,,,,,,,,,,,,,,,,,,,,,,,,4116.754801000003,4116.770116699976,4116.770116699976,4117.270214500022,4117.270214500022,4119.770355200046,4119.770355200046,4119.75448620005,None,1.0,,,,,,,,,,,,,,,,,,,,,,,,,,nback4,1.0,2023-12-07_16h19.18.069,untitled,2023.2.3,59.83362663259776,2023-12-07 16h19.36.138566 -0500,
10.0,"[0, -0.2]",None,,,,,0.0,39.0,39.0,39.0,,,,,4119.770355200046,,,,,,,,,,,,,,,,,,,,,,,,,,,,,,,,,,,,,,,,,,,,,,4119.75521740003,4119.770355200046,4119.770355200046,4120.270272399997,4120.270272399997,4122.770166000002,4122.770166000002,4122.754274899955,None,1.0,,,,,,,,,,,,,,,,,,,,,,,,,,nback4,1.0,2023-12-07_16h19.18.069,untitled,2023.2.3,59.83362663259776,2023-12-07 16h19.36.138566 -0500,
,,,,,,,,,,,,,,,,,,,,,,,,,,,,,,,,,,,,,,,,,,,,,,,,,,,,,,,,,,,,,,,,,,,,,,,,,4122.754810499959,4122.770166000002,4122.770166000002,4146.020715199993,space,23.24248160002753,None,,,,,,,,,,,,,,,,,nback4,1.0,2023-12-07_16h19.18.069,untitled,2023.2.3,59.83362663259776,2023-12-07 16h19.36.138566 -0500,
,"[0.2, 0.1]",None,,,,,,,,,0.0,0.0,0.0,0.0,4147.037357000052,,,,,,,,,,,,,,,,,,,,,,,,4146.020747000002,4146.036609299947,4147.037357000052,4147.020687800017,,,,,,,,,,,,,,,,,,,,,,,,,,,,,,,,,,,,,,4147.035260500037,4147.037357000052,4147.037357000052,4147.519613899989,4147.552951600053,4150.019651400042,4150.036361300037,4150.020574499969,None,1.0,,,,,,,nback4,1.0,2023-12-07_16h19.18.069,untitled,2023.2.3,59.83362663259776,2023-12-07 16h19.36.138566 -0500,
,"[0.64, 0.4]",None,,,,,,,,,0.0,1.0,1.0,1.0,4150.036361300037,,,,,,,,,,,,,,,,,,,,,,,,,,,,,,,,,,,,,,,,,,,,,,,,,,,,,,,,,,,,,,,,,4150.021391100017,4150.036361300037,4150.036361300037,4150.519581299974,4150.536443499965,4153.019688099972,4153.03645689995,4153.020512999967,None,1.0,,,,,,,nback4,1.0,2023-12-07_16h19.18.069,untitled,2023.2.3,59.83362663259776,2023-12-07 16h19.36.138566 -0500,
,"[-0.3, 0]",None,,,,,,,,,0.0,2.0,2.0,2.0,4153.03645689995,,,,,,,,,,,,,,,,,,,,,,,,,,,,,,,,,,,,,,,,,,,,,,,,,,,,,,,,,,,,,,,,,4153.021219399991,4153.03645689995,4153.03645689995,4153.536317600054,4153.536317600054,4156.036387600005,4156.036387600005,4156.020356400055,None,1.0,,,,,,,nback4,1.0,2023-12-07_16h19.18.069,untitled,2023.2.3,59.83362663259776,2023-12-07 16h19.36.138566 -0500,
,"[0.2, -0.1]",None,,,,,,,,,0.0,3.0,3.0,3.0,4156.036387600005,,,,,,,,,,,,,,,,,,,,,,,,,,,,,,,,,,,,,,,,,,,,,,,,,,,,,,,,,,,,,,,,,4156.0210046999855,4156.036387600005,4156.036387600005,4156.536362400046,4156.536362400046,4159.036220500013,4159.036220500013,4159.020135600003,None,1.0,,,,,,,nback4,1.0,2023-12-07_16h19.18.069,untitled,2023.2.3,59.83362663259776,2023-12-07 16h19.36.138566 -0500,
,"[0, 0.2]",None,,,,,,,,,0.0,4.0,4.0,4.0,4159.036220500013,,,,,,,,,,,,,,,,,,,,,,,,,,,,,,,,,,,,,,,,,,,,,,,,,,,,,,,,,,,,,,,,,4159.020695699961,4159.036220500013,4159.036220500013,4159.519426199957,4159.536155399983,4162.019411599962,4162.036199999973,4162.02022419998,None,1.0,,,,,,,nback4,1.0,2023-12-07_16h19.18.069,untitled,2023.2.3,59.83362663259776,2023-12-07 16h19.36.138566 -0500,
,"[0.2, -0.1]",space,,,,,,,,,0.0,5.0,5.0,5.0,4162.036199999973,,,,,,,,,,,,,,,,,,,,,,,,,,,,,,,,,,,,,,,,,,,,,,,,,,,,,,,,,,,,,,,,,4162.020847399952,4162.036199999973,4162.036199999973,4162.536165799946,4162.536165799946,4165.036178700044,4165.036178700044,4165.020479299943,space,1.0,0.7499931999482214,None,,,,,nback4,1.0,2023-12-07_16h19.18.069,untitled,2023.2.3,59.83362663259776,2023-12-07 16h19.36.138566 -0500,
,"[0, -0.2]",None,,,,,,,,,0.0,6.0,6.0,6.0,4165.036178700044,,,,,,,,,,,,,,,,,,,,,,,,,,,,,,,,,,,,,,,,,,,,,,,,,,,,,,,,,,,,,,,,,4165.02154700004,4165.036178700044,4165.036178700044,4165.536275799968,4165.536275799968,4168.036236500018,4168.036236500018,4168.020679899957,None,1.0,,,,,,,nback4,1.0,2023-12-07_16h19.18.069,untitled,2023.2.3,59.83362663259776,2023-12-07 16h19.36.138566 -0500,
,"[0.64, -0.4]",None,,,,,,,,,0.0,7.0,7.0,7.0,4168.036236500018,,,,,,,,,,,,,,,,,,,,,,,,,,,,,,,,,,,,,,,,,,,,,,,,,,,,,,,,,,,,,,,,,4168.021679800004,4168.036236500018,4168.036236500018,4168.536072100047,4168.536072100047,4171.035972099984,4171.035972099984,4171.020060200011,None,1.0,,,,,,,nback4,1.0,2023-12-07_16h19.18.069,untitled,2023.2.3,59.83362663259776,2023-12-07 16h19.36.138566 -0500,
,"[0.3, 0]",None,,,,,,,,,0.0,8.0,8.0,8.0,4171.035972099984,,,,,,,,,,,,,,,,,,,,,,,,,,,,,,,,,,,,,,,,,,,,,,,,,,,,,,,,,,,,,,,,,4171.020718500018,4171.035972099984,4171.035972099984,4171.536176000023,4171.536176000023,4174.035992000019,4174.035992000019,4174.020408599987,None,1.0,,,,,,,nback4,1.0,2023-12-07_16h19.18.069,untitled,2023.2.3,59.83362663259776,2023-12-07 16h19.36.138566 -0500,
,"[0.64, -0.4]",space,,,,,,,,,0.0,9.0,9.0,9.0,4174.035992000019,,,,,,,,,,,,,,,,,,,,,,,,,,,,,,,,,,,,,,,,,,,,,,,,,,,,,,,,,,,,,,,,,4174.021190900006,4174.035992000019,4174.035992000019,4174.536009000032,4174.536009000032,4177.036018199986,4177.036018199986,4177.020268499968,space,1.0,0.9363947999663652,None,,,,,nback4,1.0,2023-12-07_16h19.18.069,untitled,2023.2.3,59.83362663259776,2023-12-07 16h19.36.138566 -0500,
,"[-0.64, 0.4]",None,,,,,,,,,0.0,10.0,10.0,10.0,4177.036018199986,,,,,,,,,,,,,,,,,,,,,,,,,,,,,,,,,,,,,,,,,,,,,,,,,,,,,,,,,,,,,,,,,4177.021167999948,4177.036018199986,4177.036018199986,4177.535954499967,4177.535954499967,4180.035688200034,4180.035688200034,4180.01915399998,None,1.0,,,,,,,nback4,1.0,2023-12-07_16h19.18.069,untitled,2023.2.3,59.83362663259776,2023-12-07 16h19.36.138566 -0500,
,"[0.2, 0.1]",None,,,,,,,,,0.0,11.0,11.0,11.0,4180.035688200034,,,,,,,,,,,,,,,,,,,,,,,,,,,,,,,,,,,,,,,,,,,,,,,,,,,,,,,,,,,,,,,,,4180.019489999977,4180.035688200034,4180.035688200034,4180.5356195999775,4180.5356195999775,4183.035653900006,4183.035653900006,4183.019273099955,None,1.0,,,,,,,nback4,1.0,2023-12-07_16h19.18.069,untitled,2023.2.3,59.83362663259776,2023-12-07 16h19.36.138566 -0500,
,"[0.3, 0]",None,,,,,,,,,0.0,12.0,12.0,12.0,4183.035653900006,,,,,,,,,,,,,,,,,,,,,,,,,,,,,,,,,,,,,,,,,,,,,,,,,,,,,,,,,,,,,,,,,4183.0196090999525,4183.035653900006,4183.035653900006,4183.535601699958,4183.535601699958,4186.035556899966,4186.035556899966,4186.019375600037,None,1.0,,,,,,,nback4,1.0,2023-12-07_16h19.18.069,untitled,2023.2.3,59.83362663259776,2023-12-07 16h19.36.138566 -0500,
,"[0.2, 0.1]",space,,,,,,,,,0.0,13.0,13.0,13.0,4186.035556899966,,,,,,,,,,,,,,,,,,,,,,,,,,,,,,,,,,,,,,,,,,,,,,,,,,,,,,,,,,,,,,,,,4186.019773200038,4186.035556899966,4186.035556899966,4186.535568100051,4186.535568100051,4189.035638700007,4189.035638700007,4189.019162400044,space,1.0,1.0870589999249205,None,,,,,nback4,1.0,2023-12-07_16h19.18.069,untitled,2023.2.3,59.83362663259776,2023-12-07 16h19.36.138566 -0500,
,"[-0.3, 0]",None,,,,,,,,,0.0,14.0,14.0,14.0,4189.035638700007,,,,,,,,,,,,,,,,,,,,,,,,,,,,,,,,,,,,,,,,,,,,,,,,,,,,,,,,,,,,,,,,,4189.019592699944,4189.035638700007,4189.035638700007,4189.535559099983,4189.535559099983,4192.035489100032,4192.035489100032,4192.019207600039,None,1.0,,,,,,,nback4,1.0,2023-12-07_16h19.18.069,untitled,2023.2.3,59.83362663259776,2023-12-07 16h19.36.138566 -0500,
,"[0, 0.2]",None,,,,,,,,,0.0,15.0,15.0,15.0,4192.035489100032,,,,,,,,,,,,,,,,,,,,,,,,,,,,,,,,,,,,,,,,,,,,,,,,,,,,,,,,,,,,,,,,,4192.019545100047,4192.035489100032,4192.035489100032,4192.53556800005,4192.53556800005,4195.035407899995,4195.035407899995,4195.01908150001,None,1.0,,,,,,,nback4,1.0,2023-12-07_16h19.18.069,untitled,2023.2.3,59.83362663259776,2023-12-07 16h19.36.138566 -0500,
,"[-0.3, 0]",space,,,,,,,,,0.0,16.0,16.0,16.0,4195.035407899995,,,,,,,,,,,,,,,,,,,,,,,,,,,,,,,,,,,,,,,,,,,,,,,,,,,,,,,,,,,,,,,,,4195.019470299943,4195.035407899995,4195.035407899995,4195.535449699964,4195.535449699964,4198.035595600028,4198.035595600028,4198.019802200026,space,1.0,0.8843474999302998,None,,,,,nback4,1.0,2023-12-07_16h19.18.069,untitled,2023.2.3,59.83362663259776,2023-12-07 16h19.36.138566 -0500,
,"[-0.64, -0.4]",None,,,,,,,,,0.0,17.0,17.0,17.0,4198.035595600028,,,,,,,,,,,,,,,,,,,,,,,,,,,,,,,,,,,,,,,,,,,,,,,,,,,,,,,,,,,,,,,,,4198.0207175000105,4198.035595600028,4198.035595600028,4198.535783899948,4198.535783899948,4201.035507100052,4201.035507100052,4201.019540600013,None,1.0,,,,,,,nback4,1.0,2023-12-07_16h19.18.069,untitled,2023.2.3,59.83362663259776,2023-12-07 16h19.36.138566 -0500,
,"[-0.2, -0.1]",None,,,,,,,,,0.0,18.0,18.0,18.0,4201.035507100052,,,,,,,,,,,,,,,,,,,,,,,,,,,,,,,,,,,,,,,,,,,,,,,,,,,,,,,,,,,,,,,,,4201.0201653999975,4201.035507100052,4201.035507100052,4201.535441000015,4201.535441000015,4204.035462599946,4204.035462599946,4204.019601500011,None,1.0,,,,,,,nback4,1.0,2023-12-07_16h19.18.069,untitled,2023.2.3,59.83362663259776,2023-12-07 16h19.36.138566 -0500,
,"[0.2, -0.1]",None,,,,,,,,,0.0,19.0,19.0,19.0,4204.035462599946,,,,,,,,,,,,,,,,,,,,,,,,,,,,,,,,,,,,,,,,,,,,,,,,,,,,,,,,,,,,,,,,,4204.020335600013,4204.035462599946,4204.035462599946,4204.535482099978,4204.535482099978,4207.035384600051,4207.035384600051,4207.01988399995,None,1.0,,,,,,,nback4,1.0,2023-12-07_16h19.18.069,untitled,2023.2.3,59.83362663259776,2023-12-07 16h19.36.138566 -0500,
,"[0.2, -0.1]",None,,,,,,,,,0.0,20.0,20.0,20.0,4207.035384600051,,,,,,,,,,,,,,,,,,,,,,,,,,,,,,,,,,,,,,,,,,,,,,,,,,,,,,,,,,,,,,,,,4207.020746800001,4207.035384600051,4207.035384600051,4207.535429600044,4207.535429600044,4210.0353486000095,4210.0353486000095,4210.019158600015,None,1.0,,,,,,,nback4,1.0,2023-12-07_16h19.18.069,untitled,2023.2.3,59.83362663259776,2023-12-07 16h19.36.138566 -0500,
,"[-0.64, 0.4]",None,,,,,,,,,0.0,21.0,21.0,21.0,4210.0353486000095,,,,,,,,,,,,,,,,,,,,,,,,,,,,,,,,,,,,,,,,,,,,,,,,,,,,,,,,,,,,,,,,,4210.019738700008,4210.0353486000095,4210.0353486000095,4210.535229500034,4210.535229500034,4213.035363700008,4213.035363700008,4213.019248900004,None,1.0,,,,,,,nback4,1.0,2023-12-07_16h19.18.069,untitled,2023.2.3,59.83362663259776,2023-12-07 16h19.36.138566 -0500,
,"[0, 0.2]",None,,,,,,,,,0.0,22.0,22.0,22.0,4213.035363700008,,,,,,,,,,,,,,,,,,,,,,,,,,,,,,,,,,,,,,,,,,,,,,,,,,,,,,,,,,,,,,,,,4213.019821000053,4213.035363700008,4213.035363700008,4213.535338200047,4213.535338200047,4216.0353988000425,4216.0353988000425,4216.019515200052,None,1.0,,,,,,,nback4,1.0,2023-12-07_16h19.18.069,untitled,2023.2.3,59.83362663259776,2023-12-07 16h19.36.138566 -0500,
,"[0.64, -0.4]",None,,,,,,,,,0.0,23.0,23.0,23.0,4216.0353988000425,,,,,,,,,,,,,,,,,,,,,,,,,,,,,,,,,,,,,,,,,,,,,,,,,,,,,,,,,,,,,,,,,4216.020199100021,4216.0353988000425,4216.0353988000425,4216.535358999972,4216.535358999972,4219.035256500007,4219.035256500007,4219.019053300028,None,1.0,,,,,,,nback4,1.0,2023-12-07_16h19.18.069,untitled,2023.2.3,59.83362663259776,2023-12-07 16h19.36.138566 -0500,
,"[0, 0.2]",space,,,,,,,,,0.0,24.0,24.0,24.0,4219.035256500007,,,,,,,,,,,,,,,,,,,,,,,,,,,,,,,,,,,,,,,,,,,,,,,,,,,,,,,,,,,,,,,,,4219.019467800041,4219.035256500007,4219.035256500007,4219.535199600039,4219.535199600039,4222.035222099978,4222.035222099978,4222.019286599942,space,1.0,0.8432339000282809,None,,,,,nback4,1.0,2023-12-07_16h19.18.069,untitled,2023.2.3,59.83362663259776,2023-12-07 16h19.36.138566 -0500,
,"[-0.2, 0.1]",None,,,,,,,,,0.0,25.0,25.0,25.0,4222.035222099978,,,,,,,,,,,,,,,,,,,,,,,,,,,,,,,,,,,,,,,,,,,,,,,,,,,,,,,,,,,,,,,,,4222.020093900035,4222.035222099978,4222.035222099978,4222.535201800056,4222.535201800056,4225.035236899974,4225.035236899974,4225.01922310004,None,1.0,,,,,,,nback4,1.0,2023-12-07_16h19.18.069,untitled,2023.2.3,59.83362663259776,2023-12-07 16h19.36.138566 -0500,
,"[0.3, 0]",None,,,,,,,,,0.0,26.0,26.0,26.0,4225.035236899974,,,,,,,,,,,,,,,,,,,,,,,,,,,,,,,,,,,,,,,,,,,,,,,,,,,,,,,,,,,,,,,,,4225.019872699981,4225.035236899974,4225.035236899974,4225.5351781999925,4225.5351781999925,4228.035136600025,4228.035136600025,4228.019551699981,None,1.0,,,,,,,nback4,1.0,2023-12-07_16h19.18.069,untitled,2023.2.3,59.83362663259776,2023-12-07 16h19.36.138566 -0500,
,"[-0.2, 0.1]",space,,,,,,,,,0.0,27.0,27.0,27.0,4228.035136600025,,,,,,,,,,,,,,,,,,,,,,,,,,,,,,,,,,,,,,,,,,,,,,,,,,,,,,,,,,,,,,,,,4228.0203047000105,4228.035136600025,4228.035136600025,4228.535099099972,4228.535099099972,4231.035055299988,4231.035055299988,4231.018861199962,space,1.0,0.6892291000112891,None,,,,,nback4,1.0,2023-12-07_16h19.18.069,untitled,2023.2.3,59.83362663259776,2023-12-07 16h19.36.138566 -0500,
,"[-0.2, 0.1]",None,,,,,,,,,0.0,28.0,28.0,28.0,4231.035055299988,,,,,,,,,,,,,,,,,,,,,,,,,,,,,,,,,,,,,,,,,,,,,,,,,,,,,,,,,,,,,,,,,4231.019490899984,4231.035055299988,4231.035055299988,4231.535077300039,4231.535077300039,4234.034988599946,4234.034988599946,4234.019157600007,None,1.0,,,,,,,nback4,1.0,2023-12-07_16h19.18.069,untitled,2023.2.3,59.83362663259776,2023-12-07 16h19.36.138566 -0500,
,"[0.2, 0.1]",None,,,,,,,,,0.0,29.0,29.0,29.0,4234.034988599946,,,,,,,,,,,,,,,,,,,,,,,,,,,,,,,,,,,,,,,,,,,,,,,,,,,,,,,,,,,,,,,,,4234.019831900019,4234.034988599946,4234.034988599946,4234.535068799974,4234.535068799974,4237.034868999966,4237.034868999966,4237.019294199999,space,0.0,1.5788971000583842,None,,,,,nback4,1.0,2023-12-07_16h19.18.069,untitled,2023.2.3,59.83362663259776,2023-12-07 16h19.36.138566 -0500,
,"[-0.64, -0.4]",None,,,,,,,,,0.0,30.0,30.0,30.0,4237.034868999966,,,,,,,,,,,,,,,,,,,,,,,,,,,,,,,,,,,,,,,,,,,,,,,,,,,,,,,,,,,,,,,,,4237.020089600002,4237.034868999966,4237.034868999966,4237.534942899947,4237.534942899947,4240.034990199958,4240.034990199958,4240.018958300003,None,1.0,,,,,,,nback4,1.0,2023-12-07_16h19.18.069,untitled,2023.2.3,59.83362663259776,2023-12-07 16h19.36.138566 -0500,
,"[0, -0.2]",None,,,,,,,,,0.0,31.0,31.0,31.0,4240.034990199958,,,,,,,,,,,,,,,,,,,,,,,,,,,,,,,,,,,,,,,,,,,,,,,,,,,,,,,,,,,,,,,,,4240.019591400051,4240.034990199958,4240.034990199958,4240.534973499947,4240.534973499947,4243.034998700023,4243.034998700023,4243.019297800027,None,1.0,,,,,,,nback4,1.0,2023-12-07_16h19.18.069,untitled,2023.2.3,59.83362663259776,2023-12-07 16h19.36.138566 -0500,
,"[-0.64, -0.4]",space,,,,,,,,,0.0,32.0,32.0,32.0,4243.034998700023,,,,,,,,,,,,,,,,,,,,,,,,,,,,,,,,,,,,,,,,,,,,,,,,,,,,,,,,,,,,,,,,,4243.020140300039,4243.034998700023,4243.034998700023,4243.534943099949,4243.534943099949,4246.034790899954,4246.034790899954,4246.019183899974,space,1.0,0.6411365999374539,None,,,,,nback4,1.0,2023-12-07_16h19.18.069,untitled,2023.2.3,59.83362663259776,2023-12-07 16h19.36.138566 -0500,
,"[0.64, 0.4]",None,,,,,,,,,0.0,33.0,33.0,33.0,4246.034790899954,,,,,,,,,,,,,,,,,,,,,,,,,,,,,,,,,,,,,,,,,,,,,,,,,,,,,,,,,,,,,,,,,4246.020088399993,4246.034790899954,4246.034790899954,4246.534703399986,4246.534703399986,4249.034762299969,4249.034762299969,4249.019057999947,None,1.0,,,,,,,nback4,1.0,2023-12-07_16h19.18.069,untitled,2023.2.3,59.83362663259776,2023-12-07 16h19.36.138566 -0500,
,"[-0.3, 0]",None,,,,,,,,,0.0,34.0,34.0,34.0,4249.034762299969,,,,,,,,,,,,,,,,,,,,,,,,,,,,,,,,,,,,,,,,,,,,,,,,,,,,,,,,,,,,,,,,,4249.019661600003,4249.034762299969,4249.034762299969,4249.534680000041,4249.534680000041,4252.034887199989,4252.034887199989,4252.019058499951,None,1.0,,,,,,,nback4,1.0,2023-12-07_16h19.18.069,untitled,2023.2.3,59.83362663259776,2023-12-07 16h19.36.138566 -0500,
,"[0.3, 0]",None,,,,,,,,,0.0,35.0,35.0,35.0,4252.034887199989,,,,,,,,,,,,,,,,,,,,,,,,,,,,,,,,,,,,,,,,,,,,,,,,,,,,,,,,,,,,,,,,,4252.019787200028,4252.034887199989,4252.034887199989,4252.534744299948,4252.534744299948,4255.034633000032,4255.034633000032,4255.018796900054,None,1.0,,,,,,,nback4,1.0,2023-12-07_16h19.18.069,untitled,2023.2.3,59.83362663259776,2023-12-07 16h19.36.138566 -0500,
,"[-0.3, 0]",space,,,,,,,,,0.0,36.0,36.0,36.0,4255.034633000032,,,,,,,,,,,,,,,,,,,,,,,,,,,,,,,,,,,,,,,,,,,,,,,,,,,,,,,,,,,,,,,,,4255.019385299995,4255.034633000032,4255.034633000032,4255.534606799949,4255.534606799949,4258.034601300024,4258.034601300024,4258.018457900034,space,1.0,0.4810982999624684,None,,,,,nback4,1.0,2023-12-07_16h19.18.069,untitled,2023.2.3,59.83362663259776,2023-12-07 16h19.36.138566 -0500,
,"[0, -0.2]",None,,,,,,,,,0.0,37.0,37.0,37.0,4258.034601300024,,,,,,,,,,,,,,,,,,,,,,,,,,,,,,,,,,,,,,,,,,,,,,,,,,,,,,,,,,,,,,,,,4258.019158700015,4258.034601300024,4258.034601300024,4258.534649100038,4258.534649100038,4261.034598700004,4261.034598700004,4261.01877840003,None,1.0,,,,,,,nback4,1.0,2023-12-07_16h19.18.069,untitled,2023.2.3,59.83362663259776,2023-12-07 16h19.36.138566 -0500,
,"[0.3, 0]",None,,,,,,,,,0.0,38.0,38.0,38.0,4261.034598700004,,,,,,,,,,,,,,,,,,,,,,,,,,,,,,,,,,,,,,,,,,,,,,,,,,,,,,,,,,,,,,,,,4261.019459999981,4261.034598700004,4261.034598700004,4261.534454199951,4261.534454199951,4264.034649200039,4264.034649200039,4264.018738099956,None,1.0,,,,,,,nback4,1.0,2023-12-07_16h19.18.069,untitled,2023.2.3,59.83362663259776,2023-12-07 16h19.36.138566 -0500,
,"[0.2, 0.1]",None,,,,,,,,,0.0,39.0,39.0,39.0,4264.034649200039,,,,,,,,,,,,,,,,,,,,,,,,,,,,,,,,,,,,,,,,,,,,,,,,,,,,,,,,,,,,,,,,,4264.019460999989,4264.034649200039,4264.034649200039,4264.534379599965,4264.534379599965,4267.034400500008,4267.034400500008,4267.018392500002,None,1.0,,,,,,,nback4,1.0,2023-12-07_16h19.18.069,untitled,2023.2.3,59.83362663259776,2023-12-07 16h19.36.138566 -0500,
,,,,,,,,,,,,,,,,,,,,,,,,,,,,,,,,,,,,,,,,,,,,,,,,,,,,,,,,,,,,,,,,,,,,,,,,,,,,,,,,,,,,,,,,,,,,4267.018812000053,4267.034400500008,4270.034341900027,4270.018333400018,,,,,,,,
