square,location,corrAns,trials_0.thisRepN,trials_0.thisTrialN,trials_0.thisN,trials_0.thisIndex,trials_1.thisRepN,trials_1.thisTrialN,trials_1.thisN,trials_1.thisIndex,trials_2.thisRepN,trials_2.thisTrialN,trials_2.thisN,trials_2.thisIndex,thisRow.t,notes,Instructions.started,instructions.started,key_resp.started,inst_sq11.started,Instructions.stopped,key_resp.keys,key_resp.rt,key_resp.duration,All.started,sq_1.started,sq_2.started,sq_3.started,sq_4.started,sq_5.started,sq_6.started,sq_7.started,sq_8.started,sq_9.started,sq_10.started,sq_11.started,sq_12.started,All.stopped,Fixation.started,fixation_3.started,fixation_3.stopped,Fixation.stopped,N_back_0_Trial.started,target_square_0.started,response_0.started,fixation_0.started,target_square_0.stopped,fixation_0.stopped,N_back_0_Trial.stopped,response_0.keys,response_0.corr,response_0.rt,response_0.duration,Instructions_1.started,instructions_1.started,key_resp_1.started,Instructions_1.stopped,key_resp_1.keys,key_resp_1.rt,key_resp_1.duration,N_back_1_Trial.started,target_square_1.started,response_1.started,fixation_1.started,target_square_1.stopped,fixation_1.stopped,N_back_1_Trial.stopped,response_1.keys,response_1.corr,response_1.rt,response_1.duration,Instructions_2.started,instructions_2.started,key_resp_2.started,Instructions_2.stopped,key_resp_2.keys,key_resp_2.rt,key_resp_2.duration,N_back_2_trials.started,target_square_2.started,response_2.started,target_square_2.stopped,fixation_2.started,fixation_2.stopped,N_back_2_trials.stopped,response_2.keys,response_2.corr,response_2.rt,response_2.duration,End.started,thank_you.started,End.stopped,participant,session,date,expName,psychopyVersion,frameRate,expStart,Unnamed: 100
,,,,,,,,,,,,,,,,,0.1277374000055715,0.1310542999999597,0.1310542999999597,0.1310542999999597,17.18753029999789,space,17.046592700004112,None,,,,,,,,,,,,,,,,,,,,,,,,,,,,,,,,,,,,,,,,,,,,,,,,,,,,,,,,,,,,,,,,,,,,,nback40,1.0,2023-12-19_15h42.22.659,untitled,2023.2.3,60.16430872452993,2023-12-19 16h43.33.212400 -0500,
6.0,"[-0.3, 0]",None,0.0,0.0,0.0,0.0,,,,,,,,,19.19081639999058,,,,,,,,,,17.187549700029194,17.203506599995308,17.203506599995308,17.203506599995308,17.203506599995308,17.203506599995308,17.203506599995308,17.203506599995308,17.203506599995308,17.203506599995308,17.203506599995308,17.203506599995308,17.203506599995308,18.17053240002133,18.170545400003903,18.186849499994423,19.19081639999058,19.17072559997905,19.188888099975884,19.19081639999058,19.19081639999058,19.67016390000936,19.70356729999185,22.170209200005047,22.18682740000077,None,1.0,,,,,,,,,,,,,,,,,,,,,,,,,,,,,,,,,,,,,,,,,,nback40,1.0,2023-12-19_15h42.22.659,untitled,2023.2.3,60.16430872452993,2023-12-19 16h43.33.212400 -0500,
10.0,"[0, -0.2]",None,0.0,1.0,1.0,1.0,,,,,,,,,22.203421899990644,,,,,,,,,,,,,,,,,,,,,,,,,,,,22.18731880001724,22.203421899990644,22.203421899990644,22.670172600017395,22.70340050000232,25.1698722000001,25.186619899992365,None,1.0,,,,,,,,,,,,,,,,,,,,,,,,,,,,,,,,,,,,,,,,,,nback40,1.0,2023-12-19_15h42.22.659,untitled,2023.2.3,60.16430872452993,2023-12-19 16h43.33.212400 -0500,
11.0,"[-0.64, -0.4]",space,0.0,2.0,2.0,2.0,,,,,,,,,25.203255800006445,,,,,,,,,,,,,,,,,,,,,,,,,,,,25.18701890000375,25.203255800006445,25.203255800006445,25.66988320002565,25.703266500029716,28.170109800004862,28.18674390000524,space,1.0,0.5636187000200152,None,,,,,,,,,,,,,,,,,,,,,,,,,,,,,,,,,,,,,,,,nback40,1.0,2023-12-19_15h42.22.659,untitled,2023.2.3,60.16430872452993,2023-12-19 16h43.33.212400 -0500,
12.0,"[0.64, -0.4]",None,0.0,3.0,3.0,3.0,,,,,,,,,28.203425500018056,,,,,,,,,,,,,,,,,,,,,,,,,,,,28.187406499986537,28.203425500018056,28.203425500018056,28.67004850000376,28.70340759999817,31.17002969997702,31.18659190001199,None,1.0,,,,,,,,,,,,,,,,,,,,,,,,,,,,,,,,,,,,,,,,,,nback40,1.0,2023-12-19_15h42.22.659,untitled,2023.2.3,60.16430872452993,2023-12-19 16h43.33.212400 -0500,
1.0,"[-0.64, 0.4]",None,0.0,4.0,4.0,4.0,,,,,,,,,31.203311200020835,,,,,,,,,,,,,,,,,,,,,,,,,,,,31.18693159997929,31.203311200020835,31.203311200020835,31.6697431000066,31.70318730000872,34.169956300000194,34.18654820002848,None,1.0,,,,,,,,,,,,,,,,,,,,,,,,,,,,,,,,,,,,,,,,,,nback40,1.0,2023-12-19_15h42.22.659,untitled,2023.2.3,60.16430872452993,2023-12-19 16h43.33.212400 -0500,
1.0,"[-0.64, 0.4]",None,0.0,5.0,5.0,5.0,,,,,,,,,34.20307569997385,,,,,,,,,,,,,,,,,,,,,,,,,,,,34.186879399989266,34.20307569997385,34.20307569997385,34.669865100004245,34.703093499992974,37.16977279999992,37.18664119997993,None,1.0,,,,,,,,,,,,,,,,,,,,,,,,,,,,,,,,,,,,,,,,,,nback40,1.0,2023-12-19_15h42.22.659,untitled,2023.2.3,60.16430872452993,2023-12-19 16h43.33.212400 -0500,
4.0,"[-0.2, 0.1]",None,0.0,6.0,6.0,6.0,,,,,,,,,37.20313989999704,,,,,,,,,,,,,,,,,,,,,,,,,,,,37.187268699985,37.20313989999704,37.20313989999704,37.66974919999484,37.70305120002013,40.1697193,40.18652920000022,None,1.0,,,,,,,,,,,,,,,,,,,,,,,,,,,,,,,,,,,,,,,,,,nback40,1.0,2023-12-19_15h42.22.659,untitled,2023.2.3,60.16430872452993,2023-12-19 16h43.33.212400 -0500,
5.0,"[0.2, 0.1]",None,0.0,7.0,7.0,7.0,,,,,,,,,40.20305980002741,,,,,,,,,,,,,,,,,,,,,,,,,,,,40.18708160001552,40.20305980002741,40.20305980002741,40.66977869998664,40.7029386999784,43.16966479999246,43.18636270001298,None,1.0,,,,,,,,,,,,,,,,,,,,,,,,,,,,,,,,,,,,,,,,,,nback40,1.0,2023-12-19_15h42.22.659,untitled,2023.2.3,60.16430872452993,2023-12-19 16h43.33.212400 -0500,
11.0,"[-0.64, -0.4]",space,0.0,8.0,8.0,8.0,,,,,,,,,43.20304260001285,,,,,,,,,,,,,,,,,,,,,,,,,,,,43.18671239999821,43.20304260001285,43.20304260001285,43.66964330000337,43.70308220002335,46.16958909999812,46.18644680001307,space,1.0,0.483746699988842,None,,,,,,,,,,,,,,,,,,,,,,,,,,,,,,,,,,,,,,,,nback40,1.0,2023-12-19_15h42.22.659,untitled,2023.2.3,60.16430872452993,2023-12-19 16h43.33.212400 -0500,
9.0,"[0.2, -0.1]",None,0.0,9.0,9.0,9.0,,,,,,,,,46.20292920002248,,,,,,,,,,,,,,,,,,,,,,,,,,,,46.18684660003055,46.20292920002248,46.20292920002248,46.6697136000148,46.703069299983326,49.16969369997969,49.18650220002746,None,1.0,,,,,,,,,,,,,,,,,,,,,,,,,,,,,,,,,,,,,,,,,,nback40,1.0,2023-12-19_15h42.22.659,untitled,2023.2.3,60.16430872452993,2023-12-19 16h43.33.212400 -0500,
8.0,"[-0.2, -0.1]",None,0.0,10.0,10.0,10.0,,,,,,,,,49.20303929998772,,,,,,,,,,,,,,,,,,,,,,,,,,,,49.186917199986055,49.20303929998772,49.20303929998772,49.68617770000128,49.7028478999855,52.18620599998394,52.18634299997939,None,1.0,,,,,,,,,,,,,,,,,,,,,,,,,,,,,,,,,,,,,,,,,,nback40,1.0,2023-12-19_15h42.22.659,untitled,2023.2.3,60.16430872452993,2023-12-19 16h43.33.212400 -0500,
9.0,"[0.2, -0.1]",None,0.0,11.0,11.0,11.0,,,,,,,,,52.20286530000158,,,,,,,,,,,,,,,,,,,,,,,,,,,,52.18670199997723,52.20286530000158,52.20286530000158,52.669587399985176,52.7029602000257,55.16934329998912,55.18597910000244,None,1.0,,,,,,,,,,,,,,,,,,,,,,,,,,,,,,,,,,,,,,,,,,nback40,1.0,2023-12-19_15h42.22.659,untitled,2023.2.3,60.16430872452993,2023-12-19 16h43.33.212400 -0500,
6.0,"[-0.3, 0]",None,0.0,12.0,12.0,12.0,,,,,,,,,55.202919200004544,,,,,,,,,,,,,,,,,,,,,,,,,,,,55.18646830000216,55.202919200004544,55.202919200004544,55.66952840000158,55.70298210001784,58.16942370001925,58.18639400001848,None,1.0,,,,,,,,,,,,,,,,,,,,,,,,,,,,,,,,,,,,,,,,,,nback40,1.0,2023-12-19_15h42.22.659,untitled,2023.2.3,60.16430872452993,2023-12-19 16h43.33.212400 -0500,
9.0,"[0.2, -0.1]",None,0.0,13.0,13.0,13.0,,,,,,,,,58.20275539997965,,,,,,,,,,,,,,,,,,,,,,,,,,,,58.18688579997979,58.20275539997965,58.20275539997965,58.68616540002404,58.70291210000869,61.18616520002252,61.18631189997541,None,1.0,,,,,,,,,,,,,,,,,,,,,,,,,,,,,,,,,,,,,,,,,,nback40,1.0,2023-12-19_15h42.22.659,untitled,2023.2.3,60.16430872452993,2023-12-19 16h43.33.212400 -0500,
7.0,"[0.3, 0]",None,0.0,14.0,14.0,14.0,,,,,,,,,61.202834800002165,,,,,,,,,,,,,,,,,,,,,,,,,,,,61.18704119999893,61.202834800002165,61.202834800002165,61.68607910000719,61.70274400000926,64.18609779997496,64.18624469998758,None,1.0,,,,,,,,,,,,,,,,,,,,,,,,,,,,,,,,,,,,,,,,,,nback40,1.0,2023-12-19_15h42.22.659,untitled,2023.2.3,60.16430872452993,2023-12-19 16h43.33.212400 -0500,
2.0,"[0.64, 0.4]",None,0.0,15.0,15.0,15.0,,,,,,,,,64.20275240001502,,,,,,,,,,,,,,,,,,,,,,,,,,,,64.18697550002253,64.20275240001502,64.20275240001502,64.68607549997978,64.70278549997602,67.18600589997368,67.18615959997987,None,1.0,,,,,,,,,,,,,,,,,,,,,,,,,,,,,,,,,,,,,,,,,,nback40,1.0,2023-12-19_15h42.22.659,untitled,2023.2.3,60.16430872452993,2023-12-19 16h43.33.212400 -0500,
2.0,"[0.64, 0.4]",None,0.0,16.0,16.0,16.0,,,,,,,,,67.20279090001713,,,,,,,,,,,,,,,,,,,,,,,,,,,,67.18661660002545,67.20279090001713,67.20279090001713,67.68600139999762,67.70269589999225,70.18596360000083,70.18611150002107,None,1.0,,,,,,,,,,,,,,,,,,,,,,,,,,,,,,,,,,,,,,,,,,nback40,1.0,2023-12-19_15h42.22.659,untitled,2023.2.3,60.16430872452993,2023-12-19 16h43.33.212400 -0500,
11.0,"[-0.64, -0.4]",space,0.0,17.0,17.0,17.0,,,,,,,,,70.20258520002244,,,,,,,,,,,,,,,,,,,,,,,,,,,,70.18641939997906,70.20258520002244,70.20258520002244,70.68603340000845,70.70253359997878,73.18570799997542,73.18577819998609,space,1.0,0.4445656000170856,None,,,,,,,,,,,,,,,,,,,,,,,,,,,,,,,,,,,,,,,,nback40,1.0,2023-12-19_15h42.22.659,untitled,2023.2.3,60.16430872452993,2023-12-19 16h43.33.212400 -0500,
11.0,"[-0.64, -0.4]",space,0.0,18.0,18.0,18.0,,,,,,,,,73.20242769998731,,,,,,,,,,,,,,,,,,,,,,,,,,,,73.18617409997387,73.20242769998731,73.20242769998731,73.66925530001754,73.70249350002268,76.16904599999543,76.18586829997366,space,1.0,0.5629851999692619,None,,,,,,,,,,,,,,,,,,,,,,,,,,,,,,,,,,,,,,,,nback40,1.0,2023-12-19_15h42.22.659,untitled,2023.2.3,60.16430872452993,2023-12-19 16h43.33.212400 -0500,
7.0,"[0.3, 0]",None,0.0,19.0,19.0,19.0,,,,,,,,,76.20228829997359,,,,,,,,,,,,,,,,,,,,,,,,,,,,76.1862721000216,76.20228829997359,76.20228829997359,76.68577630002983,76.70260560000315,79.18576919997577,79.18589030002477,None,1.0,,,,,,,,,,,,,,,,,,,,,,,,,,,,,,,,,,,,,,,,,,nback40,1.0,2023-12-19_15h42.22.659,untitled,2023.2.3,60.16430872452993,2023-12-19 16h43.33.212400 -0500,
3.0,"[0, 0.2]",None,0.0,20.0,20.0,20.0,,,,,,,,,79.20248159999028,,,,,,,,,,,,,,,,,,,,,,,,,,,,79.1862968999776,79.20248159999028,79.20248159999028,79.68555549997836,79.70227489998797,82.1856139000156,82.1857681000256,None,1.0,,,,,,,,,,,,,,,,,,,,,,,,,,,,,,,,,,,,,,,,,,nback40,1.0,2023-12-19_15h42.22.659,untitled,2023.2.3,60.16430872452993,2023-12-19 16h43.33.212400 -0500,
10.0,"[0, -0.2]",None,0.0,21.0,21.0,21.0,,,,,,,,,82.20219679997535,,,,,,,,,,,,,,,,,,,,,,,,,,,,82.18610789999366,82.20219679997535,82.20219679997535,82.68566959997406,82.70218369999202,85.18572549999226,85.18587440002011,None,1.0,,,,,,,,,,,,,,,,,,,,,,,,,,,,,,,,,,,,,,,,,,nback40,1.0,2023-12-19_15h42.22.659,untitled,2023.2.3,60.16430872452993,2023-12-19 16h43.33.212400 -0500,
1.0,"[-0.64, 0.4]",None,0.0,22.0,22.0,22.0,,,,,,,,,85.2024381000083,,,,,,,,,,,,,,,,,,,,,,,,,,,,85.18621720001101,85.2024381000083,85.2024381000083,85.6856544999755,85.70233609998832,88.18576000002213,88.1858236999833,None,1.0,,,,,,,,,,,,,,,,,,,,,,,,,,,,,,,,,,,,,,,,,,nback40,1.0,2023-12-19_15h42.22.659,untitled,2023.2.3,60.16430872452993,2023-12-19 16h43.33.212400 -0500,
2.0,"[0.64, 0.4]",None,0.0,23.0,23.0,23.0,,,,,,,,,88.2021156999981,,,,,,,,,,,,,,,,,,,,,,,,,,,,88.18615129997488,88.2021156999981,88.2021156999981,88.68559649999952,88.70229669997934,91.18565409997244,91.18577719997847,None,1.0,,,,,,,,,,,,,,,,,,,,,,,,,,,,,,,,,,,,,,,,,,nback40,1.0,2023-12-19_15h42.22.659,untitled,2023.2.3,60.16430872452993,2023-12-19 16h43.33.212400 -0500,
6.0,"[-0.3, 0]",None,0.0,24.0,24.0,24.0,,,,,,,,,91.20220010000048,,,,,,,,,,,,,,,,,,,,,,,,,,,,91.18610300001455,91.20220010000048,91.20220010000048,91.68547560001024,91.70221930003028,94.18557989998952,94.18564989999868,None,1.0,,,,,,,,,,,,,,,,,,,,,,,,,,,,,,,,,,,,,,,,,,nback40,1.0,2023-12-19_15h42.22.659,untitled,2023.2.3,60.16430872452993,2023-12-19 16h43.33.212400 -0500,
3.0,"[0, 0.2]",None,0.0,25.0,25.0,25.0,,,,,,,,,94.2022614000016,,,,,,,,,,,,,,,,,,,,,,,,,,,,94.18598650000058,94.2022614000016,94.2022614000016,94.68531700002497,94.7022225999972,97.18540199997368,97.18548149999695,None,1.0,,,,,,,,,,,,,,,,,,,,,,,,,,,,,,,,,,,,,,,,,,nback40,1.0,2023-12-19_15h42.22.659,untitled,2023.2.3,60.16430872452993,2023-12-19 16h43.33.212400 -0500,
11.0,"[-0.64, -0.4]",space,0.0,26.0,26.0,26.0,,,,,,,,,97.2021516999812,,,,,,,,,,,,,,,,,,,,,,,,,,,,97.18581529997756,97.2021516999812,97.2021516999812,97.68530930002451,97.70191429997794,100.18544370000018,100.18550389999292,space,1.0,0.3858652000199072,None,,,,,,,,,,,,,,,,,,,,,,,,,,,,,,,,,,,,,,,,nback40,1.0,2023-12-19_15h42.22.659,untitled,2023.2.3,60.16430872452993,2023-12-19 16h43.33.212400 -0500,
1.0,"[-0.64, 0.4]",None,0.0,27.0,27.0,27.0,,,,,,,,,100.20208670001011,,,,,,,,,,,,,,,,,,,,,,,,,,,,100.18589700001758,100.20208670001011,100.20208670001011,100.68535350001184,100.7021433999762,103.18528929998864,103.18536780000431,None,1.0,,,,,,,,,,,,,,,,,,,,,,,,,,,,,,,,,,,,,,,,,,nback40,1.0,2023-12-19_15h42.22.659,untitled,2023.2.3,60.16430872452993,2023-12-19 16h43.33.212400 -0500,
3.0,"[0, 0.2]",None,0.0,28.0,28.0,28.0,,,,,,,,,103.20200230000772,,,,,,,,,,,,,,,,,,,,,,,,,,,,103.18569579999894,103.20200230000772,103.20200230000772,103.685392400017,103.70199580001643,106.18533569999272,106.18539609998696,None,1.0,,,,,,,,,,,,,,,,,,,,,,,,,,,,,,,,,,,,,,,,,,nback40,1.0,2023-12-19_15h42.22.659,untitled,2023.2.3,60.16430872452993,2023-12-19 16h43.33.212400 -0500,
9.0,"[0.2, -0.1]",None,0.0,29.0,29.0,29.0,,,,,,,,,106.20203589997254,,,,,,,,,,,,,,,,,,,,,,,,,,,,106.1857232999755,106.20203589997254,106.20203589997254,106.68533890001709,106.7018728000112,109.1853169000242,109.18538119998992,None,1.0,,,,,,,,,,,,,,,,,,,,,,,,,,,,,,,,,,,,,,,,,,nback40,1.0,2023-12-19_15h42.22.659,untitled,2023.2.3,60.16430872452993,2023-12-19 16h43.33.212400 -0500,
8.0,"[-0.2, -0.1]",None,0.0,30.0,30.0,30.0,,,,,,,,,109.20184059999885,,,,,,,,,,,,,,,,,,,,,,,,,,,,109.18582419998712,109.20184059999885,109.20184059999885,109.6853033999796,109.70192199997835,112.18523439997809,112.18538169999374,None,1.0,,,,,,,,,,,,,,,,,,,,,,,,,,,,,,,,,,,,,,,,,,nback40,1.0,2023-12-19_15h42.22.659,untitled,2023.2.3,60.16430872452993,2023-12-19 16h43.33.212400 -0500,
12.0,"[0.64, -0.4]",None,0.0,31.0,31.0,31.0,,,,,,,,,112.20186249999097,,,,,,,,,,,,,,,,,,,,,,,,,,,,112.18584140000166,112.20186249999097,112.20186249999097,112.68506940000223,112.70176289998926,115.18523860001004,115.18538729997816,None,1.0,,,,,,,,,,,,,,,,,,,,,,,,,,,,,,,,,,,,,,,,,,nback40,1.0,2023-12-19_15h42.22.659,untitled,2023.2.3,60.16430872452993,2023-12-19 16h43.33.212400 -0500,
9.0,"[0.2, -0.1]",None,0.0,32.0,32.0,32.0,,,,,,,,,115.20187079999596,,,,,,,,,,,,,,,,,,,,,,,,,,,,115.1861324000056,115.20187079999596,115.20187079999596,115.68521989998408,115.7018658000161,118.18495959998108,118.18509990000166,None,1.0,,,,,,,,,,,,,,,,,,,,,,,,,,,,,,,,,,,,,,,,,,nback40,1.0,2023-12-19_15h42.22.659,untitled,2023.2.3,60.16430872452993,2023-12-19 16h43.33.212400 -0500,
11.0,"[-0.64, -0.4]",space,0.0,33.0,33.0,33.0,,,,,,,,,118.20165679999629,,,,,,,,,,,,,,,,,,,,,,,,,,,,118.18563389999326,118.20165679999629,118.20165679999629,118.68507549999048,118.70175750000637,121.1850658999756,121.18521770002552,space,1.0,0.5314416000037454,None,,,,,,,,,,,,,,,,,,,,,,,,,,,,,,,,,,,,,,,,nback40,1.0,2023-12-19_15h42.22.659,untitled,2023.2.3,60.16430872452993,2023-12-19 16h43.33.212400 -0500,
7.0,"[0.3, 0]",None,0.0,34.0,34.0,34.0,,,,,,,,,121.201800299983,,,,,,,,,,,,,,,,,,,,,,,,,,,,121.1857866999926,121.201800299983,121.201800299983,121.68509629997423,121.70170600002166,124.18503390002296,124.18519699998431,None,1.0,,,,,,,,,,,,,,,,,,,,,,,,,,,,,,,,,,,,,,,,,,nback40,1.0,2023-12-19_15h42.22.659,untitled,2023.2.3,60.16430872452993,2023-12-19 16h43.33.212400 -0500,
11.0,"[-0.64, -0.4]",space,0.0,35.0,35.0,35.0,,,,,,,,,124.20168040000137,,,,,,,,,,,,,,,,,,,,,,,,,,,,124.18564300000436,124.20168040000137,124.20168040000137,124.68483270000434,124.7016042000032,127.18490669998572,127.18497130001197,space,1.0,0.4622018000227399,None,,,,,,,,,,,,,,,,,,,,,,,,,,,,,,,,,,,,,,,,nback40,1.0,2023-12-19_15h42.22.659,untitled,2023.2.3,60.16430872452993,2023-12-19 16h43.33.212400 -0500,
4.0,"[-0.2, 0.1]",None,0.0,36.0,36.0,36.0,,,,,,,,,127.20172379998256,,,,,,,,,,,,,,,,,,,,,,,,,,,,127.1855258999858,127.20172379998256,127.20172379998256,127.68500609998593,127.70166810002412,130.18488880002403,130.1850529999938,None,1.0,,,,,,,,,,,,,,,,,,,,,,,,,,,,,,,,,,,,,,,,,,nback40,1.0,2023-12-19_15h42.22.659,untitled,2023.2.3,60.16430872452993,2023-12-19 16h43.33.212400 -0500,
5.0,"[0.2, 0.1]",None,0.0,37.0,37.0,37.0,,,,,,,,,130.2016205000109,,,,,,,,,,,,,,,,,,,,,,,,,,,,130.18549290002557,130.2016205000109,130.2016205000109,130.68489169998793,130.70143030001782,133.18479179998394,133.18493129999842,None,1.0,,,,,,,,,,,,,,,,,,,,,,,,,,,,,,,,,,,,,,,,,,nback40,1.0,2023-12-19_15h42.22.659,untitled,2023.2.3,60.16430872452993,2023-12-19 16h43.33.212400 -0500,
6.0,"[-0.3, 0]",None,0.0,38.0,38.0,38.0,,,,,,,,,133.20143439999083,,,,,,,,,,,,,,,,,,,,,,,,,,,,133.18535039998824,133.20143439999083,133.20143439999083,133.68477360001998,133.70136319997255,136.18483600002946,136.18492079997668,None,1.0,,,,,,,,,,,,,,,,,,,,,,,,,,,,,,,,,,,,,,,,,,nback40,1.0,2023-12-19_15h42.22.659,untitled,2023.2.3,60.16430872452993,2023-12-19 16h43.33.212400 -0500,
11.0,"[-0.64, -0.4]",space,0.0,39.0,39.0,39.0,,,,,,,,,136.20150419999845,,,,,,,,,,,,,,,,,,,,,,,,,,,,136.18523170001572,136.20150419999845,136.20150419999845,136.68495580001036,136.701475400012,139.18468200002098,139.18475810001837,space,1.0,0.4240595999872312,None,,,,,,,,,,,,,,,,,,,,,,,,,,,,,,,,,,,,,,,,nback40,1.0,2023-12-19_15h42.22.659,untitled,2023.2.3,60.16430872452993,2023-12-19 16h43.33.212400 -0500,
,,,,,,,,,,,,,,,,,,,,,,,,,,,,,,,,,,,,,,,,,,,,,,,,,,,,,,139.18505440000445,139.20153570000548,139.20153570000548,166.7183697000146,space,27.503402700007427,None,,,,,,,,,,,,,,,,,,,,,,,,,,,,,,,,,nback40,1.0,2023-12-19_15h42.22.659,untitled,2023.2.3,60.16430872452993,2023-12-19 16h43.33.212400 -0500,
10.0,"[0, -0.2]",None,,,,,0.0,0.0,0.0,0.0,,,,,167.73619060002966,,,,,,,,,,,,,,,,,,,,,,,,166.71838889998617,166.73423120001098,167.73619060002966,167.7179508000263,,,,,,,,,,,,,,,,,,,167.73425899998983,167.73619060002966,167.73619060002966,168.21743690001313,168.2507854999858,170.71755950001534,170.73437790002208,None,1.0,,,,,,,,,,,,,,,,,,,,,,,,nback40,1.0,2023-12-19_15h42.22.659,untitled,2023.2.3,60.16430872452993,2023-12-19 16h43.33.212400 -0500,
5.0,"[0.2, 0.1]",None,,,,,0.0,1.0,1.0,1.0,,,,,170.75092219997896,,,,,,,,,,,,,,,,,,,,,,,,,,,,,,,,,,,,,,,,,,,,,,170.73498980002478,170.75092219997896,170.75092219997896,171.21733459999086,171.25071809999645,173.7175929999794,173.73431720002554,None,1.0,,,,,,,,,,,,,,,,,,,,,,,,nback40,1.0,2023-12-19_15h42.22.659,untitled,2023.2.3,60.16430872452993,2023-12-19 16h43.33.212400 -0500,
6.0,"[-0.3, 0]",None,,,,,0.0,2.0,2.0,2.0,,,,,173.7506986000226,,,,,,,,,,,,,,,,,,,,,,,,,,,,,,,,,,,,,,,,,,,,,,173.73466000001645,173.7506986000226,173.7506986000226,174.2177037000074,174.25066900003003,176.7175942999893,176.7343838000088,None,1.0,,,,,,,,,,,,,,,,,,,,,,,,nback40,1.0,2023-12-19_15h42.22.659,untitled,2023.2.3,60.16430872452993,2023-12-19 16h43.33.212400 -0500,
6.0,"[-0.3, 0]",space,,,,,0.0,3.0,3.0,3.0,,,,,176.750645800028,,,,,,,,,,,,,,,,,,,,,,,,,,,,,,,,,,,,,,,,,,,,,,176.7351574000204,176.750645800028,176.750645800028,177.21747329999926,177.25087510002777,179.7175842000288,179.7343358999933,space,1.0,0.3392283999710344,None,,,,,,,,,,,,,,,,,,,,,,nback40,1.0,2023-12-19_15h42.22.659,untitled,2023.2.3,60.16430872452993,2023-12-19 16h43.33.212400 -0500,
12.0,"[0.64, -0.4]",None,,,,,0.0,4.0,4.0,4.0,,,,,179.75080079998588,,,,,,,,,,,,,,,,,,,,,,,,,,,,,,,,,,,,,,,,,,,,,,179.73541630001273,179.75080079998588,179.75080079998588,180.2176055000164,180.25069529999743,182.7174364000093,182.7343390000169,None,1.0,,,,,,,,,,,,,,,,,,,,,,,,nback40,1.0,2023-12-19_15h42.22.659,untitled,2023.2.3,60.16430872452993,2023-12-19 16h43.33.212400 -0500,
10.0,"[0, -0.2]",None,,,,,0.0,5.0,5.0,5.0,,,,,182.7508837999776,,,,,,,,,,,,,,,,,,,,,,,,,,,,,,,,,,,,,,,,,,,,,,182.735135200026,182.7508837999776,182.7508837999776,183.21748320001643,183.25098980002804,185.7175236999756,185.73413370002527,None,1.0,,,,,,,,,,,,,,,,,,,,,,,,nback40,1.0,2023-12-19_15h42.22.659,untitled,2023.2.3,60.16430872452993,2023-12-19 16h43.33.212400 -0500,
2.0,"[0.64, 0.4]",None,,,,,0.0,6.0,6.0,6.0,,,,,185.75091310002608,,,,,,,,,,,,,,,,,,,,,,,,,,,,,,,,,,,,,,,,,,,,,,185.7349301999784,185.75091310002608,185.75091310002608,186.21740650001448,186.2507948999992,188.71736329997657,188.7341296999948,None,1.0,,,,,,,,,,,,,,,,,,,,,,,,nback40,1.0,2023-12-19_15h42.22.659,untitled,2023.2.3,60.16430872452993,2023-12-19 16h43.33.212400 -0500,
9.0,"[0.2, -0.1]",None,,,,,0.0,7.0,7.0,7.0,,,,,188.750616299978,,,,,,,,,,,,,,,,,,,,,,,,,,,,,,,,,,,,,,,,,,,,,,188.73482409998545,188.750616299978,188.750616299978,189.21737319999372,189.25066540000265,191.71729040000355,191.73411259998105,None,1.0,,,,,,,,,,,,,,,,,,,,,,,,nback40,1.0,2023-12-19_15h42.22.659,untitled,2023.2.3,60.16430872452993,2023-12-19 16h43.33.212400 -0500,
9.0,"[0.2, -0.1]",space,,,,,0.0,8.0,8.0,8.0,,,,,191.75062010000693,,,,,,,,,,,,,,,,,,,,,,,,,,,,,,,,,,,,,,,,,,,,,,191.73488280002493,191.75062010000693,191.75062010000693,192.23408269998615,192.250583200017,194.73401000001468,194.73419380001724,space,1.0,0.35945739998715,None,,,,,,,,,,,,,,,,,,,,,,nback40,1.0,2023-12-19_15h42.22.659,untitled,2023.2.3,60.16430872452993,2023-12-19 16h43.33.212400 -0500,
6.0,"[-0.3, 0]",None,,,,,0.0,9.0,9.0,9.0,,,,,194.75058220000935,,,,,,,,,,,,,,,,,,,,,,,,,,,,,,,,,,,,,,,,,,,,,,194.73512909997956,194.75058220000935,194.75058220000935,195.2338418000145,195.25045789999425,197.73380520002684,197.7340072999941,None,1.0,,,,,,,,,,,,,,,,,,,,,,,,nback40,1.0,2023-12-19_15h42.22.659,untitled,2023.2.3,60.16430872452993,2023-12-19 16h43.33.212400 -0500,
11.0,"[-0.64, -0.4]",None,,,,,0.0,10.0,10.0,10.0,,,,,197.75043820001883,,,,,,,,,,,,,,,,,,,,,,,,,,,,,,,,,,,,,,,,,,,,,,197.73488549998729,197.75043820001883,197.75043820001883,198.23384370002896,198.2505053000059,200.7339071999886,200.7341315000085,None,1.0,,,,,,,,,,,,,,,,,,,,,,,,nback40,1.0,2023-12-19_15h42.22.659,untitled,2023.2.3,60.16430872452993,2023-12-19 16h43.33.212400 -0500,
11.0,"[-0.64, -0.4]",space,,,,,0.0,11.0,11.0,11.0,,,,,200.75042100000428,,,,,,,,,,,,,,,,,,,,,,,,,,,,,,,,,,,,,,,,,,,,,,200.7349719000049,200.75042100000428,200.75042100000428,201.23379899997963,201.2503154000151,203.73369700001783,203.73387649998767,space,1.0,0.39244329999201,None,,,,,,,,,,,,,,,,,,,,,,nback40,1.0,2023-12-19_15h42.22.659,untitled,2023.2.3,60.16430872452993,2023-12-19 16h43.33.212400 -0500,
4.0,"[-0.2, 0.1]",None,,,,,0.0,12.0,12.0,12.0,,,,,203.75040349998744,,,,,,,,,,,,,,,,,,,,,,,,,,,,,,,,,,,,,,,,,,,,,,203.7347530000261,203.75040349998744,203.75040349998744,204.23365100001683,204.25030469999183,206.73375710000985,206.73395099997288,None,1.0,,,,,,,,,,,,,,,,,,,,,,,,nback40,1.0,2023-12-19_15h42.22.659,untitled,2023.2.3,60.16430872452993,2023-12-19 16h43.33.212400 -0500,
3.0,"[0, 0.2]",None,,,,,0.0,13.0,13.0,13.0,,,,,206.75033720000647,,,,,,,,,,,,,,,,,,,,,,,,,,,,,,,,,,,,,,,,,,,,,,206.7347257999936,206.75033720000647,206.75033720000647,207.2335070000263,207.25013780000157,209.73375180002768,209.7339429000276,None,1.0,,,,,,,,,,,,,,,,,,,,,,,,nback40,1.0,2023-12-19_15h42.22.659,untitled,2023.2.3,60.16430872452993,2023-12-19 16h43.33.212400 -0500,
3.0,"[0, 0.2]",space,,,,,0.0,14.0,14.0,14.0,,,,,209.7502824999974,,,,,,,,,,,,,,,,,,,,,,,,,,,,,,,,,,,,,,,,,,,,,,209.7346669000108,209.7502824999974,209.7502824999974,210.2337199000176,210.25035350001417,212.73371360002784,212.7338964000228,space,1.0,0.5065535000176169,None,,,,,,,,,,,,,,,,,,,,,,nback40,1.0,2023-12-19_15h42.22.659,untitled,2023.2.3,60.16430872452993,2023-12-19 16h43.33.212400 -0500,
8.0,"[-0.2, -0.1]",None,,,,,0.0,15.0,15.0,15.0,,,,,212.75028859998565,,,,,,,,,,,,,,,,,,,,,,,,,,,,,,,,,,,,,,,,,,,,,,212.7347627999843,212.75028859998565,212.75028859998565,213.2336115000071,213.2503754000063,215.7335569999996,215.73373999999603,None,1.0,,,,,,,,,,,,,,,,,,,,,,,,nback40,1.0,2023-12-19_15h42.22.659,untitled,2023.2.3,60.16430872452993,2023-12-19 16h43.33.212400 -0500,
1.0,"[-0.64, 0.4]",None,,,,,0.0,16.0,16.0,16.0,,,,,215.75028269999893,,,,,,,,,,,,,,,,,,,,,,,,,,,,,,,,,,,,,,,,,,,,,,215.7344547000248,215.75028269999893,215.75028269999893,216.23357669997492,216.25024169997775,218.73352339997652,218.73372600000584,None,1.0,,,,,,,,,,,,,,,,,,,,,,,,nback40,1.0,2023-12-19_15h42.22.659,untitled,2023.2.3,60.16430872452993,2023-12-19 16h43.33.212400 -0500,
2.0,"[0.64, 0.4]",None,,,,,0.0,17.0,17.0,17.0,,,,,218.750106099993,,,,,,,,,,,,,,,,,,,,,,,,,,,,,,,,,,,,,,,,,,,,,,218.73453449999212,218.750106099993,218.750106099993,219.23341049999,219.2500109000248,221.73333989997627,221.73352840001465,None,1.0,,,,,,,,,,,,,,,,,,,,,,,,nback40,1.0,2023-12-19_15h42.22.659,untitled,2023.2.3,60.16430872452993,2023-12-19 16h43.33.212400 -0500,
4.0,"[-0.2, 0.1]",None,,,,,0.0,18.0,18.0,18.0,,,,,221.75014030002055,,,,,,,,,,,,,,,,,,,,,,,,,,,,,,,,,,,,,,,,,,,,,,221.73426190001192,221.75014030002055,221.75014030002055,222.2333847000264,222.2502149000065,224.7334235999733,224.73362509999424,None,1.0,,,,,,,,,,,,,,,,,,,,,,,,nback40,1.0,2023-12-19_15h42.22.659,untitled,2023.2.3,60.16430872452993,2023-12-19 16h43.33.212400 -0500,
4.0,"[-0.2, 0.1]",space,,,,,0.0,19.0,19.0,19.0,,,,,224.75007700000424,,,,,,,,,,,,,,,,,,,,,,,,,,,,,,,,,,,,,,,,,,,,,,224.7344029999804,224.75007700000424,224.75007700000424,225.2335062000202,225.2498339000158,227.7332558999769,227.73343770002248,space,1.0,0.3795507000177167,None,,,,,,,,,,,,,,,,,,,,,,nback40,1.0,2023-12-19_15h42.22.659,untitled,2023.2.3,60.16430872452993,2023-12-19 16h43.33.212400 -0500,
8.0,"[-0.2, -0.1]",None,,,,,0.0,20.0,20.0,20.0,,,,,227.75009709998267,,,,,,,,,,,,,,,,,,,,,,,,,,,,,,,,,,,,,,,,,,,,,,227.7342604000005,227.75009709998267,227.75009709998267,228.2334058000124,228.2501318000141,230.73338809999404,230.7335692999768,None,1.0,,,,,,,,,,,,,,,,,,,,,,,,nback40,1.0,2023-12-19_15h42.22.659,untitled,2023.2.3,60.16430872452993,2023-12-19 16h43.33.212400 -0500,
5.0,"[0.2, 0.1]",None,,,,,0.0,21.0,21.0,21.0,,,,,230.74997379997512,,,,,,,,,,,,,,,,,,,,,,,,,,,,,,,,,,,,,,,,,,,,,,230.73426779999863,230.74997379997512,230.74997379997512,231.23337869998068,231.25016579998191,233.7331856000237,233.73333760001697,None,1.0,,,,,,,,,,,,,,,,,,,,,,,,nback40,1.0,2023-12-19_15h42.22.659,untitled,2023.2.3,60.16430872452993,2023-12-19 16h43.33.212400 -0500,
5.0,"[0.2, 0.1]",space,,,,,0.0,22.0,22.0,22.0,,,,,233.7499110000208,,,,,,,,,,,,,,,,,,,,,,,,,,,,,,,,,,,,,,,,,,,,,,233.73392650001915,233.7499110000208,233.7499110000208,234.23322980001103,234.2498064999818,236.73305999999863,236.73323359998176,space,1.0,0.4228719000238925,None,,,,,,,,,,,,,,,,,,,,,,nback40,1.0,2023-12-19_15h42.22.659,untitled,2023.2.3,60.16430872452993,2023-12-19 16h43.33.212400 -0500,
1.0,"[-0.64, 0.4]",None,,,,,0.0,23.0,23.0,23.0,,,,,236.749942000024,,,,,,,,,,,,,,,,,,,,,,,,,,,,,,,,,,,,,,,,,,,,,,236.7341473000124,236.749942000024,236.749942000024,237.23310890002176,237.24987780000083,239.7331239000196,239.73331769998185,None,1.0,,,,,,,,,,,,,,,,,,,,,,,,nback40,1.0,2023-12-19_15h42.22.659,untitled,2023.2.3,60.16430872452993,2023-12-19 16h43.33.212400 -0500,
3.0,"[0, 0.2]",None,,,,,0.0,24.0,24.0,24.0,,,,,239.74982099997575,,,,,,,,,,,,,,,,,,,,,,,,,,,,,,,,,,,,,,,,,,,,,,239.7340440999833,239.74982099997575,239.74982099997575,240.23291169997535,240.24939890002133,242.7329827999929,242.73317439999664,None,1.0,,,,,,,,,,,,,,,,,,,,,,,,nback40,1.0,2023-12-19_15h42.22.659,untitled,2023.2.3,60.16430872452993,2023-12-19 16h43.33.212400 -0500,
6.0,"[-0.3, 0]",None,,,,,0.0,25.0,25.0,25.0,,,,,242.74969700002111,,,,,,,,,,,,,,,,,,,,,,,,,,,,,,,,,,,,,,,,,,,,,,242.733927400026,242.74969700002111,242.74969700002111,243.23304919997463,243.24981920002028,245.7330898999935,245.73328769998625,None,1.0,,,,,,,,,,,,,,,,,,,,,,,,nback40,1.0,2023-12-19_15h42.22.659,untitled,2023.2.3,60.16430872452993,2023-12-19 16h43.33.212400 -0500,
1.0,"[-0.64, 0.4]",None,,,,,0.0,26.0,26.0,26.0,,,,,245.7496069999761,,,,,,,,,,,,,,,,,,,,,,,,,,,,,,,,,,,,,,,,,,,,,,245.7340915999957,245.7496069999761,245.7496069999761,246.2330198999844,246.24961100000652,248.73311019997345,248.73332370002757,None,1.0,,,,,,,,,,,,,,,,,,,,,,,,nback40,1.0,2023-12-19_15h42.22.659,untitled,2023.2.3,60.16430872452993,2023-12-19 16h43.33.212400 -0500,
1.0,"[-0.64, 0.4]",space,,,,,0.0,27.0,27.0,27.0,,,,,248.74956720002228,,,,,,,,,,,,,,,,,,,,,,,,,,,,,,,,,,,,,,,,,,,,,,248.7340477000107,248.74956720002228,248.74956720002228,249.23289829998976,249.24956959998235,251.732879600022,251.73304610000923,space,1.0,0.6359720000182278,None,,,,,,,,,,,,,,,,,,,,,,nback40,1.0,2023-12-19_15h42.22.659,untitled,2023.2.3,60.16430872452993,2023-12-19 16h43.33.212400 -0500,
1.0,"[-0.64, 0.4]",space,,,,,0.0,28.0,28.0,28.0,,,,,251.7496109000058,,,,,,,,,,,,,,,,,,,,,,,,,,,,,,,,,,,,,,,,,,,,,,251.73399480001532,251.7496109000058,251.7496109000058,252.2329029000248,252.2496532999794,254.7329158000066,254.7331047999905,None,0.0,,,,,,,,,,,,,,,,,,,,,,,,nback40,1.0,2023-12-19_15h42.22.659,untitled,2023.2.3,60.16430872452993,2023-12-19 16h43.33.212400 -0500,
3.0,"[0, 0.2]",None,,,,,0.0,29.0,29.0,29.0,,,,,254.74954859999707,,,,,,,,,,,,,,,,,,,,,,,,,,,,,,,,,,,,,,,,,,,,,,254.7338287999737,254.74954859999707,254.74954859999707,255.2329015000141,255.2493770000292,257.73280080000404,257.733000600012,None,1.0,,,,,,,,,,,,,,,,,,,,,,,,nback40,1.0,2023-12-19_15h42.22.659,untitled,2023.2.3,60.16430872452993,2023-12-19 16h43.33.212400 -0500,
12.0,"[0.64, -0.4]",None,,,,,0.0,30.0,30.0,30.0,,,,,257.7495366000221,,,,,,,,,,,,,,,,,,,,,,,,,,,,,,,,,,,,,,,,,,,,,,257.7337012999924,257.7495366000221,257.7495366000221,258.232785500004,258.2495729000075,260.7326046000235,260.7327583000297,None,1.0,,,,,,,,,,,,,,,,,,,,,,,,nback40,1.0,2023-12-19_15h42.22.659,untitled,2023.2.3,60.16430872452993,2023-12-19 16h43.33.212400 -0500,
12.0,"[0.64, -0.4]",space,,,,,0.0,31.0,31.0,31.0,,,,,260.7494017999852,,,,,,,,,,,,,,,,,,,,,,,,,,,,,,,,,,,,,,,,,,,,,,260.73325819999445,260.7494017999852,260.7494017999852,261.23261040000943,261.2492351999972,263.732831900008,263.7330186999752,space,1.0,0.4725861000479199,None,,,,,,,,,,,,,,,,,,,,,,nback40,1.0,2023-12-19_15h42.22.659,untitled,2023.2.3,60.16430872452993,2023-12-19 16h43.33.212400 -0500,
2.0,"[0.64, 0.4]",None,,,,,0.0,32.0,32.0,32.0,,,,,263.7494813000085,,,,,,,,,,,,,,,,,,,,,,,,,,,,,,,,,,,,,,,,,,,,,,263.73400080000283,263.7494813000085,263.7494813000085,264.2325755999773,264.2493797999923,266.7326565000112,266.73281610000413,None,1.0,,,,,,,,,,,,,,,,,,,,,,,,nback40,1.0,2023-12-19_15h42.22.659,untitled,2023.2.3,60.16430872452993,2023-12-19 16h43.33.212400 -0500,
1.0,"[-0.64, 0.4]",None,,,,,0.0,33.0,33.0,33.0,,,,,266.749246100022,,,,,,,,,,,,,,,,,,,,,,,,,,,,,,,,,,,,,,,,,,,,,,266.7334396999795,266.749246100022,266.749246100022,267.2324701999896,267.2490149000077,269.73269309999887,269.7329061999917,None,1.0,,,,,,,,,,,,,,,,,,,,,,,,nback40,1.0,2023-12-19_15h42.22.659,untitled,2023.2.3,60.16430872452993,2023-12-19 16h43.33.212400 -0500,
7.0,"[0.3, 0]",None,,,,,0.0,34.0,34.0,34.0,,,,,269.74932539998554,,,,,,,,,,,,,,,,,,,,,,,,,,,,,,,,,,,,,,,,,,,,,,269.7337319999933,269.74932539998554,269.74932539998554,270.2326903999783,270.2492426999961,272.7324521000264,272.73261090001324,None,1.0,,,,,,,,,,,,,,,,,,,,,,,,nback40,1.0,2023-12-19_15h42.22.659,untitled,2023.2.3,60.16430872452993,2023-12-19 16h43.33.212400 -0500,
7.0,"[0.3, 0]",space,,,,,0.0,35.0,35.0,35.0,,,,,272.74932230002014,,,,,,,,,,,,,,,,,,,,,,,,,,,,,,,,,,,,,,,,,,,,,,272.7332182999817,272.74932230002014,272.74932230002014,273.2326206000289,273.24935100000584,275.732627600024,275.7328082000022,space,1.0,0.6875916999997571,None,,,,,,,,,,,,,,,,,,,,,,nback40,1.0,2023-12-19_15h42.22.659,untitled,2023.2.3,60.16430872452993,2023-12-19 16h43.33.212400 -0500,
11.0,"[-0.64, -0.4]",None,,,,,0.0,36.0,36.0,36.0,,,,,275.74914139998145,,,,,,,,,,,,,,,,,,,,,,,,,,,,,,,,,,,,,,,,,,,,,,275.7336401999928,275.74914139998145,275.74914139998145,276.2323027999955,276.2491439000005,278.73249439999927,278.73267270001816,None,1.0,,,,,,,,,,,,,,,,,,,,,,,,nback40,1.0,2023-12-19_15h42.22.659,untitled,2023.2.3,60.16430872452993,2023-12-19 16h43.33.212400 -0500,
2.0,"[0.64, 0.4]",None,,,,,0.0,37.0,37.0,37.0,,,,,278.7490946999751,,,,,,,,,,,,,,,,,,,,,,,,,,,,,,,,,,,,,,,,,,,,,,278.7333844000241,278.7490946999751,278.7490946999751,279.232450600015,279.2491808999912,281.73255190002965,281.7327401000075,None,1.0,,,,,,,,,,,,,,,,,,,,,,,,nback40,1.0,2023-12-19_15h42.22.659,untitled,2023.2.3,60.16430872452993,2023-12-19 16h43.33.212400 -0500,
6.0,"[-0.3, 0]",None,,,,,0.0,38.0,38.0,38.0,,,,,281.74917770002503,,,,,,,,,,,,,,,,,,,,,,,,,,,,,,,,,,,,,,,,,,,,,,281.73346409999067,281.74917770002503,281.74917770002503,282.2322257999913,282.24914189998526,284.73225100000855,284.7324110000045,None,1.0,,,,,,,,,,,,,,,,,,,,,,,,nback40,1.0,2023-12-19_15h42.22.659,untitled,2023.2.3,60.16430872452993,2023-12-19 16h43.33.212400 -0500,
10.0,"[0, -0.2]",None,,,,,0.0,39.0,39.0,39.0,,,,,284.7490775000188,,,,,,,,,,,,,,,,,,,,,,,,,,,,,,,,,,,,,,,,,,,,,,284.7330848000129,284.7490775000188,284.7490775000188,285.23245820001466,285.248940200021,287.7323159999796,287.73249760002363,None,1.0,,,,,,,,,,,,,,,,,,,,,,,,nback40,1.0,2023-12-19_15h42.22.659,untitled,2023.2.3,60.16430872452993,2023-12-19 16h43.33.212400 -0500,
,,,,,,,,,,,,,,,,,,,,,,,,,,,,,,,,,,,,,,,,,,,,,,,,,,,,,,,,,,,,,,,,,,,,,,,,287.7329821999883,287.7491052999976,287.7491052999976,322.89971810003044,space,35.14267500001006,None,,,,,,,,,,,,,,,nback40,1.0,2023-12-19_15h42.22.659,untitled,2023.2.3,60.16430872452993,2023-12-19 16h43.33.212400 -0500,
,"[0.2, 0.1]",None,,,,,,,,,0.0,0.0,0.0,0.0,323.91594929998973,,,,,,,,,,,,,,,,,,,,,,,,322.89975639997283,322.9147778999759,323.91594929998973,323.8987982000108,,,,,,,,,,,,,,,,,,,,,,,,,,,,,,,,,,,,,323.9140488000121,323.91594929998973,323.91594929998973,324.4150283000199,324.4150283000199,326.9150544999866,326.9152748999768,None,1.0,,,,,,nback40,1.0,2023-12-19_15h42.22.659,untitled,2023.2.3,60.16430872452993,2023-12-19 16h43.33.212400 -0500,
,"[0.64, 0.4]",None,,,,,,,,,0.0,1.0,1.0,1.0,326.93237629998475,,,,,,,,,,,,,,,,,,,,,,,,,,,,,,,,,,,,,,,,,,,,,,,,,,,,,,,,,,,,,,,,326.91632389998995,326.93237629998475,326.93237629998475,327.4480627999874,327.4145447000046,329.91492030001245,329.91512550000334,None,1.0,,,,,,nback40,1.0,2023-12-19_15h42.22.659,untitled,2023.2.3,60.16430872452993,2023-12-19 16h43.33.212400 -0500,
,"[-0.3, 0]",None,,,,,,,,,0.0,2.0,2.0,2.0,329.9316037999816,,,,,,,,,,,,,,,,,,,,,,,,,,,,,,,,,,,,,,,,,,,,,,,,,,,,,,,,,,,,,,,,329.9159153000219,329.9316037999816,329.9316037999816,330.4316057999968,330.41487999999663,332.9148765000282,332.9150669000228,None,1.0,,,,,,nback40,1.0,2023-12-19_15h42.22.659,untitled,2023.2.3,60.16430872452993,2023-12-19 16h43.33.212400 -0500,
,"[0.2, -0.1]",None,,,,,,,,,0.0,3.0,3.0,3.0,332.93151500000386,,,,,,,,,,,,,,,,,,,,,,,,,,,,,,,,,,,,,,,,,,,,,,,,,,,,,,,,,,,,,,,,332.9157945999759,332.93151500000386,332.93151500000386,333.43168709997553,333.4147176999832,335.91471129999263,335.9148990000249,None,1.0,,,,,,nback40,1.0,2023-12-19_15h42.22.659,untitled,2023.2.3,60.16430872452993,2023-12-19 16h43.33.212400 -0500,
,"[0, 0.2]",None,,,,,,,,,0.0,4.0,4.0,4.0,335.9314854000113,,,,,,,,,,,,,,,,,,,,,,,,,,,,,,,,,,,,,,,,,,,,,,,,,,,,,,,,,,,,,,,,335.9156482000253,335.9314854000113,335.9314854000113,336.4315765000065,336.41493530001026,338.9147796999896,338.9150196000119,None,1.0,,,,,,nback40,1.0,2023-12-19_15h42.22.659,untitled,2023.2.3,60.16430872452993,2023-12-19 16h43.33.212400 -0500,
,"[0.2, -0.1]",space,,,,,,,,,0.0,5.0,5.0,5.0,338.9313708000118,,,,,,,,,,,,,,,,,,,,,,,,,,,,,,,,,,,,,,,,,,,,,,,,,,,,,,,,,,,,,,,,338.915849299985,338.9313708000118,338.9313708000118,339.431442799978,339.4146742000012,341.9147665000055,341.9149413999985,space,1.0,0.7936197000090033,None,,,,nback40,1.0,2023-12-19_15h42.22.659,untitled,2023.2.3,60.16430872452993,2023-12-19 16h43.33.212400 -0500,
,"[0, -0.2]",None,,,,,,,,,0.0,6.0,6.0,6.0,341.9313012000057,,,,,,,,,,,,,,,,,,,,,,,,,,,,,,,,,,,,,,,,,,,,,,,,,,,,,,,,,,,,,,,,341.9159618000267,341.9313012000057,341.9313012000057,342.431305599981,342.41478350001853,344.9146420999896,344.91481940000085,None,1.0,,,,,,nback40,1.0,2023-12-19_15h42.22.659,untitled,2023.2.3,60.16430872452993,2023-12-19 16h43.33.212400 -0500,
,"[0.64, -0.4]",None,,,,,,,,,0.0,7.0,7.0,7.0,344.93108479998773,,,,,,,,,,,,,,,,,,,,,,,,,,,,,,,,,,,,,,,,,,,,,,,,,,,,,,,,,,,,,,,,344.9155626000138,344.93108479998773,344.93108479998773,345.4313376999926,345.4145198999904,347.91463800001657,347.9148198000039,None,1.0,,,,,,nback40,1.0,2023-12-19_15h42.22.659,untitled,2023.2.3,60.16430872452993,2023-12-19 16h43.33.212400 -0500,
,"[0.3, 0]",None,,,,,,,,,0.0,8.0,8.0,8.0,347.93113440001616,,,,,,,,,,,,,,,,,,,,,,,,,,,,,,,,,,,,,,,,,,,,,,,,,,,,,,,,,,,,,,,,347.91553579998435,347.93113440001616,347.93113440001616,348.43125860003056,348.4144368999987,350.9144435999915,350.9146112999879,None,1.0,,,,,,nback40,1.0,2023-12-19_15h42.22.659,untitled,2023.2.3,60.16430872452993,2023-12-19 16h43.33.212400 -0500,
,"[0.64, -0.4]",space,,,,,,,,,0.0,9.0,9.0,9.0,350.9312457999913,,,,,,,,,,,,,,,,,,,,,,,,,,,,,,,,,,,,,,,,,,,,,,,,,,,,,,,,,,,,,,,,350.91540410002926,350.9312457999913,350.9312457999913,351.43116959999315,351.4146169000305,353.9144427999854,353.91462380002486,space,1.0,0.3985164000187069,None,,,,nback40,1.0,2023-12-19_15h42.22.659,untitled,2023.2.3,60.16430872452993,2023-12-19 16h43.33.212400 -0500,
,"[-0.64, 0.4]",None,,,,,,,,,0.0,10.0,10.0,10.0,353.9311321999994,,,,,,,,,,,,,,,,,,,,,,,,,,,,,,,,,,,,,,,,,,,,,,,,,,,,,,,,,,,,,,,,353.9155033000279,353.9311321999994,353.9311321999994,354.43111970002064,354.41453250002814,356.91447890002746,356.9147075000219,None,1.0,,,,,,nback40,1.0,2023-12-19_15h42.22.659,untitled,2023.2.3,60.16430872452993,2023-12-19 16h43.33.212400 -0500,
,"[0.2, 0.1]",None,,,,,,,,,0.0,11.0,11.0,11.0,356.9309852999868,,,,,,,,,,,,,,,,,,,,,,,,,,,,,,,,,,,,,,,,,,,,,,,,,,,,,,,,,,,,,,,,356.9155177000212,356.9309852999868,356.9309852999868,357.4309324999922,357.414472799981,359.9144898999948,359.9146915000165,None,1.0,,,,,,nback40,1.0,2023-12-19_15h42.22.659,untitled,2023.2.3,60.16430872452993,2023-12-19 16h43.33.212400 -0500,
,"[0.3, 0]",None,,,,,,,,,0.0,12.0,12.0,12.0,359.93103480001446,,,,,,,,,,,,,,,,,,,,,,,,,,,,,,,,,,,,,,,,,,,,,,,,,,,,,,,,,,,,,,,,359.91545720002614,359.93103480001446,359.93103480001446,360.4310922999866,360.4143787000212,362.9143230000045,362.9145008000196,None,1.0,,,,,,nback40,1.0,2023-12-19_15h42.22.659,untitled,2023.2.3,60.16430872452993,2023-12-19 16h43.33.212400 -0500,
,"[0.2, 0.1]",space,,,,,,,,,0.0,13.0,13.0,13.0,362.9310251999996,,,,,,,,,,,,,,,,,,,,,,,,,,,,,,,,,,,,,,,,,,,,,,,,,,,,,,,,,,,,,,,,362.915176599985,362.9310251999996,362.9310251999996,363.4309093999909,363.4144228000077,365.9141615999979,365.9143329000217,space,1.0,0.5259917000075802,None,,,,nback40,1.0,2023-12-19_15h42.22.659,untitled,2023.2.3,60.16430872452993,2023-12-19 16h43.33.212400 -0500,
,"[-0.3, 0]",None,,,,,,,,,0.0,14.0,14.0,14.0,365.9308740000124,,,,,,,,,,,,,,,,,,,,,,,,,,,,,,,,,,,,,,,,,,,,,,,,,,,,,,,,,,,,,,,,365.9151324999984,365.9308740000124,365.9308740000124,366.4308880000026,366.4141269000247,368.9143163000117,368.9145077000139,None,1.0,,,,,,nback40,1.0,2023-12-19_15h42.22.659,untitled,2023.2.3,60.16430872452993,2023-12-19 16h43.33.212400 -0500,
,"[0, 0.2]",None,,,,,,,,,0.0,15.0,15.0,15.0,368.93088729999727,,,,,,,,,,,,,,,,,,,,,,,,,,,,,,,,,,,,,,,,,,,,,,,,,,,,,,,,,,,,,,,,368.9152381999884,368.93088729999727,368.93088729999727,369.43097059999127,369.4142848000047,371.91419300000416,371.9143571999739,None,1.0,,,,,,nback40,1.0,2023-12-19_15h42.22.659,untitled,2023.2.3,60.16430872452993,2023-12-19 16h43.33.212400 -0500,
,"[-0.3, 0]",space,,,,,,,,,0.0,16.0,16.0,16.0,371.9308060000185,,,,,,,,,,,,,,,,,,,,,,,,,,,,,,,,,,,,,,,,,,,,,,,,,,,,,,,,,,,,,,,,371.9149981000228,371.9308060000185,371.9308060000185,372.4306767000234,372.4140523999813,374.9141425000271,374.914351399988,space,1.0,0.3892929999856278,None,,,,nback40,1.0,2023-12-19_15h42.22.659,untitled,2023.2.3,60.16430872452993,2023-12-19 16h43.33.212400 -0500,
,"[-0.64, -0.4]",None,,,,,,,,,0.0,17.0,17.0,17.0,374.9309787999955,,,,,,,,,,,,,,,,,,,,,,,,,,,,,,,,,,,,,,,,,,,,,,,,,,,,,,,,,,,,,,,,374.91535209998256,374.9309787999955,374.9309787999955,375.4307943999884,375.4141135999817,377.9140420000185,377.914222899999,None,1.0,,,,,,nback40,1.0,2023-12-19_15h42.22.659,untitled,2023.2.3,60.16430872452993,2023-12-19 16h43.33.212400 -0500,
,"[-0.2, -0.1]",None,,,,,,,,,0.0,18.0,18.0,18.0,377.9306815000018,,,,,,,,,,,,,,,,,,,,,,,,,,,,,,,,,,,,,,,,,,,,,,,,,,,,,,,,,,,,,,,,377.9149269000045,377.9306815000018,377.9306815000018,378.4306934999768,378.4139570000116,380.9141090000048,380.91436739999335,None,1.0,,,,,,nback40,1.0,2023-12-19_15h42.22.659,untitled,2023.2.3,60.16430872452993,2023-12-19 16h43.33.212400 -0500,
,"[0.2, -0.1]",None,,,,,,,,,0.0,19.0,19.0,19.0,380.93052200000966,,,,,,,,,,,,,,,,,,,,,,,,,,,,,,,,,,,,,,,,,,,,,,,,,,,,,,,,,,,,,,,,380.9150980000268,380.93052200000966,380.93052200000966,381.43062220001593,381.41401349997614,383.91399410000304,383.9141423000256,None,1.0,,,,,,nback40,1.0,2023-12-19_15h42.22.659,untitled,2023.2.3,60.16430872452993,2023-12-19 16h43.33.212400 -0500,
,"[0.2, -0.1]",None,,,,,,,,,0.0,20.0,20.0,20.0,383.9305145000108,,,,,,,,,,,,,,,,,,,,,,,,,,,,,,,,,,,,,,,,,,,,,,,,,,,,,,,,,,,,,,,,383.9147230000235,383.9305145000108,383.9305145000108,384.430649499991,384.4138794000028,386.9137946999981,386.9139648000128,None,1.0,,,,,,nback40,1.0,2023-12-19_15h42.22.659,untitled,2023.2.3,60.16430872452993,2023-12-19 16h43.33.212400 -0500,
,"[-0.64, 0.4]",None,,,,,,,,,0.0,21.0,21.0,21.0,386.9305861999746,,,,,,,,,,,,,,,,,,,,,,,,,,,,,,,,,,,,,,,,,,,,,,,,,,,,,,,,,,,,,,,,386.91490319999866,386.9305861999746,386.9305861999746,387.4305690000183,387.4138815000188,389.9138981000288,389.9140880000196,None,1.0,,,,,,nback40,1.0,2023-12-19_15h42.22.659,untitled,2023.2.3,60.16430872452993,2023-12-19 16h43.33.212400 -0500,
,"[0, 0.2]",None,,,,,,,,,0.0,22.0,22.0,22.0,389.9305896000005,,,,,,,,,,,,,,,,,,,,,,,,,,,,,,,,,,,,,,,,,,,,,,,,,,,,,,,,,,,,,,,,389.9148287000135,389.9305896000005,389.9305896000005,390.430466699996,390.4139467999921,392.9137612999766,392.9139740000246,None,1.0,,,,,,nback40,1.0,2023-12-19_15h42.22.659,untitled,2023.2.3,60.16430872452993,2023-12-19 16h43.33.212400 -0500,
,"[0.64, -0.4]",None,,,,,,,,,0.0,23.0,23.0,23.0,392.9305942999781,,,,,,,,,,,,,,,,,,,,,,,,,,,,,,,,,,,,,,,,,,,,,,,,,,,,,,,,,,,,,,,,392.914806100016,392.9305942999781,392.9305942999781,393.43037299998105,393.41372860001866,395.9136889000074,395.913870999997,None,1.0,,,,,,nback40,1.0,2023-12-19_15h42.22.659,untitled,2023.2.3,60.16430872452993,2023-12-19 16h43.33.212400 -0500,
,"[0, 0.2]",space,,,,,,,,,0.0,24.0,24.0,24.0,395.9305112999864,,,,,,,,,,,,,,,,,,,,,,,,,,,,,,,,,,,,,,,,,,,,,,,,,,,,,,,,,,,,,,,,395.91466489998857,395.9305112999864,395.9305112999864,396.4302045999793,396.413916599995,398.9134580999962,398.9135723999934,space,1.0,1.294018900021911,None,,,,nback40,1.0,2023-12-19_15h42.22.659,untitled,2023.2.3,60.16430872452993,2023-12-19 16h43.33.212400 -0500,
,"[-0.2, 0.1]",None,,,,,,,,,0.0,25.0,25.0,25.0,398.9304741999949,,,,,,,,,,,,,,,,,,,,,,,,,,,,,,,,,,,,,,,,,,,,,,,,,,,,,,,,,,,,,,,,398.9140065999818,398.9304741999949,398.9304741999949,399.4303931000177,399.4138001999818,401.913743800018,401.9139340000111,None,1.0,,,,,,nback40,1.0,2023-12-19_15h42.22.659,untitled,2023.2.3,60.16430872452993,2023-12-19 16h43.33.212400 -0500,
,"[0.3, 0]",None,,,,,,,,,0.0,26.0,26.0,26.0,401.9303730999818,,,,,,,,,,,,,,,,,,,,,,,,,,,,,,,,,,,,,,,,,,,,,,,,,,,,,,,,,,,,,,,,401.91474310000194,401.9303730999818,401.9303730999818,402.4303331000265,402.4136087999796,404.91370430000825,404.9139194000163,None,1.0,,,,,,nback40,1.0,2023-12-19_15h42.22.659,untitled,2023.2.3,60.16430872452993,2023-12-19 16h43.33.212400 -0500,
,"[-0.2, 0.1]",space,,,,,,,,,0.0,27.0,27.0,27.0,404.9303680000012,,,,,,,,,,,,,,,,,,,,,,,,,,,,,,,,,,,,,,,,,,,,,,,,,,,,,,,,,,,,,,,,404.91474360000575,404.9303680000012,404.9303680000012,405.4303028000286,405.4136471999809,407.9135991000221,407.91382750001503,space,1.0,0.387347400013823,None,,,,nback40,1.0,2023-12-19_15h42.22.659,untitled,2023.2.3,60.16430872452993,2023-12-19 16h43.33.212400 -0500,
,"[-0.2, 0.1]",None,,,,,,,,,0.0,28.0,28.0,28.0,407.92995650001103,,,,,,,,,,,,,,,,,,,,,,,,,,,,,,,,,,,,,,,,,,,,,,,,,,,,,,,,,,,,,,,,407.914876899973,407.92995650001103,407.92995650001103,408.430183199991,408.4135325999814,410.91361579997465,410.9138024999993,None,1.0,,,,,,nback40,1.0,2023-12-19_15h42.22.659,untitled,2023.2.3,60.16430872452993,2023-12-19 16h43.33.212400 -0500,
,"[0.2, 0.1]",None,,,,,,,,,0.0,29.0,29.0,29.0,410.9301119999727,,,,,,,,,,,,,,,,,,,,,,,,,,,,,,,,,,,,,,,,,,,,,,,,,,,,,,,,,,,,,,,,410.9145227000117,410.9301119999727,410.9301119999727,411.4301047999761,411.4134001000202,413.9133930000244,413.913584200025,None,1.0,,,,,,nback40,1.0,2023-12-19_15h42.22.659,untitled,2023.2.3,60.16430872452993,2023-12-19 16h43.33.212400 -0500,
,"[-0.64, -0.4]",None,,,,,,,,,0.0,30.0,30.0,30.0,413.9301137999864,,,,,,,,,,,,,,,,,,,,,,,,,,,,,,,,,,,,,,,,,,,,,,,,,,,,,,,,,,,,,,,,413.9143381000031,413.9301137999864,413.9301137999864,414.43009330000496,414.4132974999957,416.913341699983,416.91354719997616,None,1.0,,,,,,nback40,1.0,2023-12-19_15h42.22.659,untitled,2023.2.3,60.16430872452993,2023-12-19 16h43.33.212400 -0500,
,"[0, -0.2]",None,,,,,,,,,0.0,31.0,31.0,31.0,416.93013110000174,,,,,,,,,,,,,,,,,,,,,,,,,,,,,,,,,,,,,,,,,,,,,,,,,,,,,,,,,,,,,,,,416.9143862000201,416.93013110000174,416.93013110000174,417.4300948000164,417.4135144000175,419.9133472000249,419.9134567999863,None,1.0,,,,,,nback40,1.0,2023-12-19_15h42.22.659,untitled,2023.2.3,60.16430872452993,2023-12-19 16h43.33.212400 -0500,
,"[-0.64, -0.4]",space,,,,,,,,,0.0,32.0,32.0,32.0,419.9299619999947,,,,,,,,,,,,,,,,,,,,,,,,,,,,,,,,,,,,,,,,,,,,,,,,,,,,,,,,,,,,,,,,419.9138390999869,419.9299619999947,419.9299619999947,420.4298945000046,420.41312939999625,422.9133330999757,422.91355240001576,space,1.0,0.3973014000221155,None,,,,nback40,1.0,2023-12-19_15h42.22.659,untitled,2023.2.3,60.16430872452993,2023-12-19 16h43.33.212400 -0500,
,"[0.64, 0.4]",None,,,,,,,,,0.0,33.0,33.0,33.0,422.9298825000296,,,,,,,,,,,,,,,,,,,,,,,,,,,,,,,,,,,,,,,,,,,,,,,,,,,,,,,,,,,,,,,,422.9145653999876,422.9298825000296,422.9298825000296,423.42993809998734,423.41336479998427,425.9133081000182,425.9135330999852,None,1.0,,,,,,nback40,1.0,2023-12-19_15h42.22.659,untitled,2023.2.3,60.16430872452993,2023-12-19 16h43.33.212400 -0500,
,"[-0.3, 0]",None,,,,,,,,,0.0,34.0,34.0,34.0,425.9298852999928,,,,,,,,,,,,,,,,,,,,,,,,,,,,,,,,,,,,,,,,,,,,,,,,,,,,,,,,,,,,,,,,425.9143364999909,425.9298852999928,425.9298852999928,426.4299379999866,426.4133195999893,428.9131864000228,428.91337680001743,None,1.0,,,,,,nback40,1.0,2023-12-19_15h42.22.659,untitled,2023.2.3,60.16430872452993,2023-12-19 16h43.33.212400 -0500,
,"[0.3, 0]",None,,,,,,,,,0.0,35.0,35.0,35.0,428.92982600000687,,,,,,,,,,,,,,,,,,,,,,,,,,,,,,,,,,,,,,,,,,,,,,,,,,,,,,,,,,,,,,,,428.9141666999785,428.92982600000687,428.92982600000687,429.4297777999891,429.4131262000301,431.9131806999794,431.9133626000257,None,1.0,,,,,,nback40,1.0,2023-12-19_15h42.22.659,untitled,2023.2.3,60.16430872452993,2023-12-19 16h43.33.212400 -0500,
,"[-0.3, 0]",space,,,,,,,,,0.0,36.0,36.0,36.0,431.92984440003056,,,,,,,,,,,,,,,,,,,,,,,,,,,,,,,,,,,,,,,,,,,,,,,,,,,,,,,,,,,,,,,,431.9140872000135,431.92984440003056,431.92984440003056,432.42977019998943,432.413104599982,434.9130301999976,434.91318969998974,space,1.0,0.4008317000116221,None,,,,nback40,1.0,2023-12-19_15h42.22.659,untitled,2023.2.3,60.16430872452993,2023-12-19 16h43.33.212400 -0500,
,"[0, -0.2]",None,,,,,,,,,0.0,37.0,37.0,37.0,434.92969880002784,,,,,,,,,,,,,,,,,,,,,,,,,,,,,,,,,,,,,,,,,,,,,,,,,,,,,,,,,,,,,,,,434.913937699981,434.92969880002784,434.92969880002784,435.429872800014,435.413071100018,437.91304040001705,437.9132112999796,None,1.0,,,,,,nback40,1.0,2023-12-19_15h42.22.659,untitled,2023.2.3,60.16430872452993,2023-12-19 16h43.33.212400 -0500,
,"[0.3, 0]",None,,,,,,,,,0.0,38.0,38.0,38.0,437.9296013999847,,,,,,,,,,,,,,,,,,,,,,,,,,,,,,,,,,,,,,,,,,,,,,,,,,,,,,,,,,,,,,,,437.91395940002985,437.9296013999847,437.9296013999847,438.4295864999877,438.4128943000105,440.9128407000098,440.9130086000077,None,1.0,,,,,,nback40,1.0,2023-12-19_15h42.22.659,untitled,2023.2.3,60.16430872452993,2023-12-19 16h43.33.212400 -0500,
,"[0.2, 0.1]",None,,,,,,,,,0.0,39.0,39.0,39.0,440.929760399973,,,,,,,,,,,,,,,,,,,,,,,,,,,,,,,,,,,,,,,,,,,,,,,,,,,,,,,,,,,,,,,,440.9136453000247,440.929760399973,440.929760399973,441.4294191999943,441.4128243000014,443.9129724000232,443.91316230001394,None,1.0,,,,,,nback40,1.0,2023-12-19_15h42.22.659,untitled,2023.2.3,60.16430872452993,2023-12-19 16h43.33.212400 -0500,
,,,,,,,,,,,,,,,,,,,,,,,,,,,,,,,,,,,,,,,,,,,,,,,,,,,,,,,,,,,,,,,,,,,,,,,,,,,,,,,,,,,,,,,,,,443.9136774999788,443.92950500000734,446.9128869000124,,,,,,,,
