square,location,corrAns,trials_0.thisRepN,trials_0.thisTrialN,trials_0.thisN,trials_0.thisIndex,trials_1.thisRepN,trials_1.thisTrialN,trials_1.thisN,trials_1.thisIndex,trials_2.thisRepN,trials_2.thisTrialN,trials_2.thisN,trials_2.thisIndex,thisRow.t,notes,Instructions.started,instructions.started,key_resp.started,inst_sq11.started,Instructions.stopped,key_resp.keys,key_resp.rt,key_resp.duration,All.started,sq_1.started,sq_2.started,sq_3.started,sq_4.started,sq_5.started,sq_6.started,sq_7.started,sq_8.started,sq_9.started,sq_10.started,sq_11.started,sq_12.started,All.stopped,Fixation.started,fixation_3.started,fixation_3.stopped,Fixation.stopped,N_back_0_Trial.started,target_square_0.started,response_0.started,fixation_0.started,target_square_0.stopped,fixation_0.stopped,N_back_0_Trial.stopped,response_0.keys,response_0.corr,response_0.rt,response_0.duration,Instructions_1.started,instructions_1.started,key_resp_1.started,Instructions_1.stopped,key_resp_1.keys,key_resp_1.rt,key_resp_1.duration,N_back_1_Trial.started,target_square_1.started,response_1.started,fixation_1.started,target_square_1.stopped,fixation_1.stopped,response_1.stopped,N_back_1_Trial.stopped,response_1.keys,response_1.corr,response_1.rt,response_1.duration,Instructions_2.started,instructions_2.started,key_resp_2.started,Instructions_2.stopped,key_resp_2.keys,key_resp_2.rt,key_resp_2.duration,N_back_2_trials.started,target_square_2.started,response_2.started,fixation_2.started,target_square_2.stopped,fixation_2.stopped,N_back_2_trials.stopped,response_2.keys,response_2.corr,response_2.rt,response_2.duration,End.started,thank_you.started,End.stopped,participant,session,date,expName,psychopyVersion,frameRate,expStart,
,,,,,,,,,,,,,,,,,0.0015301999999337568,0.003980299999966519,0.003980299999966519,0.003980299999966519,1700.2195100999998,space,1700.2037968,None,,,,,,,,,,,,,,,,,,,,,,,,,,,,,,,,,,,,,,,,,,,,,,,,,,,,,,,,,,,,,,,,,,,,,,nback44,001,2024-01-08_14h21.11.616,untitled,2023.2.3,60.0454904635641,2024-01-08 14h39.05.878894 -0500,
6,"[-0.3, 0]",None,0,0,0,0,,,,,,,,,1702.2385921999999,,,,,,,,,,1700.2195622,1700.2345765,1700.2345765,1700.2345765,1700.2345765,1700.2345765,1700.2345765,1700.2345765,1700.2345765,1700.2345765,1700.2345765,1700.2345765,1700.2345765,1701.2187209999997,1701.2187491999998,1701.2346481999998,1702.2385921999999,1702.2187061,1702.2366840999998,1702.2385921999999,1702.2385921999999,1702.7178321000001,1702.7516160999999,1705.2175506999997,1705.2343827999998,None,1,,,,,,,,,,,,,,,,,,,,,,,,,,,,,,,,,,,,,,,,,,,nback44,001,2024-01-08_14h21.11.616,untitled,2023.2.3,60.0454904635641,2024-01-08 14h39.05.878894 -0500,
10,"[0, -0.2]",None,0,1,1,1,,,,,,,,,1705.2514963999997,,,,,,,,,,,,,,,,,,,,,,,,,,,,1705.2355229,1705.2514963999997,1705.2514963999997,1705.7348380999997,1705.7512969999998,1708.2341984,1708.2343152999997,None,1,,,,,,,,,,,,,,,,,,,,,,,,,,,,,,,,,,,,,,,,,,,nback44,001,2024-01-08_14h21.11.616,untitled,2023.2.3,60.0454904635641,2024-01-08 14h39.05.878894 -0500,
11,"[-0.64, -0.4]",space,0,2,2,2,,,,,,,,,1708.2507535,,,,,,,,,,,,,,,,,,,,,,,,,,,,1708.2353266999999,1708.2507535,1708.2507535,1708.7175994,1708.751518,1711.2177109,1711.2347123,None,0,,,,,,,,,,,,,,,,,,,,,,,,,,,,,,,,,,,,,,,,,,,nback44,001,2024-01-08_14h21.11.616,untitled,2023.2.3,60.0454904635641,2024-01-08 14h39.05.878894 -0500,
12,"[0.64, -0.4]",None,0,3,3,3,,,,,,,,,1711.2510781,,,,,,,,,,,,,,,,,,,,,,,,,,,,1711.2355518999998,1711.2510781,1711.2510781,1711.7343179,1711.7511458999998,1714.2342562,1714.2343728,None,1,,,,,,,,,,,,,,,,,,,,,,,,,,,,,,,,,,,,,,,,,,,nback44,001,2024-01-08_14h21.11.616,untitled,2023.2.3,60.0454904635641,2024-01-08 14h39.05.878894 -0500,
1,"[-0.64, 0.4]",None,0,4,4,4,,,,,,,,,1714.2508475,,,,,,,,,,,,,,,,,,,,,,,,,,,,1714.2347251,1714.2508475,1714.2508475,1714.7345544999998,1714.7507071999999,1717.2341972,1717.2343072999997,None,1,,,,,,,,,,,,,,,,,,,,,,,,,,,,,,,,,,,,,,,,,,,nback44,001,2024-01-08_14h21.11.616,untitled,2023.2.3,60.0454904635641,2024-01-08 14h39.05.878894 -0500,
1,"[-0.64, 0.4]",None,0,5,5,5,,,,,,,,,1717.2512999,,,,,,,,,,,,,,,,,,,,,,,,,,,,1717.2348072999998,1717.2512999,1717.2512999,1717.7174996999997,1717.7511405,1720.2176049999998,1720.2345809999997,None,1,,,,,,,,,,,,,,,,,,,,,,,,,,,,,,,,,,,,,,,,,,,nback44,001,2024-01-08_14h21.11.616,untitled,2023.2.3,60.0454904635641,2024-01-08 14h39.05.878894 -0500,
4,"[-0.2, 0.1]",None,0,6,6,6,,,,,,,,,1720.2508850999998,,,,,,,,,,,,,,,,,,,,,,,,,,,,1720.2353788,1720.2508850999998,1720.2508850999998,1720.7344331999998,1720.7509756,1723.2341934,1723.2342921,None,1,,,,,,,,,,,,,,,,,,,,,,,,,,,,,,,,,,,,,,,,,,,nback44,001,2024-01-08_14h21.11.616,untitled,2023.2.3,60.0454904635641,2024-01-08 14h39.05.878894 -0500,
5,"[0.2, 0.1]",None,0,7,7,7,,,,,,,,,1723.2507627999998,,,,,,,,,,,,,,,,,,,,,,,,,,,,1723.2346370999999,1723.2507627999998,1723.2507627999998,1723.7340881999999,1723.7506593999997,1726.233996,1726.2340955,None,1,,,,,,,,,,,,,,,,,,,,,,,,,,,,,,,,,,,,,,,,,,,nback44,001,2024-01-08_14h21.11.616,untitled,2023.2.3,60.0454904635641,2024-01-08 14h39.05.878894 -0500,
11,"[-0.64, -0.4]",space,0,8,8,8,,,,,,,,,1726.2507095,,,,,,,,,,,,,,,,,,,,,,,,,,,,1726.2345461999998,1726.2507095,1726.2507095,1726.7344610999999,1726.7505375,1729.2342657,1729.2343852999998,None,0,,,,,,,,,,,,,,,,,,,,,,,,,,,,,,,,,,,,,,,,,,,nback44,001,2024-01-08_14h21.11.616,untitled,2023.2.3,60.0454904635641,2024-01-08 14h39.05.878894 -0500,
9,"[0.2, -0.1]",None,0,9,9,9,,,,,,,,,1729.2511618999997,,,,,,,,,,,,,,,,,,,,,,,,,,,,1729.2347277,1729.2511618999997,1729.2511618999997,1729.7338884,1729.7511817,1732.2344476999997,1732.2345608,None,1,,,,,,,,,,,,,,,,,,,,,,,,,,,,,,,,,,,,,,,,,,,nback44,001,2024-01-08_14h21.11.616,untitled,2023.2.3,60.0454904635641,2024-01-08 14h39.05.878894 -0500,
8,"[-0.2, -0.1]",None,0,10,10,10,,,,,,,,,1732.250481,,,,,,,,,,,,,,,,,,,,,,,,,,,,1732.2349479999998,1732.250481,1732.250481,1732.7340015,1732.7505318999997,1735.2341415,1735.2343192999997,None,1,,,,,,,,,,,,,,,,,,,,,,,,,,,,,,,,,,,,,,,,,,,nback44,001,2024-01-08_14h21.11.616,untitled,2023.2.3,60.0454904635641,2024-01-08 14h39.05.878894 -0500,
9,"[0.2, -0.1]",None,0,11,11,11,,,,,,,,,1735.2506479999997,,,,,,,,,,,,,,,,,,,,,,,,,,,,1735.2350226999997,1735.2506479999997,1735.2506479999997,1735.7339508,1735.7506442999997,1738.2341410999998,1738.2342404,None,1,,,,,,,,,,,,,,,,,,,,,,,,,,,,,,,,,,,,,,,,,,,nback44,001,2024-01-08_14h21.11.616,untitled,2023.2.3,60.0454904635641,2024-01-08 14h39.05.878894 -0500,
6,"[-0.3, 0]",None,0,12,12,12,,,,,,,,,1738.2508987,,,,,,,,,,,,,,,,,,,,,,,,,,,,1738.2345852999997,1738.2508987,1738.2508987,1738.7338016999997,1738.7507250999997,1741.2341873999999,1741.2343096,None,1,,,,,,,,,,,,,,,,,,,,,,,,,,,,,,,,,,,,,,,,,,,nback44,001,2024-01-08_14h21.11.616,untitled,2023.2.3,60.0454904635641,2024-01-08 14h39.05.878894 -0500,
9,"[0.2, -0.1]",None,0,13,13,13,,,,,,,,,1741.2508619,,,,,,,,,,,,,,,,,,,,,,,,,,,,1741.2348588,1741.2508619,1741.2508619,1741.7343523,1741.7503032,1744.2345072999997,1744.2346336,None,1,,,,,,,,,,,,,,,,,,,,,,,,,,,,,,,,,,,,,,,,,,,nback44,001,2024-01-08_14h21.11.616,untitled,2023.2.3,60.0454904635641,2024-01-08 14h39.05.878894 -0500,
7,"[0.3, 0]",None,0,14,14,14,,,,,,,,,1744.2504122999999,,,,,,,,,,,,,,,,,,,,,,,,,,,,1744.2349937999998,1744.2504122999999,1744.2504122999999,1744.7170388999998,1744.7505198,1747.2171737999997,1747.2340138,None,1,,,,,,,,,,,,,,,,,,,,,,,,,,,,,,,,,,,,,,,,,,,nback44,001,2024-01-08_14h21.11.616,untitled,2023.2.3,60.0454904635641,2024-01-08 14h39.05.878894 -0500,
2,"[0.64, 0.4]",None,0,15,15,15,,,,,,,,,1747.2505732999998,,,,,,,,,,,,,,,,,,,,,,,,,,,,1747.2343892999997,1747.2505732999998,1747.2505732999998,1747.7338405,1747.7505496999997,1750.2337512999998,1750.2338509,None,1,,,,,,,,,,,,,,,,,,,,,,,,,,,,,,,,,,,,,,,,,,,nback44,001,2024-01-08_14h21.11.616,untitled,2023.2.3,60.0454904635641,2024-01-08 14h39.05.878894 -0500,
2,"[0.64, 0.4]",None,0,16,16,16,,,,,,,,,1750.2505754,,,,,,,,,,,,,,,,,,,,,,,,,,,,1750.2341679,1750.2505754,1750.2505754,1750.7339214999997,1750.7504516,1753.2340968999997,1753.2342203999997,None,1,,,,,,,,,,,,,,,,,,,,,,,,,,,,,,,,,,,,,,,,,,,nback44,001,2024-01-08_14h21.11.616,untitled,2023.2.3,60.0454904635641,2024-01-08 14h39.05.878894 -0500,
11,"[-0.64, -0.4]",space,0,17,17,17,,,,,,,,,1753.2501672999997,,,,,,,,,,,,,,,,,,,,,,,,,,,,1753.2345771999999,1753.2501672999997,1753.2501672999997,1753.7334744,1753.7508193999997,1756.2338602,1756.2340639999998,None,0,,,,,,,,,,,,,,,,,,,,,,,,,,,,,,,,,,,,,,,,,,,nback44,001,2024-01-08_14h21.11.616,untitled,2023.2.3,60.0454904635641,2024-01-08 14h39.05.878894 -0500,
11,"[-0.64, -0.4]",space,0,18,18,18,,,,,,,,,1756.2503883,,,,,,,,,,,,,,,,,,,,,,,,,,,,1756.2348367,1756.2503883,1756.2503883,1756.7337880999999,1756.7504083999997,1759.2338879999998,1759.2340011000001,None,0,,,,,,,,,,,,,,,,,,,,,,,,,,,,,,,,,,,,,,,,,,,nback44,001,2024-01-08_14h21.11.616,untitled,2023.2.3,60.0454904635641,2024-01-08 14h39.05.878894 -0500,
7,"[0.3, 0]",None,0,19,19,19,,,,,,,,,1759.2505508999998,,,,,,,,,,,,,,,,,,,,,,,,,,,,1759.2348269,1759.2505508999998,1759.2505508999998,1759.7338034,1759.7502983999998,1762.2334769999998,1762.2338958999999,None,1,,,,,,,,,,,,,,,,,,,,,,,,,,,,,,,,,,,,,,,,,,,nback44,001,2024-01-08_14h21.11.616,untitled,2023.2.3,60.0454904635641,2024-01-08 14h39.05.878894 -0500,
3,"[0, 0.2]",None,0,20,20,20,,,,,,,,,1762.2499927,,,,,,,,,,,,,,,,,,,,,,,,,,,,1762.2342814999997,1762.2499927,1762.2499927,1762.7336256999997,1762.7502894,1765.2333390999997,1765.2334357,None,1,,,,,,,,,,,,,,,,,,,,,,,,,,,,,,,,,,,,,,,,,,,nback44,001,2024-01-08_14h21.11.616,untitled,2023.2.3,60.0454904635641,2024-01-08 14h39.05.878894 -0500,
10,"[0, -0.2]",None,0,21,21,21,,,,,,,,,1765.2502842999997,,,,,,,,,,,,,,,,,,,,,,,,,,,,1765.2338047999997,1765.2502842999997,1765.2502842999997,1765.7333082,1765.7502012,1768.2332597,1768.2333626999998,None,1,,,,,,,,,,,,,,,,,,,,,,,,,,,,,,,,,,,,,,,,,,,nback44,001,2024-01-08_14h21.11.616,untitled,2023.2.3,60.0454904635641,2024-01-08 14h39.05.878894 -0500,
1,"[-0.64, 0.4]",None,0,22,22,22,,,,,,,,,1768.2501895,,,,,,,,,,,,,,,,,,,,,,,,,,,,1768.2337788,1768.2501895,1768.2501895,1768.733662,1768.7502325,1771.2332621,1771.2334028999999,None,1,,,,,,,,,,,,,,,,,,,,,,,,,,,,,,,,,,,,,,,,,,,nback44,001,2024-01-08_14h21.11.616,untitled,2023.2.3,60.0454904635641,2024-01-08 14h39.05.878894 -0500,
2,"[0.64, 0.4]",None,0,23,23,23,,,,,,,,,1771.2497890999998,,,,,,,,,,,,,,,,,,,,,,,,,,,,1771.2339324,1771.2497890999998,1771.2497890999998,1771.733432,1771.7499167,1774.2331724,1774.2332913999999,None,1,,,,,,,,,,,,,,,,,,,,,,,,,,,,,,,,,,,,,,,,,,,nback44,001,2024-01-08_14h21.11.616,untitled,2023.2.3,60.0454904635641,2024-01-08 14h39.05.878894 -0500,
6,"[-0.3, 0]",None,0,24,24,24,,,,,,,,,1774.2500758,,,,,,,,,,,,,,,,,,,,,,,,,,,,1774.2336362,1774.2500758,1774.2500758,1774.7338203999998,1774.7498109999997,1777.2330797,1777.2332045999997,None,1,,,,,,,,,,,,,,,,,,,,,,,,,,,,,,,,,,,,,,,,,,,nback44,001,2024-01-08_14h21.11.616,untitled,2023.2.3,60.0454904635641,2024-01-08 14h39.05.878894 -0500,
3,"[0, 0.2]",None,0,25,25,25,,,,,,,,,1777.2499693,,,,,,,,,,,,,,,,,,,,,,,,,,,,1777.2335497999998,1777.2499693,1777.2499693,1777.7334471,1777.7501244,1780.2333974999997,1780.2335122999998,None,1,,,,,,,,,,,,,,,,,,,,,,,,,,,,,,,,,,,,,,,,,,,nback44,001,2024-01-08_14h21.11.616,untitled,2023.2.3,60.0454904635641,2024-01-08 14h39.05.878894 -0500,
11,"[-0.64, -0.4]",space,0,26,26,26,,,,,,,,,1780.2497933,,,,,,,,,,,,,,,,,,,,,,,,,,,,1780.2338442999999,1780.2497933,1780.2497933,1780.7332692999998,1780.7496794999997,1783.2337318,1783.233842,space,1,0.43638719999989917,None,,,,,,,,,,,,,,,,,,,,,,,,,,,,,,,,,,,,,,,,,nback44,001,2024-01-08_14h21.11.616,untitled,2023.2.3,60.0454904635641,2024-01-08 14h39.05.878894 -0500,
1,"[-0.64, 0.4]",None,0,27,27,27,,,,,,,,,1783.2501653,,,,,,,,,,,,,,,,,,,,,,,,,,,,1783.2346364,1783.2501653,1783.2501653,1783.7333639999997,1783.7497039999998,1786.2333579,1786.2334953,None,1,,,,,,,,,,,,,,,,,,,,,,,,,,,,,,,,,,,,,,,,,,,nback44,001,2024-01-08_14h21.11.616,untitled,2023.2.3,60.0454904635641,2024-01-08 14h39.05.878894 -0500,
3,"[0, 0.2]",None,0,28,28,28,,,,,,,,,1786.249574,,,,,,,,,,,,,,,,,,,,,,,,,,,,1786.2338562999998,1786.249574,1786.249574,1786.7331601,1786.7495888999997,1789.2331429,1789.2332395999997,None,1,,,,,,,,,,,,,,,,,,,,,,,,,,,,,,,,,,,,,,,,,,,nback44,001,2024-01-08_14h21.11.616,untitled,2023.2.3,60.0454904635641,2024-01-08 14h39.05.878894 -0500,
9,"[0.2, -0.1]",None,0,29,29,29,,,,,,,,,1789.2495879999997,,,,,,,,,,,,,,,,,,,,,,,,,,,,1789.2339352999998,1789.2495879999997,1789.2495879999997,1789.733588,1789.7495952,1792.2332452,1792.2334569999998,None,1,,,,,,,,,,,,,,,,,,,,,,,,,,,,,,,,,,,,,,,,,,,nback44,001,2024-01-08_14h21.11.616,untitled,2023.2.3,60.0454904635641,2024-01-08 14h39.05.878894 -0500,
8,"[-0.2, -0.1]",None,0,30,30,30,,,,,,,,,1792.2496089,,,,,,,,,,,,,,,,,,,,,,,,,,,,1792.2342488999998,1792.2496089,1792.2496089,1792.7331983,1792.7497743,1795.2332155999998,1795.2333402,None,1,,,,,,,,,,,,,,,,,,,,,,,,,,,,,,,,,,,,,,,,,,,nback44,001,2024-01-08_14h21.11.616,untitled,2023.2.3,60.0454904635641,2024-01-08 14h39.05.878894 -0500,
12,"[0.64, -0.4]",None,0,31,31,31,,,,,,,,,1795.2498141,,,,,,,,,,,,,,,,,,,,,,,,,,,,1795.2338067,1795.2498141,1795.2498141,1795.7328161,1795.7498557999998,1798.2330769999999,1798.2331762,None,1,,,,,,,,,,,,,,,,,,,,,,,,,,,,,,,,,,,,,,,,,,,nback44,001,2024-01-08_14h21.11.616,untitled,2023.2.3,60.0454904635641,2024-01-08 14h39.05.878894 -0500,
9,"[0.2, -0.1]",None,0,32,32,32,,,,,,,,,1798.2499539,,,,,,,,,,,,,,,,,,,,,,,,,,,,1798.2335107999997,1798.2499539,1798.2499539,1798.7330677,1798.7494148,1801.2328999000001,1801.2330005999997,None,1,,,,,,,,,,,,,,,,,,,,,,,,,,,,,,,,,,,,,,,,,,,nback44,001,2024-01-08_14h21.11.616,untitled,2023.2.3,60.0454904635641,2024-01-08 14h39.05.878894 -0500,
11,"[-0.64, -0.4]",space,0,33,33,33,,,,,,,,,1801.2494229,,,,,,,,,,,,,,,,,,,,,,,,,,,,1801.2333917,1801.2494229,1801.2494229,1801.7335429,1801.749926,1804.2327854,1804.232881,space,1,0.4935146999996505,None,,,,,,,,,,,,,,,,,,,,,,,,,,,,,,,,,,,,,,,,,nback44,001,2024-01-08_14h21.11.616,untitled,2023.2.3,60.0454904635641,2024-01-08 14h39.05.878894 -0500,
7,"[0.3, 0]",None,0,34,34,34,,,,,,,,,1804.2496256,,,,,,,,,,,,,,,,,,,,,,,,,,,,1804.2332883999998,1804.2496256,1804.2496256,1804.7330299999999,1804.7499214999998,1807.2329578999997,1807.23315,None,1,,,,,,,,,,,,,,,,,,,,,,,,,,,,,,,,,,,,,,,,,,,nback44,001,2024-01-08_14h21.11.616,untitled,2023.2.3,60.0454904635641,2024-01-08 14h39.05.878894 -0500,
11,"[-0.64, -0.4]",space,0,35,35,35,,,,,,,,,1807.2496188999999,,,,,,,,,,,,,,,,,,,,,,,,,,,,1807.2338897,1807.2496188999999,1807.2496188999999,1807.7328147999997,1807.7494739999997,1810.2328497999997,1810.2329467999998,space,1,0.469724000000042,None,,,,,,,,,,,,,,,,,,,,,,,,,,,,,,,,,,,,,,,,,nback44,001,2024-01-08_14h21.11.616,untitled,2023.2.3,60.0454904635641,2024-01-08 14h39.05.878894 -0500,
4,"[-0.2, 0.1]",None,0,36,36,36,,,,,,,,,1810.2493626,,,,,,,,,,,,,,,,,,,,,,,,,,,,1810.2333979,1810.2493626,1810.2493626,1810.7330321999998,1810.7494238,1813.2328502,1813.2330383999997,None,1,,,,,,,,,,,,,,,,,,,,,,,,,,,,,,,,,,,,,,,,,,,nback44,001,2024-01-08_14h21.11.616,untitled,2023.2.3,60.0454904635641,2024-01-08 14h39.05.878894 -0500,
5,"[0.2, 0.1]",None,0,37,37,37,,,,,,,,,1813.2495211,,,,,,,,,,,,,,,,,,,,,,,,,,,,1813.2337499,1813.2495211,1813.2495211,1813.7327919999998,1813.7493949,1816.2327372,1816.2328678999997,None,1,,,,,,,,,,,,,,,,,,,,,,,,,,,,,,,,,,,,,,,,,,,nback44,001,2024-01-08_14h21.11.616,untitled,2023.2.3,60.0454904635641,2024-01-08 14h39.05.878894 -0500,
6,"[-0.3, 0]",None,0,38,38,38,,,,,,,,,1816.2492048,,,,,,,,,,,,,,,,,,,,,,,,,,,,1816.2335554000001,1816.2492048,1816.2492048,1816.7328005999998,1816.7492665999998,1819.2325250999997,1819.2326390999997,None,1,,,,,,,,,,,,,,,,,,,,,,,,,,,,,,,,,,,,,,,,,,,nback44,001,2024-01-08_14h21.11.616,untitled,2023.2.3,60.0454904635641,2024-01-08 14h39.05.878894 -0500,
11,"[-0.64, -0.4]",space,0,39,39,39,,,,,,,,,1819.2492281999998,,,,,,,,,,,,,,,,,,,,,,,,,,,,1819.2329891999998,1819.2492281999998,1819.2492281999998,1819.7326831,1819.7493043,1822.2327295,1822.2329467999998,space,1,0.3107932999996592,None,,,,,,,,,,,,,,,,,,,,,,,,,,,,,,,,,,,,,,,,,nback44,001,2024-01-08_14h21.11.616,untitled,2023.2.3,60.0454904635641,2024-01-08 14h39.05.878894 -0500,
,,,,,,,,,,,,,,,,,,,,,,,,,,,,,,,,,,,,,,,,,,,,,,,,,,,,,,1822.2337303,1822.2495024999998,1822.2495024999998,1859.4998676999999,space,37.244200199999796,None,,,,,,,,,,,,,,,,,,,,,,,,,,,,,,,,,,nback44,001,2024-01-08_14h21.11.616,untitled,2023.2.3,60.0454904635641,2024-01-08 14h39.05.878894 -0500,
10,"[0, -0.2]",None,,,,,0,0,0,0,,,,,1860.5161986999997,,,,,,,,,,,,,,,,,,,,,,,,1859.4998894,1859.5157547999997,1860.5161986999997,1860.4993618999997,,,,,,,,,,,,,,,,,,,1860.5141945,1860.5161986999997,1860.5161986999997,1860.9985398,1861.0318450999998,1863.4986722999997,1863.5153351999998,1863.4996136,None,1,,,,,,,,,,,,,,,,,,,,,,,,nback44,001,2024-01-08_14h21.11.616,untitled,2023.2.3,60.0454904635641,2024-01-08 14h39.05.878894 -0500,
5,"[0.2, 0.1]",None,,,,,0,1,1,1,,,,,1863.5153351999998,,,,,,,,,,,,,,,,,,,,,,,,,,,,,,,,,,,,,,,,,,,,,,1863.5005919,1863.5153351999998,1863.5153351999998,1864.0155148999997,1864.0155148999997,1866.5153617,1866.5153617,1866.4994235999998,None,1,,,,,,,,,,,,,,,,,,,,,,,,nback44,001,2024-01-08_14h21.11.616,untitled,2023.2.3,60.0454904635641,2024-01-08 14h39.05.878894 -0500,
6,"[-0.3, 0]",None,,,,,0,2,2,2,,,,,1866.5153617,,,,,,,,,,,,,,,,,,,,,,,,,,,,,,,,,,,,,,,,,,,,,,1866.5000777999999,1866.5153617,1866.5153617,1867.0154269999998,1867.0154269999998,1869.5153998,1869.5153998,1869.4996643,None,1,,,,,,,,,,,,,,,,,,,,,,,,nback44,001,2024-01-08_14h21.11.616,untitled,2023.2.3,60.0454904635641,2024-01-08 14h39.05.878894 -0500,
6,"[-0.3, 0]",space,,,,,0,3,3,3,,,,,1869.5153998,,,,,,,,,,,,,,,,,,,,,,,,,,,,,,,,,,,,,,,,,,,,,,1869.5004461999997,1869.5153998,1869.5153998,1870.0155302999997,1870.0155302999997,1872.5152291,1872.5152291,1872.499346,space,1,0.4210328999997728,None,,,,,,,,,,,,,,,,,,,,,,nback44,001,2024-01-08_14h21.11.616,untitled,2023.2.3,60.0454904635641,2024-01-08 14h39.05.878894 -0500,
12,"[0.64, -0.4]",None,,,,,0,4,4,4,,,,,1872.5152291,,,,,,,,,,,,,,,,,,,,,,,,,,,,,,,,,,,,,,,,,,,,,,1872.5005228,1872.5152291,1872.5152291,1873.0152943999997,1873.0152943999997,1875.5153136,1875.5153136,1875.4996352999997,None,1,,,,,,,,,,,,,,,,,,,,,,,,nback44,001,2024-01-08_14h21.11.616,untitled,2023.2.3,60.0454904635641,2024-01-08 14h39.05.878894 -0500,
10,"[0, -0.2]",None,,,,,0,5,5,5,,,,,1875.5153136,,,,,,,,,,,,,,,,,,,,,,,,,,,,,,,,,,,,,,,,,,,,,,1875.5004315,1875.5153136,1875.5153136,1876.0152524,1876.0152524,1878.5151876,1878.5151876,1878.4995445999998,None,1,,,,,,,,,,,,,,,,,,,,,,,,nback44,001,2024-01-08_14h21.11.616,untitled,2023.2.3,60.0454904635641,2024-01-08 14h39.05.878894 -0500,
2,"[0.64, 0.4]",None,,,,,0,6,6,6,,,,,1878.5151876,,,,,,,,,,,,,,,,,,,,,,,,,,,,,,,,,,,,,,,,,,,,,,1878.5003714999998,1878.5151876,1878.5151876,1879.0151969999997,1879.0151969999997,1881.5152236,1881.5152236,1881.4995691,None,1,,,,,,,,,,,,,,,,,,,,,,,,nback44,001,2024-01-08_14h21.11.616,untitled,2023.2.3,60.0454904635641,2024-01-08 14h39.05.878894 -0500,
9,"[0.2, -0.1]",None,,,,,0,7,7,7,,,,,1881.5152236,,,,,,,,,,,,,,,,,,,,,,,,,,,,,,,,,,,,,,,,,,,,,,1881.5004049,1881.5152236,1881.5152236,1882.0153243999998,1882.0153243999998,1884.5150482999998,1884.5150482999998,1884.499311,None,1,,,,,,,,,,,,,,,,,,,,,,,,nback44,001,2024-01-08_14h21.11.616,untitled,2023.2.3,60.0454904635641,2024-01-08 14h39.05.878894 -0500,
9,"[0.2, -0.1]",space,,,,,0,8,8,8,,,,,1884.5150482999998,,,,,,,,,,,,,,,,,,,,,,,,,,,,,,,,,,,,,,,,,,,,,,1884.5001465999999,1884.5150482999998,1884.5150482999998,1885.0150322,1885.0150322,1887.5150005,1887.5150005,1887.4991452999998,space,1,0.5547941999998329,None,,,,,,,,,,,,,,,,,,,,,,nback44,001,2024-01-08_14h21.11.616,untitled,2023.2.3,60.0454904635641,2024-01-08 14h39.05.878894 -0500,
6,"[-0.3, 0]",None,,,,,0,9,9,9,,,,,1887.5150005,,,,,,,,,,,,,,,,,,,,,,,,,,,,,,,,,,,,,,,,,,,,,,1887.4999244,1887.5150005,1887.5150005,1888.0149429999997,1888.0149429999997,1890.5149644999997,1890.5149644999997,1890.4992177,None,1,,,,,,,,,,,,,,,,,,,,,,,,nback44,001,2024-01-08_14h21.11.616,untitled,2023.2.3,60.0454904635641,2024-01-08 14h39.05.878894 -0500,
11,"[-0.64, -0.4]",None,,,,,0,10,10,10,,,,,1890.5149644999997,,,,,,,,,,,,,,,,,,,,,,,,,,,,,,,,,,,,,,,,,,,,,,1890.4998711999997,1890.5149644999997,1890.5149644999997,1891.0151705999997,1891.0151705999997,1893.5147376999998,1893.5147376999998,1893.4991165000001,None,1,,,,,,,,,,,,,,,,,,,,,,,,nback44,001,2024-01-08_14h21.11.616,untitled,2023.2.3,60.0454904635641,2024-01-08 14h39.05.878894 -0500,
11,"[-0.64, -0.4]",space,,,,,0,11,11,11,,,,,1893.5147376999998,,,,,,,,,,,,,,,,,,,,,,,,,,,,,,,,,,,,,,,,,,,,,,1893.4997509,1893.5147376999998,1893.5147376999998,1894.0149894,1894.0149894,1896.5147401,1896.5147401,1896.4987683,space,1,0.7380987000001369,None,,,,,,,,,,,,,,,,,,,,,,nback44,001,2024-01-08_14h21.11.616,untitled,2023.2.3,60.0454904635641,2024-01-08 14h39.05.878894 -0500,
4,"[-0.2, 0.1]",None,,,,,0,12,12,12,,,,,1896.5147401,,,,,,,,,,,,,,,,,,,,,,,,,,,,,,,,,,,,,,,,,,,,,,1896.4995116,1896.5147401,1896.5147401,1897.0147711999998,1897.0147711999998,1899.5149306999997,1899.5149306999997,1899.4990285999997,None,1,,,,,,,,,,,,,,,,,,,,,,,,nback44,001,2024-01-08_14h21.11.616,untitled,2023.2.3,60.0454904635641,2024-01-08 14h39.05.878894 -0500,
3,"[0, 0.2]",None,,,,,0,13,13,13,,,,,1899.5149306999997,,,,,,,,,,,,,,,,,,,,,,,,,,,,,,,,,,,,,,,,,,,,,,1899.4998704999998,1899.5149306999997,1899.5149306999997,1900.0148200999997,1900.0148200999997,1902.5148838,1902.5148838,1902.4992864,None,1,,,,,,,,,,,,,,,,,,,,,,,,nback44,001,2024-01-08_14h21.11.616,untitled,2023.2.3,60.0454904635641,2024-01-08 14h39.05.878894 -0500,
3,"[0, 0.2]",space,,,,,0,14,14,14,,,,,1902.5148838,,,,,,,,,,,,,,,,,,,,,,,,,,,,,,,,,,,,,,,,,,,,,,1902.5001336999999,1902.5148838,1902.5148838,1903.0148570000001,1903.0148570000001,1905.5147506999997,1905.5147506999997,1905.4988868,space,1,0.41658419999976104,None,,,,,,,,,,,,,,,,,,,,,,nback44,001,2024-01-08_14h21.11.616,untitled,2023.2.3,60.0454904635641,2024-01-08 14h39.05.878894 -0500,
8,"[-0.2, -0.1]",None,,,,,0,15,15,15,,,,,1905.5147506999997,,,,,,,,,,,,,,,,,,,,,,,,,,,,,,,,,,,,,,,,,,,,,,1905.4998974,1905.5147506999997,1905.5147506999997,1906.0147959,1906.0147959,1908.5147268,1908.5147268,1908.4990161,None,1,,,,,,,,,,,,,,,,,,,,,,,,nback44,001,2024-01-08_14h21.11.616,untitled,2023.2.3,60.0454904635641,2024-01-08 14h39.05.878894 -0500,
1,"[-0.64, 0.4]",None,,,,,0,16,16,16,,,,,1908.5147268,,,,,,,,,,,,,,,,,,,,,,,,,,,,,,,,,,,,,,,,,,,,,,1908.4998145,1908.5147268,1908.5147268,1909.0146182999997,1909.0146182999997,1911.5146090999997,1911.5146090999997,1911.4987934,None,1,,,,,,,,,,,,,,,,,,,,,,,,nback44,001,2024-01-08_14h21.11.616,untitled,2023.2.3,60.0454904635641,2024-01-08 14h39.05.878894 -0500,
2,"[0.64, 0.4]",None,,,,,0,17,17,17,,,,,1911.5146090999997,,,,,,,,,,,,,,,,,,,,,,,,,,,,,,,,,,,,,,,,,,,,,,1911.4994529,1911.5146090999997,1911.5146090999997,1912.0148280999997,1912.0148280999997,1914.5145405999997,1914.5145405999997,1914.4982574,None,1,,,,,,,,,,,,,,,,,,,,,,,,nback44,001,2024-01-08_14h21.11.616,untitled,2023.2.3,60.0454904635641,2024-01-08 14h39.05.878894 -0500,
4,"[-0.2, 0.1]",None,,,,,0,18,18,18,,,,,1914.5145405999997,,,,,,,,,,,,,,,,,,,,,,,,,,,,,,,,,,,,,,,,,,,,,,1914.4985901999999,1914.5145405999997,1914.5145405999997,1915.0144326,1915.0144326,1917.5144627,1917.5144627,1917.4987836,None,1,,,,,,,,,,,,,,,,,,,,,,,,nback44,001,2024-01-08_14h21.11.616,untitled,2023.2.3,60.0454904635641,2024-01-08 14h39.05.878894 -0500,
4,"[-0.2, 0.1]",space,,,,,0,19,19,19,,,,,1917.5144627,,,,,,,,,,,,,,,,,,,,,,,,,,,,,,,,,,,,,,,,,,,,,,1917.4995559999998,1917.5144627,1917.5144627,1918.0144857999999,1918.0144857999999,1920.5143733,1920.5143733,1920.4984842,space,1,0.40700020000031145,None,,,,,,,,,,,,,,,,,,,,,,nback44,001,2024-01-08_14h21.11.616,untitled,2023.2.3,60.0454904635641,2024-01-08 14h39.05.878894 -0500,
8,"[-0.2, -0.1]",None,,,,,0,20,20,20,,,,,1920.5143733,,,,,,,,,,,,,,,,,,,,,,,,,,,,,,,,,,,,,,,,,,,,,,1920.4993099999997,1920.5143733,1920.5143733,1921.0144372,1921.0144372,1923.5143602999997,1923.5143602999997,1923.4985650999997,None,1,,,,,,,,,,,,,,,,,,,,,,,,nback44,001,2024-01-08_14h21.11.616,untitled,2023.2.3,60.0454904635641,2024-01-08 14h39.05.878894 -0500,
5,"[0.2, 0.1]",None,,,,,0,21,21,21,,,,,1923.5143602999997,,,,,,,,,,,,,,,,,,,,,,,,,,,,,,,,,,,,,,,,,,,,,,1923.4993085,1923.5143602999997,1923.5143602999997,1924.0143767999998,1924.0143767999998,1926.5143580999998,1926.5143580999998,1926.4987802,None,1,,,,,,,,,,,,,,,,,,,,,,,,nback44,001,2024-01-08_14h21.11.616,untitled,2023.2.3,60.0454904635641,2024-01-08 14h39.05.878894 -0500,
5,"[0.2, 0.1]",space,,,,,0,22,22,22,,,,,1926.5143580999998,,,,,,,,,,,,,,,,,,,,,,,,,,,,,,,,,,,,,,,,,,,,,,1926.4996013999998,1926.5143580999998,1926.5143580999998,1927.0143469999998,1927.0143469999998,1929.5142597999998,1929.5142597999998,1929.4987394,space,1,0.9118011000000479,None,,,,,,,,,,,,,,,,,,,,,,nback44,001,2024-01-08_14h21.11.616,untitled,2023.2.3,60.0454904635641,2024-01-08 14h39.05.878894 -0500,
1,"[-0.64, 0.4]",None,,,,,0,23,23,23,,,,,1929.5142597999998,,,,,,,,,,,,,,,,,,,,,,,,,,,,,,,,,,,,,,,,,,,,,,1929.4998332999999,1929.5142597999998,1929.5142597999998,1930.0143678999998,1930.0143678999998,1932.5141896,1932.5141896,1932.4982577,None,1,,,,,,,,,,,,,,,,,,,,,,,,nback44,001,2024-01-08_14h21.11.616,untitled,2023.2.3,60.0454904635641,2024-01-08 14h39.05.878894 -0500,
3,"[0, 0.2]",None,,,,,0,24,24,24,,,,,1932.5141896,,,,,,,,,,,,,,,,,,,,,,,,,,,,,,,,,,,,,,,,,,,,,,1932.4989179999998,1932.5141896,1932.5141896,1933.0145235999998,1933.0145235999998,1935.5143405,1935.5143405,1935.4986269,None,1,,,,,,,,,,,,,,,,,,,,,,,,nback44,001,2024-01-08_14h21.11.616,untitled,2023.2.3,60.0454904635641,2024-01-08 14h39.05.878894 -0500,
6,"[-0.3, 0]",None,,,,,0,25,25,25,,,,,1935.5143405,,,,,,,,,,,,,,,,,,,,,,,,,,,,,,,,,,,,,,,,,,,,,,1935.4994082999997,1935.5143405,1935.5143405,1936.014404,1936.014404,1938.5141226,1938.5141226,1938.4982393,None,1,,,,,,,,,,,,,,,,,,,,,,,,nback44,001,2024-01-08_14h21.11.616,untitled,2023.2.3,60.0454904635641,2024-01-08 14h39.05.878894 -0500,
1,"[-0.64, 0.4]",None,,,,,0,26,26,26,,,,,1938.5141226,,,,,,,,,,,,,,,,,,,,,,,,,,,,,,,,,,,,,,,,,,,,,,1938.4990445999997,1938.5141226,1938.5141226,1939.0142409,1939.0142409,1941.5142496999997,1941.5142496999997,1941.4982977,None,1,,,,,,,,,,,,,,,,,,,,,,,,nback44,001,2024-01-08_14h21.11.616,untitled,2023.2.3,60.0454904635641,2024-01-08 14h39.05.878894 -0500,
1,"[-0.64, 0.4]",space,,,,,0,27,27,27,,,,,1941.5142496999997,,,,,,,,,,,,,,,,,,,,,,,,,,,,,,,,,,,,,,,,,,,,,,1941.4990238,1941.5142496999997,1941.5142496999997,1942.0141217999999,1942.0141217999999,1944.5142244999997,1944.5142244999997,1944.4982949,space,1,0.3653874999999971,None,,,,,,,,,,,,,,,,,,,,,,nback44,001,2024-01-08_14h21.11.616,untitled,2023.2.3,60.0454904635641,2024-01-08 14h39.05.878894 -0500,
1,"[-0.64, 0.4]",space,,,,,0,28,28,28,,,,,1944.5142244999997,,,,,,,,,,,,,,,,,,,,,,,,,,,,,,,,,,,,,,,,,,,,,,1944.4992038999999,1944.5142244999997,1944.5142244999997,1945.0142526,1945.0142526,1947.5139871000001,1947.5139871000001,1947.4983717999999,space,1,0.7749602999997478,None,,,,,,,,,,,,,,,,,,,,,,nback44,001,2024-01-08_14h21.11.616,untitled,2023.2.3,60.0454904635641,2024-01-08 14h39.05.878894 -0500,
3,"[0, 0.2]",None,,,,,0,29,29,29,,,,,1947.5139871000001,,,,,,,,,,,,,,,,,,,,,,,,,,,,,,,,,,,,,,,,,,,,,,1947.4992994,1947.5139871000001,1947.5139871000001,1948.0140996,1948.0140996,1950.5139822,1950.5139822,1950.4983177,None,1,,,,,,,,,,,,,,,,,,,,,,,,nback44,001,2024-01-08_14h21.11.616,untitled,2023.2.3,60.0454904635641,2024-01-08 14h39.05.878894 -0500,
12,"[0.64, -0.4]",None,,,,,0,30,30,30,,,,,1950.5139822,,,,,,,,,,,,,,,,,,,,,,,,,,,,,,,,,,,,,,,,,,,,,,1950.4991784,1950.5139822,1950.5139822,1951.0140772,1951.0140772,1953.5138754999998,1953.5138754999998,1953.4983137,None,1,,,,,,,,,,,,,,,,,,,,,,,,nback44,001,2024-01-08_14h21.11.616,untitled,2023.2.3,60.0454904635641,2024-01-08 14h39.05.878894 -0500,
12,"[0.64, -0.4]",space,,,,,0,31,31,31,,,,,1953.5138754999998,,,,,,,,,,,,,,,,,,,,,,,,,,,,,,,,,,,,,,,,,,,,,,1953.4991031999998,1953.5138754999998,1953.5138754999998,1954.0139704999997,1954.0139704999997,1956.5138075,1956.5138075,1956.4978342999998,space,1,0.7213542999998026,None,,,,,,,,,,,,,,,,,,,,,,nback44,001,2024-01-08_14h21.11.616,untitled,2023.2.3,60.0454904635641,2024-01-08 14h39.05.878894 -0500,
2,"[0.64, 0.4]",None,,,,,0,32,32,32,,,,,1956.5138075,,,,,,,,,,,,,,,,,,,,,,,,,,,,,,,,,,,,,,,,,,,,,,1956.498552,1956.5138075,1956.5138075,1957.0139590999997,1957.0139590999997,1959.5137399999999,1959.5137399999999,1959.4978599,None,1,,,,,,,,,,,,,,,,,,,,,,,,nback44,001,2024-01-08_14h21.11.616,untitled,2023.2.3,60.0454904635641,2024-01-08 14h39.05.878894 -0500,
1,"[-0.64, 0.4]",None,,,,,0,33,33,33,,,,,1959.5137399999999,,,,,,,,,,,,,,,,,,,,,,,,,,,,,,,,,,,,,,,,,,,,,,1959.4984512,1959.5137399999999,1959.5137399999999,1960.0138463999997,1960.0138463999997,1962.5139018999998,1962.5139018999998,1962.4982446,None,1,,,,,,,,,,,,,,,,,,,,,,,,nback44,001,2024-01-08_14h21.11.616,untitled,2023.2.3,60.0454904635641,2024-01-08 14h39.05.878894 -0500,
7,"[0.3, 0]",None,,,,,0,34,34,34,,,,,1962.5139018999998,,,,,,,,,,,,,,,,,,,,,,,,,,,,,,,,,,,,,,,,,,,,,,1962.4990945,1962.5139018999998,1962.5139018999998,1963.0137644000001,1963.0137644000001,1965.5136847999997,1965.5136847999997,1965.4980335999999,None,1,,,,,,,,,,,,,,,,,,,,,,,,nback44,001,2024-01-08_14h21.11.616,untitled,2023.2.3,60.0454904635641,2024-01-08 14h39.05.878894 -0500,
7,"[0.3, 0]",space,,,,,0,35,35,35,,,,,1965.5136847999997,,,,,,,,,,,,,,,,,,,,,,,,,,,,,,,,,,,,,,,,,,,,,,1965.4987883,1965.5136847999997,1965.5136847999997,1966.0136807999997,1966.0136807999997,1968.5136979999997,1968.5136979999997,1968.4980581999998,space,1,0.45163370000000214,None,,,,,,,,,,,,,,,,,,,,,,nback44,001,2024-01-08_14h21.11.616,untitled,2023.2.3,60.0454904635641,2024-01-08 14h39.05.878894 -0500,
11,"[-0.64, -0.4]",None,,,,,0,36,36,36,,,,,1968.5136979999997,,,,,,,,,,,,,,,,,,,,,,,,,,,,,,,,,,,,,,,,,,,,,,1968.4989789,1968.5136979999997,1968.5136979999997,1969.0136564,1969.0136564,1971.5135833999998,1971.5135833999998,1971.4977786,None,1,,,,,,,,,,,,,,,,,,,,,,,,nback44,001,2024-01-08_14h21.11.616,untitled,2023.2.3,60.0454904635641,2024-01-08 14h39.05.878894 -0500,
2,"[0.64, 0.4]",None,,,,,0,37,37,37,,,,,1971.5135833999998,,,,,,,,,,,,,,,,,,,,,,,,,,,,,,,,,,,,,,,,,,,,,,1971.4985069999998,1971.5135833999998,1971.5135833999998,1972.0135842999998,1972.0135842999998,1974.5134026,1974.5134026,1974.4973967,None,1,,,,,,,,,,,,,,,,,,,,,,,,nback44,001,2024-01-08_14h21.11.616,untitled,2023.2.3,60.0454904635641,2024-01-08 14h39.05.878894 -0500,
6,"[-0.3, 0]",None,,,,,0,38,38,38,,,,,1974.5134026,,,,,,,,,,,,,,,,,,,,,,,,,,,,,,,,,,,,,,,,,,,,,,1974.4977162,1974.5134026,1974.5134026,1975.0135455999998,1975.0135455999998,1977.5135869,1977.5135869,1977.4977743,None,1,,,,,,,,,,,,,,,,,,,,,,,,nback44,001,2024-01-08_14h21.11.616,untitled,2023.2.3,60.0454904635641,2024-01-08 14h39.05.878894 -0500,
10,"[0, -0.2]",None,,,,,0,39,39,39,,,,,1977.5135869,,,,,,,,,,,,,,,,,,,,,,,,,,,,,,,,,,,,,,,,,,,,,,1977.4983997,1977.5135869,1977.5135869,1978.0135685,1978.0135685,1980.5136503999997,1980.5136503999997,1980.4977199,None,1,,,,,,,,,,,,,,,,,,,,,,,,nback44,001,2024-01-08_14h21.11.616,untitled,2023.2.3,60.0454904635641,2024-01-08 14h39.05.878894 -0500,
,,,,,,,,,,,,,,,,,,,,,,,,,,,,,,,,,,,,,,,,,,,,,,,,,,,,,,,,,,,,,,,,,,,,,,,,,1980.4982873999998,1980.5136503999997,1980.5136503999997,2021.6812015,space,41.161158400000204,None,,,,,,,,,,,,,,,nback44,001,2024-01-08_14h21.11.616,untitled,2023.2.3,60.0454904635641,2024-01-08 14h39.05.878894 -0500,
,"[0.2, 0.1]",None,,,,,,,,,0,0,0,0,2022.7009588,,,,,,,,,,,,,,,,,,,,,,,,2021.6812491,2021.6961581,2022.7009588,2022.6807168999999,,,,,,,,,,,,,,,,,,,,,,,,,,,,,,,,,,,,,,2022.6990384,2022.7009588,2022.7009588,2023.1961533999997,2023.2128693999998,2025.6961336,2025.6963185,None,1,,,,,,nback44,001,2024-01-08_14h21.11.616,untitled,2023.2.3,60.0454904635641,2024-01-08 14h39.05.878894 -0500,
,"[0.64, 0.4]",None,,,,,,,,,0,1,1,1,2025.7129424,,,,,,,,,,,,,,,,,,,,,,,,,,,,,,,,,,,,,,,,,,,,,,,,,,,,,,,,,,,,,,,,,2025.6972052,2025.7129424,2025.7129424,2026.1962236999998,2026.212791,2028.6959993,2028.6962153999998,None,1,,,,,,nback44,001,2024-01-08_14h21.11.616,untitled,2023.2.3,60.0454904635641,2024-01-08 14h39.05.878894 -0500,
,"[-0.3, 0]",None,,,,,,,,,0,2,2,2,2028.7129098,,,,,,,,,,,,,,,,,,,,,,,,,,,,,,,,,,,,,,,,,,,,,,,,,,,,,,,,,,,,,,,,,2028.6970818999998,2028.7129098,2028.7129098,2029.1961766,2029.2127302999997,2031.6959647999997,2031.6961656999997,None,1,,,,,,nback44,001,2024-01-08_14h21.11.616,untitled,2023.2.3,60.0454904635641,2024-01-08 14h39.05.878894 -0500,
,"[0.2, -0.1]",None,,,,,,,,,0,3,3,3,2031.7127624999998,,,,,,,,,,,,,,,,,,,,,,,,,,,,,,,,,,,,,,,,,,,,,,,,,,,,,,,,,,,,,,,,,2031.6969298999998,2031.7127624999998,2031.7127624999998,2032.1960171,2032.2127193000001,2034.6959475999997,2034.6961505999998,None,1,,,,,,nback44,001,2024-01-08_14h21.11.616,untitled,2023.2.3,60.0454904635641,2024-01-08 14h39.05.878894 -0500,
,"[0, 0.2]",None,,,,,,,,,0,4,4,4,2034.7127983999999,,,,,,,,,,,,,,,,,,,,,,,,,,,,,,,,,,,,,,,,,,,,,,,,,,,,,,,,,,,,,,,,,2034.6969147999998,2034.7127983999999,2034.7127983999999,2035.1961223999997,2035.2126663,2037.6960411,2037.6962700999998,None,1,,,,,,nback44,001,2024-01-08_14h21.11.616,untitled,2023.2.3,60.0454904635641,2024-01-08 14h39.05.878894 -0500,
,"[0.2, -0.1]",space,,,,,,,,,0,5,5,5,2037.7125369999999,,,,,,,,,,,,,,,,,,,,,,,,,,,,,,,,,,,,,,,,,,,,,,,,,,,,,,,,,,,,,,,,,2037.6970938,2037.7125369999999,2037.7125369999999,2038.1960104,2038.2127827999998,2040.6959327,2040.6961468,space,1,0.9462241999999605,None,,,,nback44,001,2024-01-08_14h21.11.616,untitled,2023.2.3,60.0454904635641,2024-01-08 14h39.05.878894 -0500,
,"[0, -0.2]",None,,,,,,,,,0,6,6,6,2040.7125065999999,,,,,,,,,,,,,,,,,,,,,,,,,,,,,,,,,,,,,,,,,,,,,,,,,,,,,,,,,,,,,,,,,2040.6975257,2040.7125065999999,2040.7125065999999,2041.1960909999998,2041.2126768999997,2043.695898,2043.6961154,None,1,,,,,,nback44,001,2024-01-08_14h21.11.616,untitled,2023.2.3,60.0454904635641,2024-01-08 14h39.05.878894 -0500,
,"[0.64, -0.4]",None,,,,,,,,,0,7,7,7,2043.7125272999997,,,,,,,,,,,,,,,,,,,,,,,,,,,,,,,,,,,,,,,,,,,,,,,,,,,,,,,,,,,,,,,,,2043.6969488,2043.7125272999997,2043.7125272999997,2044.1957072,2044.2124450000001,2046.6958218999998,2046.6960236999998,None,1,,,,,,nback44,001,2024-01-08_14h21.11.616,untitled,2023.2.3,60.0454904635641,2024-01-08 14h39.05.878894 -0500,
,"[0.3, 0]",None,,,,,,,,,0,8,8,8,2046.7126892,,,,,,,,,,,,,,,,,,,,,,,,,,,,,,,,,,,,,,,,,,,,,,,,,,,,,,,,,,,,,,,,,2046.6967893,2046.7126892,2046.7126892,2047.1957775,2047.2126684,2049.6958191,2049.6960298999998,space,0,1.180446999999731,None,,,,nback44,001,2024-01-08_14h21.11.616,untitled,2023.2.3,60.0454904635641,2024-01-08 14h39.05.878894 -0500,
,"[0.64, -0.4]",space,,,,,,,,,0,9,9,9,2049.7124667,,,,,,,,,,,,,,,,,,,,,,,,,,,,,,,,,,,,,,,,,,,,,,,,,,,,,,,,,,,,,,,,,2049.6970352,2049.7124667,2049.7124667,2050.1958528,2050.2124077,2052.6957644999998,2052.6959435,space,1,1.7092158000000381,None,,,,nback44,001,2024-01-08_14h21.11.616,untitled,2023.2.3,60.0454904635641,2024-01-08 14h39.05.878894 -0500,
,"[-0.64, 0.4]",None,,,,,,,,,0,10,10,10,2052.7124174,,,,,,,,,,,,,,,,,,,,,,,,,,,,,,,,,,,,,,,,,,,,,,,,,,,,,,,,,,,,,,,,,2052.69692,2052.7124174,2052.7124174,2053.1957489,2053.2125929999997,2055.6957479,2055.6959438,None,1,,,,,,nback44,001,2024-01-08_14h21.11.616,untitled,2023.2.3,60.0454904635641,2024-01-08 14h39.05.878894 -0500,
,"[0.2, 0.1]",None,,,,,,,,,0,11,11,11,2055.7122392,,,,,,,,,,,,,,,,,,,,,,,,,,,,,,,,,,,,,,,,,,,,,,,,,,,,,,,,,,,,,,,,,2055.6966789999997,2055.7122392,2055.7122392,2056.1956009,2056.2124189,2058.6956640999997,2058.6959171999997,None,1,,,,,,nback44,001,2024-01-08_14h21.11.616,untitled,2023.2.3,60.0454904635641,2024-01-08 14h39.05.878894 -0500,
,"[0.3, 0]",None,,,,,,,,,0,12,12,12,2058.7122778,,,,,,,,,,,,,,,,,,,,,,,,,,,,,,,,,,,,,,,,,,,,,,,,,,,,,,,,,,,,,,,,,2058.696715,2058.7122778,2058.7122778,2059.1956385999997,2059.2121558999997,2061.6956236,2061.6958199,None,1,,,,,,nback44,001,2024-01-08_14h21.11.616,untitled,2023.2.3,60.0454904635641,2024-01-08 14h39.05.878894 -0500,
,"[0.2, 0.1]",space,,,,,,,,,0,13,13,13,2061.7123256,,,,,,,,,,,,,,,,,,,,,,,,,,,,,,,,,,,,,,,,,,,,,,,,,,,,,,,,,,,,,,,,,2061.6966247,2061.7123256,2061.7123256,2062.1954704,2062.2121152,2064.6955027,2064.6956938999997,space,1,0.742426499999965,None,,,,nback44,001,2024-01-08_14h21.11.616,untitled,2023.2.3,60.0454904635641,2024-01-08 14h39.05.878894 -0500,
,"[-0.3, 0]",None,,,,,,,,,0,14,14,14,2064.7122132,,,,,,,,,,,,,,,,,,,,,,,,,,,,,,,,,,,,,,,,,,,,,,,,,,,,,,,,,,,,,,,,,2064.6965778999997,2064.7122132,2064.7122132,2065.195608,2065.2120944999997,2067.6955017,2067.6957006,None,1,,,,,,nback44,001,2024-01-08_14h21.11.616,untitled,2023.2.3,60.0454904635641,2024-01-08 14h39.05.878894 -0500,
,"[0, 0.2]",None,,,,,,,,,0,15,15,15,2067.7121340999997,,,,,,,,,,,,,,,,,,,,,,,,,,,,,,,,,,,,,,,,,,,,,,,,,,,,,,,,,,,,,,,,,2067.6965483,2067.7121340999997,2067.7121340999997,2068.1956285,2068.2122386,2070.6955245999998,2070.6957374,None,1,,,,,,nback44,001,2024-01-08_14h21.11.616,untitled,2023.2.3,60.0454904635641,2024-01-08 14h39.05.878894 -0500,
,"[-0.3, 0]",space,,,,,,,,,0,16,16,16,2070.7122952,,,,,,,,,,,,,,,,,,,,,,,,,,,,,,,,,,,,,,,,,,,,,,,,,,,,,,,,,,,,,,,,,2070.6965691,2070.7122952,2070.7122952,2071.1955368999998,2071.2122231999997,2073.6953172,2073.6954865,space,1,1.3142032000000654,None,,,,nback44,001,2024-01-08_14h21.11.616,untitled,2023.2.3,60.0454904635641,2024-01-08 14h39.05.878894 -0500,
,"[-0.64, -0.4]",None,,,,,,,,,0,17,17,17,2073.7121758,,,,,,,,,,,,,,,,,,,,,,,,,,,,,,,,,,,,,,,,,,,,,,,,,,,,,,,,,,,,,,,,,2073.6962547,2073.7121758,2073.7121758,2074.1953889,2074.2120125,2076.6954591,2076.6956921,None,1,,,,,,nback44,001,2024-01-08_14h21.11.616,untitled,2023.2.3,60.0454904635641,2024-01-08 14h39.05.878894 -0500,
,"[-0.2, -0.1]",None,,,,,,,,,0,18,18,18,2076.7121201,,,,,,,,,,,,,,,,,,,,,,,,,,,,,,,,,,,,,,,,,,,,,,,,,,,,,,,,,,,,,,,,,2076.6965608,2076.7121201,2076.7121201,2077.1952698,2077.2119786,2079.6955161,2079.6957389,None,1,,,,,,nback44,001,2024-01-08_14h21.11.616,untitled,2023.2.3,60.0454904635641,2024-01-08 14h39.05.878894 -0500,
,"[0.2, -0.1]",None,,,,,,,,,0,19,19,19,2079.712097,,,,,,,,,,,,,,,,,,,,,,,,,,,,,,,,,,,,,,,,,,,,,,,,,,,,,,,,,,,,,,,,,2079.6965728,2079.712097,2079.712097,2080.1951329999997,2080.2120136999997,2082.6952478,2082.6954479,None,1,,,,,,nback44,001,2024-01-08_14h21.11.616,untitled,2023.2.3,60.0454904635641,2024-01-08 14h39.05.878894 -0500,
,"[0.2, -0.1]",None,,,,,,,,,0,20,20,20,2082.7118141,,,,,,,,,,,,,,,,,,,,,,,,,,,,,,,,,,,,,,,,,,,,,,,,,,,,,,,,,,,,,,,,,2082.6962522999997,2082.7118141,2082.7118141,2083.1952152999997,2083.2121445,2085.6951583,2085.6953404,None,1,,,,,,nback44,001,2024-01-08_14h21.11.616,untitled,2023.2.3,60.0454904635641,2024-01-08 14h39.05.878894 -0500,
,"[-0.64, 0.4]",None,,,,,,,,,0,21,21,21,2085.7119824,,,,,,,,,,,,,,,,,,,,,,,,,,,,,,,,,,,,,,,,,,,,,,,,,,,,,,,,,,,,,,,,,2085.69605,2085.7119824,2085.7119824,2086.1950997999998,2086.211923,2088.6950351,2088.6952332,None,1,,,,,,nback44,001,2024-01-08_14h21.11.616,untitled,2023.2.3,60.0454904635641,2024-01-08 14h39.05.878894 -0500,
,"[0, 0.2]",None,,,,,,,,,0,22,22,22,2088.7117872,,,,,,,,,,,,,,,,,,,,,,,,,,,,,,,,,,,,,,,,,,,,,,,,,,,,,,,,,,,,,,,,,2088.6960355,2088.7117872,2088.7117872,2089.1949233,2089.211751,2091.6951644,2091.6953866,None,1,,,,,,nback44,001,2024-01-08_14h21.11.616,untitled,2023.2.3,60.0454904635641,2024-01-08 14h39.05.878894 -0500,
,"[0.64, -0.4]",None,,,,,,,,,0,23,23,23,2091.7117334,,,,,,,,,,,,,,,,,,,,,,,,,,,,,,,,,,,,,,,,,,,,,,,,,,,,,,,,,,,,,,,,,2091.6961566,2091.7117334,2091.7117334,2092.1949056,2092.2116532,2094.6948654,2094.6950117,None,1,,,,,,nback44,001,2024-01-08_14h21.11.616,untitled,2023.2.3,60.0454904635641,2024-01-08 14h39.05.878894 -0500,
,"[0, 0.2]",space,,,,,,,,,0,24,24,24,2094.7116102,,,,,,,,,,,,,,,,,,,,,,,,,,,,,,,,,,,,,,,,,,,,,,,,,,,,,,,,,,,,,,,,,2094.6955643,2094.7116102,2094.7116102,2095.1950283,2095.2117172,2097.694845,2097.6949535,space,1,0.797914899999796,None,,,,nback44,001,2024-01-08_14h21.11.616,untitled,2023.2.3,60.0454904635641,2024-01-08 14h39.05.878894 -0500,
,"[-0.2, 0.1]",None,,,,,,,,,0,25,25,25,2097.7113842,,,,,,,,,,,,,,,,,,,,,,,,,,,,,,,,,,,,,,,,,,,,,,,,,,,,,,,,,,,,,,,,,2097.6954183,2097.7113842,2097.7113842,2098.1947167,2098.211511,2100.6948327,2100.6950133,None,1,,,,,,nback44,001,2024-01-08_14h21.11.616,untitled,2023.2.3,60.0454904635641,2024-01-08 14h39.05.878894 -0500,
,"[0.3, 0]",None,,,,,,,,,0,26,26,26,2100.7115697,,,,,,,,,,,,,,,,,,,,,,,,,,,,,,,,,,,,,,,,,,,,,,,,,,,,,,,,,,,,,,,,,2100.6956546,2100.7115697,2100.7115697,2101.196155,2101.2114934,,2103.6949909,None,1,,,,,,nback44,001,2024-01-08_14h21.11.616,untitled,2023.2.3,60.0454904635641,2024-01-08 14h39.05.878894 -0500,
,"[-0.2, 0.1]",space,,,,,,,,,0,27,27,27,2103.7117289,,,,,,,,,,,,,,,,,,,,,,,,,,,,,,,,,,,,,,,,,,,,,,,,,,,,,,,,,,,,,,,,,2103.6956308999997,2103.7117289,2103.7117289,2104.1948534999997,2104.2114355,2106.6948017,2106.6949814,space,1,0.6152970999996796,None,,,,nback44,001,2024-01-08_14h21.11.616,untitled,2023.2.3,60.0454904635641,2024-01-08 14h39.05.878894 -0500,
,"[-0.2, 0.1]",None,,,,,,,,,0,28,28,28,2106.711497,,,,,,,,,,,,,,,,,,,,,,,,,,,,,,,,,,,,,,,,,,,,,,,,,,,,,,,,,,,,,,,,,2106.6958274999997,2106.711497,2106.711497,2107.1948533,2107.2114367,2109.6947375,2109.6949286,None,1,,,,,,nback44,001,2024-01-08_14h21.11.616,untitled,2023.2.3,60.0454904635641,2024-01-08 14h39.05.878894 -0500,
,"[0.2, 0.1]",None,,,,,,,,,0,29,29,29,2109.7115384999997,,,,,,,,,,,,,,,,,,,,,,,,,,,,,,,,,,,,,,,,,,,,,,,,,,,,,,,,,,,,,,,,,2109.695674,2109.7115384999997,2109.7115384999997,2110.1948331,2110.2114511,2112.6948591,2112.6950589999997,None,1,,,,,,nback44,001,2024-01-08_14h21.11.616,untitled,2023.2.3,60.0454904635641,2024-01-08 14h39.05.878894 -0500,
,"[-0.64, -0.4]",None,,,,,,,,,0,30,30,30,2112.7114197,,,,,,,,,,,,,,,,,,,,,,,,,,,,,,,,,,,,,,,,,,,,,,,,,,,,,,,,,,,,,,,,,2112.6958556,2112.7114197,2112.7114197,2113.1947084,2113.2116198999997,2115.6947465999997,2115.6949597,None,1,,,,,,nback44,001,2024-01-08_14h21.11.616,untitled,2023.2.3,60.0454904635641,2024-01-08 14h39.05.878894 -0500,
,"[0, -0.2]",None,,,,,,,,,0,31,31,31,2115.7117032,,,,,,,,,,,,,,,,,,,,,,,,,,,,,,,,,,,,,,,,,,,,,,,,,,,,,,,,,,,,,,,,,2115.6957818,2115.7117032,2115.7117032,2116.1946038,2116.2114705,2118.6946841999998,2118.6948858,None,1,,,,,,nback44,001,2024-01-08_14h21.11.616,untitled,2023.2.3,60.0454904635641,2024-01-08 14h39.05.878894 -0500,
,"[-0.64, -0.4]",space,,,,,,,,,0,32,32,32,2118.711504,,,,,,,,,,,,,,,,,,,,,,,,,,,,,,,,,,,,,,,,,,,,,,,,,,,,,,,,,,,,,,,,,2118.6956511,2118.711504,2118.711504,2119.19451,2119.2112094999998,2121.6946657999997,2121.6948755999997,space,1,0.7413673000000927,None,,,,nback44,001,2024-01-08_14h21.11.616,untitled,2023.2.3,60.0454904635641,2024-01-08 14h39.05.878894 -0500,
,"[0.64, 0.4]",None,,,,,,,,,0,33,33,33,2121.7115272,,,,,,,,,,,,,,,,,,,,,,,,,,,,,,,,,,,,,,,,,,,,,,,,,,,,,,,,,,,,,,,,,2121.6958362,2121.7115272,2121.7115272,2122.1944512,2122.2111826,2124.6947995,2124.69513,None,1,,,,,,nback44,001,2024-01-08_14h21.11.616,untitled,2023.2.3,60.0454904635641,2024-01-08 14h39.05.878894 -0500,
,"[-0.3, 0]",None,,,,,,,,,0,34,34,34,2124.7111768,,,,,,,,,,,,,,,,,,,,,,,,,,,,,,,,,,,,,,,,,,,,,,,,,,,,,,,,,,,,,,,,,2124.6959936999997,2124.7111768,2124.7111768,2125.1944900999997,2125.2110758999997,2127.6944549,2127.6946427,None,1,,,,,,nback44,001,2024-01-08_14h21.11.616,untitled,2023.2.3,60.0454904635641,2024-01-08 14h39.05.878894 -0500,
,"[0.3, 0]",None,,,,,,,,,0,35,35,35,2127.711088,,,,,,,,,,,,,,,,,,,,,,,,,,,,,,,,,,,,,,,,,,,,,,,,,,,,,,,,,,,,,,,,,2127.6954375,2127.711088,2127.711088,2128.1944577,2128.2111996,2130.6945726999998,2130.6947729999997,None,1,,,,,,nback44,001,2024-01-08_14h21.11.616,untitled,2023.2.3,60.0454904635641,2024-01-08 14h39.05.878894 -0500,
,"[-0.3, 0]",space,,,,,,,,,0,36,36,36,2130.7110204,,,,,,,,,,,,,,,,,,,,,,,,,,,,,,,,,,,,,,,,,,,,,,,,,,,,,,,,,,,,,,,,,2130.6955671,2130.7110204,2130.7110204,2131.1943662,2131.21096,2133.6944252,2133.6946216,space,1,0.35522660000015094,None,,,,nback44,001,2024-01-08_14h21.11.616,untitled,2023.2.3,60.0454904635641,2024-01-08 14h39.05.878894 -0500,
,"[0, -0.2]",None,,,,,,,,,0,37,37,37,2133.7109788,,,,,,,,,,,,,,,,,,,,,,,,,,,,,,,,,,,,,,,,,,,,,,,,,,,,,,,,,,,,,,,,,2133.6955522,2133.7109788,2133.7109788,2134.1942028999997,2134.2109898,2136.6943122,2136.6945246,None,1,,,,,,nback44,001,2024-01-08_14h21.11.616,untitled,2023.2.3,60.0454904635641,2024-01-08 14h39.05.878894 -0500,
,"[0.3, 0]",None,,,,,,,,,0,38,38,38,2136.7110955999997,,,,,,,,,,,,,,,,,,,,,,,,,,,,,,,,,,,,,,,,,,,,,,,,,,,,,,,,,,,,,,,,,2136.6953454,2136.7110955999997,2136.7110955999997,2137.19425,2137.2108353999997,2139.6943993,2139.694613,None,1,,,,,,nback44,001,2024-01-08_14h21.11.616,untitled,2023.2.3,60.0454904635641,2024-01-08 14h39.05.878894 -0500,
,"[0.2, 0.1]",None,,,,,,,,,0,39,39,39,2139.7110735,,,,,,,,,,,,,,,,,,,,,,,,,,,,,,,,,,,,,,,,,,,,,,,,,,,,,,,,,,,,,,,,,2139.695504,2139.7110735,2139.7110735,2140.1943397,2140.2108776,2142.694334,2142.6945594,None,1,,,,,,nback44,001,2024-01-08_14h21.11.616,untitled,2023.2.3,60.0454904635641,2024-01-08 14h39.05.878894 -0500,
,,,,,,,,,,,,,,,,,,,,,,,,,,,,,,,,,,,,,,,,,,,,,,,,,,,,,,,,,,,,,,,,,,,,,,,,,,,,,,,,,,,,,,,,,,,2142.6950927,2142.7110454,2145.6946451,,,,,,,,
