square,location,corrAns,trials_0.thisRepN,trials_0.thisTrialN,trials_0.thisN,trials_0.thisIndex,trials_1.thisRepN,trials_1.thisTrialN,trials_1.thisN,trials_1.thisIndex,trials_2.thisRepN,trials_2.thisTrialN,trials_2.thisN,trials_2.thisIndex,thisRow.t,notes,Instructions.started,instructions.started,key_resp.started,inst_sq11.started,Instructions.stopped,key_resp.keys,key_resp.rt,key_resp.duration,All.started,sq_1.started,sq_2.started,sq_3.started,sq_4.started,sq_5.started,sq_6.started,sq_7.started,sq_8.started,sq_9.started,sq_10.started,sq_11.started,sq_12.started,All.stopped,Fixation.started,fixation_3.started,fixation_3.stopped,Fixation.stopped,N_back_0_Trial.started,target_square_0.started,response_0.started,fixation_0.started,target_square_0.stopped,fixation_0.stopped,N_back_0_Trial.stopped,response_0.keys,response_0.corr,response_0.rt,response_0.duration,Instructions_1.started,instructions_1.started,key_resp_1.started,Instructions_1.stopped,key_resp_1.keys,key_resp_1.rt,key_resp_1.duration,N_back_1_Trial.started,target_square_1.started,response_1.started,target_square_1.stopped,fixation_1.started,fixation_1.stopped,response_1.stopped,N_back_1_Trial.stopped,response_1.keys,response_1.corr,response_1.rt,response_1.duration,Instructions_2.started,instructions_2.started,key_resp_2.started,Instructions_2.stopped,key_resp_2.keys,key_resp_2.rt,key_resp_2.duration,N_back_2_trials.started,target_square_2.started,response_2.started,fixation_2.started,target_square_2.stopped,fixation_2.stopped,N_back_2_trials.stopped,response_2.keys,response_2.corr,response_2.rt,response_2.duration,End.started,thank_you.started,End.stopped,participant,session,date,expName,psychopyVersion,frameRate,expStart,Unnamed: 101
,,,,,,,,,,,,,,,,,0.0013873999705538,0.0037078999448567,0.0037078999448567,0.0037078999448567,126.30743469996378,space,126.2981037000427,None,,,,,,,,,,,,,,,,,,,,,,,,,,,,,,,,,,,,,,,,,,,,,,,,,,,,,,,,,,,,,,,,,,,,,,nback2,1.0,2023-12-07_12h20.10.465,untitled,2023.2.3,59.97184923699001,2023-12-07 13h09.35.921550 -0500,
6.0,"[-0.3, 0]",None,0.0,0.0,0.0,0.0,,,,,,,,,128.32966949988622,,,,,,,,,,126.30747609992976,126.3221793998964,126.3221793998964,126.3221793998964,126.3221793998964,126.3221793998964,126.3221793998964,126.3221793998964,126.3221793998964,126.3221793998964,126.3221793998964,126.3221793998964,126.3221793998964,127.30594529991504,127.30595849989912,127.32223619997968,128.32966949988622,128.30660089990124,128.3278364998987,128.32966949988622,128.32966949988622,128.8054998998996,128.838921599905,131.3054638999747,131.3222937999526,None,1.0,,,,,,,,,,,,,,,,,,,,,,,,,,,,,,,,,,,,,,,,,,,nback2,1.0,2023-12-07_12h20.10.465,untitled,2023.2.3,59.97184923699001,2023-12-07 13h09.35.921550 -0500,
10.0,"[0, -0.2]",None,0.0,1.0,1.0,1.0,,,,,,,,,131.33877799997572,,,,,,,,,,,,,,,,,,,,,,,,,,,,131.3231721998891,131.33877799997572,131.33877799997572,131.8055792999221,131.83891369996127,134.30554139998276,134.3222546998877,None,1.0,,,,,,,,,,,,,,,,,,,,,,,,,,,,,,,,,,,,,,,,,,,nback2,1.0,2023-12-07_12h20.10.465,untitled,2023.2.3,59.97184923699001,2023-12-07 13h09.35.921550 -0500,
11.0,"[-0.64, -0.4]",space,0.0,2.0,2.0,2.0,,,,,,,,,134.3387609999627,,,,,,,,,,,,,,,,,,,,,,,,,,,,134.32290349993855,134.3387609999627,134.3387609999627,134.80563359998632,134.83867459988687,137.3054615999572,137.32236489991192,space,1.0,0.4610974000534042,None,,,,,,,,,,,,,,,,,,,,,,,,,,,,,,,,,,,,,,,,,nback2,1.0,2023-12-07_12h20.10.465,untitled,2023.2.3,59.97184923699001,2023-12-07 13h09.35.921550 -0500,
12.0,"[0.64, -0.4]",None,0.0,3.0,3.0,3.0,,,,,,,,,137.33869359991513,,,,,,,,,,,,,,,,,,,,,,,,,,,,137.3236453999998,137.33869359991513,137.33869359991513,137.80546199996024,137.83874319994356,140.30533569992986,140.32220289995894,None,1.0,,,,,,,,,,,,,,,,,,,,,,,,,,,,,,,,,,,,,,,,,,,nback2,1.0,2023-12-07_12h20.10.465,untitled,2023.2.3,59.97184923699001,2023-12-07 13h09.35.921550 -0500,
1.0,"[-0.64, 0.4]",None,0.0,4.0,4.0,4.0,,,,,,,,,140.33859289996326,,,,,,,,,,,,,,,,,,,,,,,,,,,,140.32286799990106,140.33859289996326,140.33859289996326,140.80529619997833,140.83871629997157,143.30534559988882,143.32216489990242,None,1.0,,,,,,,,,,,,,,,,,,,,,,,,,,,,,,,,,,,,,,,,,,,nback2,1.0,2023-12-07_12h20.10.465,untitled,2023.2.3,59.97184923699001,2023-12-07 13h09.35.921550 -0500,
1.0,"[-0.64, 0.4]",None,0.0,5.0,5.0,5.0,,,,,,,,,143.33874109992755,,,,,,,,,,,,,,,,,,,,,,,,,,,,143.3230083999224,143.33874109992755,143.33874109992755,143.8052483999636,143.83853319997434,146.30529819999356,146.32205839990638,None,1.0,,,,,,,,,,,,,,,,,,,,,,,,,,,,,,,,,,,,,,,,,,,nback2,1.0,2023-12-07_12h20.10.465,untitled,2023.2.3,59.97184923699001,2023-12-07 13h09.35.921550 -0500,
4.0,"[-0.2, 0.1]",None,0.0,6.0,6.0,6.0,,,,,,,,,146.33852979994845,,,,,,,,,,,,,,,,,,,,,,,,,,,,146.32277869991958,146.33852979994845,146.33852979994845,146.80539439991117,146.83850439998787,149.30531559989322,149.32265099999495,None,1.0,,,,,,,,,,,,,,,,,,,,,,,,,,,,,,,,,,,,,,,,,,,nback2,1.0,2023-12-07_12h20.10.465,untitled,2023.2.3,59.97184923699001,2023-12-07 13h09.35.921550 -0500,
5.0,"[0.2, 0.1]",None,0.0,7.0,7.0,7.0,,,,,,,,,149.33844159997534,,,,,,,,,,,,,,,,,,,,,,,,,,,,149.32356969988905,149.33844159997534,149.33844159997534,149.80505859991536,149.83850339998023,152.30518489994574,152.32196249999106,None,1.0,,,,,,,,,,,,,,,,,,,,,,,,,,,,,,,,,,,,,,,,,,,nback2,1.0,2023-12-07_12h20.10.465,untitled,2023.2.3,59.97184923699001,2023-12-07 13h09.35.921550 -0500,
11.0,"[-0.64, -0.4]",space,0.0,8.0,8.0,8.0,,,,,,,,,152.33859659999143,,,,,,,,,,,,,,,,,,,,,,,,,,,,152.32282059988938,152.33859659999143,152.33859659999143,152.80510059988592,152.83839289995376,155.30518719996326,155.32192889996804,space,1.0,0.36989370000083,None,,,,,,,,,,,,,,,,,,,,,,,,,,,,,,,,,,,,,,,,,nback2,1.0,2023-12-07_12h20.10.465,untitled,2023.2.3,59.97184923699001,2023-12-07 13h09.35.921550 -0500,
9.0,"[0.2, -0.1]",None,0.0,9.0,9.0,9.0,,,,,,,,,155.33847359998617,,,,,,,,,,,,,,,,,,,,,,,,,,,,155.32298139994964,155.33847359998617,155.33847359998617,155.8052188999718,155.83839939988684,158.30516269989312,158.32190019998234,None,1.0,,,,,,,,,,,,,,,,,,,,,,,,,,,,,,,,,,,,,,,,,,,nback2,1.0,2023-12-07_12h20.10.465,untitled,2023.2.3,59.97184923699001,2023-12-07 13h09.35.921550 -0500,
8.0,"[-0.2, -0.1]",None,0.0,10.0,10.0,10.0,,,,,,,,,158.33835309999995,,,,,,,,,,,,,,,,,,,,,,,,,,,,158.32268079998903,158.33835309999995,158.33835309999995,158.80504279991146,158.838563599973,161.3050504999701,161.3219990999205,None,1.0,,,,,,,,,,,,,,,,,,,,,,,,,,,,,,,,,,,,,,,,,,,nback2,1.0,2023-12-07_12h20.10.465,untitled,2023.2.3,59.97184923699001,2023-12-07 13h09.35.921550 -0500,
9.0,"[0.2, -0.1]",None,0.0,11.0,11.0,11.0,,,,,,,,,161.33838569989894,,,,,,,,,,,,,,,,,,,,,,,,,,,,161.32277569989674,161.33838569989894,161.33838569989894,161.8050718999002,161.83849769993685,164.30492529994808,164.3217861999292,None,1.0,,,,,,,,,,,,,,,,,,,,,,,,,,,,,,,,,,,,,,,,,,,nback2,1.0,2023-12-07_12h20.10.465,untitled,2023.2.3,59.97184923699001,2023-12-07 13h09.35.921550 -0500,
6.0,"[-0.3, 0]",None,0.0,12.0,12.0,12.0,,,,,,,,,164.33822289993986,,,,,,,,,,,,,,,,,,,,,,,,,,,,164.3225103999721,164.33822289993986,164.33822289993986,164.82166399993002,164.83820719993673,167.32172059989534,167.3219038998941,None,1.0,,,,,,,,,,,,,,,,,,,,,,,,,,,,,,,,,,,,,,,,,,,nback2,1.0,2023-12-07_12h20.10.465,untitled,2023.2.3,59.97184923699001,2023-12-07 13h09.35.921550 -0500,
9.0,"[0.2, -0.1]",None,0.0,13.0,13.0,13.0,,,,,,,,,167.33831169991754,,,,,,,,,,,,,,,,,,,,,,,,,,,,167.3225998999551,167.33831169991754,167.33831169991754,167.80495169991627,167.83833129995037,170.304943599971,170.3217993999133,None,1.0,,,,,,,,,,,,,,,,,,,,,,,,,,,,,,,,,,,,,,,,,,,nback2,1.0,2023-12-07_12h20.10.465,untitled,2023.2.3,59.97184923699001,2023-12-07 13h09.35.921550 -0500,
7.0,"[0.3, 0]",None,0.0,14.0,14.0,14.0,,,,,,,,,170.3382411999628,,,,,,,,,,,,,,,,,,,,,,,,,,,,170.32258389994968,170.3382411999628,170.3382411999628,170.82148949999828,170.83813809999265,173.32135739992373,173.32152009999845,None,1.0,,,,,,,,,,,,,,,,,,,,,,,,,,,,,,,,,,,,,,,,,,,nback2,1.0,2023-12-07_12h20.10.465,untitled,2023.2.3,59.97184923699001,2023-12-07 13h09.35.921550 -0500,
2.0,"[0.64, 0.4]",None,0.0,15.0,15.0,15.0,,,,,,,,,173.33824769989587,,,,,,,,,,,,,,,,,,,,,,,,,,,,173.32232169993222,173.33824769989587,173.33824769989587,173.82147599989548,173.83817689993884,176.32130809989758,176.3214937999146,None,1.0,,,,,,,,,,,,,,,,,,,,,,,,,,,,,,,,,,,,,,,,,,,nback2,1.0,2023-12-07_12h20.10.465,untitled,2023.2.3,59.97184923699001,2023-12-07 13h09.35.921550 -0500,
2.0,"[0.64, 0.4]",None,0.0,16.0,16.0,16.0,,,,,,,,,176.33805859996937,,,,,,,,,,,,,,,,,,,,,,,,,,,,176.3222655999707,176.33805859996937,176.33805859996937,176.8214306998998,176.83807239995804,179.3213897999376,179.32157589995768,None,1.0,,,,,,,,,,,,,,,,,,,,,,,,,,,,,,,,,,,,,,,,,,,nback2,1.0,2023-12-07_12h20.10.465,untitled,2023.2.3,59.97184923699001,2023-12-07 13h09.35.921550 -0500,
11.0,"[-0.64, -0.4]",space,0.0,17.0,17.0,17.0,,,,,,,,,179.33796029991936,,,,,,,,,,,,,,,,,,,,,,,,,,,,179.32231789990328,179.33796029991936,179.33796029991936,179.82130139996298,179.83816129993647,182.32120279991068,182.3213765999535,space,1.0,0.4332203000085428,None,,,,,,,,,,,,,,,,,,,,,,,,,,,,,,,,,,,,,,,,,nback2,1.0,2023-12-07_12h20.10.465,untitled,2023.2.3,59.97184923699001,2023-12-07 13h09.35.921550 -0500,
11.0,"[-0.64, -0.4]",space,0.0,18.0,18.0,18.0,,,,,,,,,182.33800189988688,,,,,,,,,,,,,,,,,,,,,,,,,,,,182.3222686999943,182.33800189988688,182.33800189988688,182.82128679996825,182.83795329998247,185.321294699912,185.32148339995183,space,1.0,0.5620931000448763,None,,,,,,,,,,,,,,,,,,,,,,,,,,,,,,,,,,,,,,,,,nback2,1.0,2023-12-07_12h20.10.465,untitled,2023.2.3,59.97184923699001,2023-12-07 13h09.35.921550 -0500,
7.0,"[0.3, 0]",None,0.0,19.0,19.0,19.0,,,,,,,,,185.3377979999641,,,,,,,,,,,,,,,,,,,,,,,,,,,,185.3222572999075,185.3377979999641,185.3377979999641,185.8215067998972,185.83805649995335,188.32096379995343,188.32109189999755,None,1.0,,,,,,,,,,,,,,,,,,,,,,,,,,,,,,,,,,,,,,,,,,,nback2,1.0,2023-12-07_12h20.10.465,untitled,2023.2.3,59.97184923699001,2023-12-07 13h09.35.921550 -0500,
3.0,"[0, 0.2]",None,0.0,20.0,20.0,20.0,,,,,,,,,188.33803919993807,,,,,,,,,,,,,,,,,,,,,,,,,,,,188.32155839994084,188.33803919993807,188.33803919993807,188.8211165999528,188.8379294999177,191.32130269997288,191.32150789990555,None,1.0,,,,,,,,,,,,,,,,,,,,,,,,,,,,,,,,,,,,,,,,,,,nback2,1.0,2023-12-07_12h20.10.465,untitled,2023.2.3,59.97184923699001,2023-12-07 13h09.35.921550 -0500,
10.0,"[0, -0.2]",None,0.0,21.0,21.0,21.0,,,,,,,,,191.33798289997503,,,,,,,,,,,,,,,,,,,,,,,,,,,,191.32240359997377,191.33798289997503,191.33798289997503,191.82114129990805,191.8380108999554,194.3211092998972,194.3212665999308,None,1.0,,,,,,,,,,,,,,,,,,,,,,,,,,,,,,,,,,,,,,,,,,,nback2,1.0,2023-12-07_12h20.10.465,untitled,2023.2.3,59.97184923699001,2023-12-07 13h09.35.921550 -0500,
1.0,"[-0.64, 0.4]",None,0.0,22.0,22.0,22.0,,,,,,,,,194.33777279988865,,,,,,,,,,,,,,,,,,,,,,,,,,,,194.3219010999892,194.33777279988865,194.33777279988865,194.82115479989443,194.8379870998906,197.32120159990157,197.32143059989903,None,1.0,,,,,,,,,,,,,,,,,,,,,,,,,,,,,,,,,,,,,,,,,,,nback2,1.0,2023-12-07_12h20.10.465,untitled,2023.2.3,59.97184923699001,2023-12-07 13h09.35.921550 -0500,
2.0,"[0.64, 0.4]",None,0.0,23.0,23.0,23.0,,,,,,,,,197.33786949992648,,,,,,,,,,,,,,,,,,,,,,,,,,,,197.322286099894,197.33786949992648,197.33786949992648,197.82097209990025,197.8378002999816,200.32097809994596,200.32114309992176,None,1.0,,,,,,,,,,,,,,,,,,,,,,,,,,,,,,,,,,,,,,,,,,,nback2,1.0,2023-12-07_12h20.10.465,untitled,2023.2.3,59.97184923699001,2023-12-07 13h09.35.921550 -0500,
6.0,"[-0.3, 0]",None,0.0,24.0,24.0,24.0,,,,,,,,,200.3376442999579,,,,,,,,,,,,,,,,,,,,,,,,,,,,200.32180009991865,200.3376442999579,200.3376442999579,200.82104149996303,200.83779599994887,203.321020299918,203.321197399986,None,1.0,,,,,,,,,,,,,,,,,,,,,,,,,,,,,,,,,,,,,,,,,,,nback2,1.0,2023-12-07_12h20.10.465,untitled,2023.2.3,59.97184923699001,2023-12-07 13h09.35.921550 -0500,
3.0,"[0, 0.2]",None,0.0,25.0,25.0,25.0,,,,,,,,,203.33775549998973,,,,,,,,,,,,,,,,,,,,,,,,,,,,203.3218787999358,203.33775549998973,203.33775549998973,203.8210151999956,203.83773659996223,206.32087229995523,206.3210233999416,None,1.0,,,,,,,,,,,,,,,,,,,,,,,,,,,,,,,,,,,,,,,,,,,nback2,1.0,2023-12-07_12h20.10.465,untitled,2023.2.3,59.97184923699001,2023-12-07 13h09.35.921550 -0500,
11.0,"[-0.64, -0.4]",space,0.0,26.0,26.0,26.0,,,,,,,,,206.33761339995544,,,,,,,,,,,,,,,,,,,,,,,,,,,,206.32162669999525,206.33761339995544,206.33761339995544,206.820899299928,206.8375800999347,209.32092969992664,209.3211153999437,space,1.0,0.4233627999201417,None,,,,,,,,,,,,,,,,,,,,,,,,,,,,,,,,,,,,,,,,,nback2,1.0,2023-12-07_12h20.10.465,untitled,2023.2.3,59.97184923699001,2023-12-07 13h09.35.921550 -0500,
1.0,"[-0.64, 0.4]",None,0.0,27.0,27.0,27.0,,,,,,,,,209.33751549990848,,,,,,,,,,,,,,,,,,,,,,,,,,,,209.32214249996468,209.33751549990848,209.33751549990848,209.82082649995573,209.83739339991007,212.3207771999296,212.32097519992385,None,1.0,,,,,,,,,,,,,,,,,,,,,,,,,,,,,,,,,,,,,,,,,,,nback2,1.0,2023-12-07_12h20.10.465,untitled,2023.2.3,59.97184923699001,2023-12-07 13h09.35.921550 -0500,
3.0,"[0, 0.2]",None,0.0,28.0,28.0,28.0,,,,,,,,,212.3375766999088,,,,,,,,,,,,,,,,,,,,,,,,,,,,212.32177499996035,212.3375766999088,212.3375766999088,212.8207626999356,212.8374128999421,215.3207721998915,215.3209563998971,None,1.0,,,,,,,,,,,,,,,,,,,,,,,,,,,,,,,,,,,,,,,,,,,nback2,1.0,2023-12-07_12h20.10.465,untitled,2023.2.3,59.97184923699001,2023-12-07 13h09.35.921550 -0500,
9.0,"[0.2, -0.1]",None,0.0,29.0,29.0,29.0,,,,,,,,,215.33752999990247,,,,,,,,,,,,,,,,,,,,,,,,,,,,215.32167119998485,215.33752999990247,215.33752999990247,215.82066039997156,215.8374480999773,218.3207949999487,218.3210121999728,None,1.0,,,,,,,,,,,,,,,,,,,,,,,,,,,,,,,,,,,,,,,,,,,nback2,1.0,2023-12-07_12h20.10.465,untitled,2023.2.3,59.97184923699001,2023-12-07 13h09.35.921550 -0500,
8.0,"[-0.2, -0.1]",None,0.0,30.0,30.0,30.0,,,,,,,,,218.3373159999028,,,,,,,,,,,,,,,,,,,,,,,,,,,,218.32177319994665,218.3373159999028,218.3373159999028,218.82063679990824,218.8374277999392,221.3207523999736,221.3209641999565,None,1.0,,,,,,,,,,,,,,,,,,,,,,,,,,,,,,,,,,,,,,,,,,,nback2,1.0,2023-12-07_12h20.10.465,untitled,2023.2.3,59.97184923699001,2023-12-07 13h09.35.921550 -0500,
12.0,"[0.64, -0.4]",None,0.0,31.0,31.0,31.0,,,,,,,,,221.3374232999049,,,,,,,,,,,,,,,,,,,,,,,,,,,,221.3218171999324,221.3374232999049,221.3374232999049,221.8206702999305,221.8372818999924,224.3205910999095,224.3207664999645,None,1.0,,,,,,,,,,,,,,,,,,,,,,,,,,,,,,,,,,,,,,,,,,,nback2,1.0,2023-12-07_12h20.10.465,untitled,2023.2.3,59.97184923699001,2023-12-07 13h09.35.921550 -0500,
9.0,"[0.2, -0.1]",None,0.0,32.0,32.0,32.0,,,,,,,,,224.3371464998927,,,,,,,,,,,,,,,,,,,,,,,,,,,,224.32144109997895,224.3371464998927,224.3371464998927,224.8204764999682,224.8372463999549,227.32056879997253,227.3207473999355,None,1.0,,,,,,,,,,,,,,,,,,,,,,,,,,,,,,,,,,,,,,,,,,,nback2,1.0,2023-12-07_12h20.10.465,untitled,2023.2.3,59.97184923699001,2023-12-07 13h09.35.921550 -0500,
11.0,"[-0.64, -0.4]",space,0.0,33.0,33.0,33.0,,,,,,,,,227.33717559999783,,,,,,,,,,,,,,,,,,,,,,,,,,,,227.3215760999592,227.33717559999783,227.33717559999783,227.82047659996897,227.8373376999516,230.3206060999073,230.32077569991816,space,1.0,0.3663917999947443,None,,,,,,,,,,,,,,,,,,,,,,,,,,,,,,,,,,,,,,,,,nback2,1.0,2023-12-07_12h20.10.465,untitled,2023.2.3,59.97184923699001,2023-12-07 13h09.35.921550 -0500,
7.0,"[0.3, 0]",None,0.0,34.0,34.0,34.0,,,,,,,,,230.3370970999822,,,,,,,,,,,,,,,,,,,,,,,,,,,,230.3216197999427,230.3370970999822,230.3370970999822,230.82038589997683,230.83713679993525,233.3205629999284,233.32073639996813,None,1.0,,,,,,,,,,,,,,,,,,,,,,,,,,,,,,,,,,,,,,,,,,,nback2,1.0,2023-12-07_12h20.10.465,untitled,2023.2.3,59.97184923699001,2023-12-07 13h09.35.921550 -0500,
11.0,"[-0.64, -0.4]",space,0.0,35.0,35.0,35.0,,,,,,,,,233.3370778999524,,,,,,,,,,,,,,,,,,,,,,,,,,,,233.32146709994413,233.3370778999524,233.3370778999524,233.8204234999139,233.8370864999015,236.32036689994857,236.32054799993057,space,1.0,0.4534114999696612,None,,,,,,,,,,,,,,,,,,,,,,,,,,,,,,,,,,,,,,,,,nback2,1.0,2023-12-07_12h20.10.465,untitled,2023.2.3,59.97184923699001,2023-12-07 13h09.35.921550 -0500,
4.0,"[-0.2, 0.1]",None,0.0,36.0,36.0,36.0,,,,,,,,,236.337061899947,,,,,,,,,,,,,,,,,,,,,,,,,,,,236.32137809996493,236.337061899947,236.337061899947,236.8203921999084,236.83703509997576,239.3203755998984,239.3205284998985,None,1.0,,,,,,,,,,,,,,,,,,,,,,,,,,,,,,,,,,,,,,,,,,,nback2,1.0,2023-12-07_12h20.10.465,untitled,2023.2.3,59.97184923699001,2023-12-07 13h09.35.921550 -0500,
5.0,"[0.2, 0.1]",None,0.0,37.0,37.0,37.0,,,,,,,,,239.3368233999936,,,,,,,,,,,,,,,,,,,,,,,,,,,,239.3211504999781,239.3368233999936,239.3368233999936,239.8202375998953,239.8369357999181,242.3203090999741,242.3204818998929,None,1.0,,,,,,,,,,,,,,,,,,,,,,,,,,,,,,,,,,,,,,,,,,,nback2,1.0,2023-12-07_12h20.10.465,untitled,2023.2.3,59.97184923699001,2023-12-07 13h09.35.921550 -0500,
6.0,"[-0.3, 0]",None,0.0,38.0,38.0,38.0,,,,,,,,,242.33695159992203,,,,,,,,,,,,,,,,,,,,,,,,,,,,242.3211954999715,242.33695159992203,242.33695159992203,242.82030879997183,242.83705949992876,245.32015019992832,245.3204518998973,None,1.0,,,,,,,,,,,,,,,,,,,,,,,,,,,,,,,,,,,,,,,,,,,nback2,1.0,2023-12-07_12h20.10.465,untitled,2023.2.3,59.97184923699001,2023-12-07 13h09.35.921550 -0500,
11.0,"[-0.64, -0.4]",space,0.0,39.0,39.0,39.0,,,,,,,,,245.3369115999667,,,,,,,,,,,,,,,,,,,,,,,,,,,,245.3211261999095,245.3369115999667,245.3369115999667,245.8201216999441,245.83689949999095,248.3201333999168,248.32030129991472,space,1.0,0.3678313000127673,None,,,,,,,,,,,,,,,,,,,,,,,,,,,,,,,,,,,,,,,,,nback2,1.0,2023-12-07_12h20.10.465,untitled,2023.2.3,59.97184923699001,2023-12-07 13h09.35.921550 -0500,
,,,,,,,,,,,,,,,,,,,,,,,,,,,,,,,,,,,,,,,,,,,,,,,,,,,,,,248.32093509996776,248.3369252999546,248.3369252999546,274.9213709998876,space,26.57546329998877,None,,,,,,,,,,,,,,,,,,,,,,,,,,,,,,,,,,nback2,1.0,2023-12-07_12h20.10.465,untitled,2023.2.3,59.97184923699001,2023-12-07 13h09.35.921550 -0500,
10.0,"[0, -0.2]",None,,,,,0.0,0.0,0.0,0.0,,,,,275.9369175999891,,,,,,,,,,,,,,,,,,,,,,,,274.92140969994944,274.9365153999533,275.9369175999891,275.92046379996464,,,,,,,,,,,,,,,,,,,275.9349080999382,275.9369175999891,275.9369175999891,276.4363390998915,276.4363390998915,278.93643699993845,278.93643699993845,278.9206647999817,None,1.0,,,,,,,,,,,,,,,,,,,,,,,,nback2,1.0,2023-12-07_12h20.10.465,untitled,2023.2.3,59.97184923699001,2023-12-07 13h09.35.921550 -0500,
5.0,"[0.2, 0.1]",None,,,,,0.0,1.0,1.0,1.0,,,,,278.93643699993845,,,,,,,,,,,,,,,,,,,,,,,,,,,,,,,,,,,,,,,,,,,,,,278.9215670999838,278.93643699993845,278.93643699993845,279.43616349995136,279.43616349995136,281.93630709999707,281.93630709999707,281.9202850000001,None,1.0,,,,,,,,,,,,,,,,,,,,,,,,nback2,1.0,2023-12-07_12h20.10.465,untitled,2023.2.3,59.97184923699001,2023-12-07 13h09.35.921550 -0500,
6.0,"[-0.3, 0]",None,,,,,0.0,2.0,2.0,2.0,,,,,281.93630709999707,,,,,,,,,,,,,,,,,,,,,,,,,,,,,,,,,,,,,,,,,,,,,,281.92087899998296,281.93630709999707,281.93630709999707,282.43620719993487,282.43620719993487,284.93611879996024,284.93611879996024,284.91988779988606,None,1.0,,,,,,,,,,,,,,,,,,,,,,,,nback2,1.0,2023-12-07_12h20.10.465,untitled,2023.2.3,59.97184923699001,2023-12-07 13h09.35.921550 -0500,
6.0,"[-0.3, 0]",space,,,,,0.0,3.0,3.0,3.0,,,,,284.93611879996024,,,,,,,,,,,,,,,,,,,,,,,,,,,,,,,,,,,,,,,,,,,,,,284.92025939992163,284.93611879996024,284.93611879996024,285.43602309993,285.43602309993,287.9361294999253,287.9361294999253,287.9202962999698,space,1.0,0.8671963000670075,None,,,,,,,,,,,,,,,,,,,,,,nback2,1.0,2023-12-07_12h20.10.465,untitled,2023.2.3,59.97184923699001,2023-12-07 13h09.35.921550 -0500,
12.0,"[0.64, -0.4]",None,,,,,0.0,4.0,4.0,4.0,,,,,287.9361294999253,,,,,,,,,,,,,,,,,,,,,,,,,,,,,,,,,,,,,,,,,,,,,,287.9212081999285,287.9361294999253,287.9361294999253,288.435937399976,288.435937399976,290.9360767999897,290.9360767999897,290.92049899999984,None,1.0,,,,,,,,,,,,,,,,,,,,,,,,nback2,1.0,2023-12-07_12h20.10.465,untitled,2023.2.3,59.97184923699001,2023-12-07 13h09.35.921550 -0500,
10.0,"[0, -0.2]",None,,,,,0.0,5.0,5.0,5.0,,,,,290.9360767999897,,,,,,,,,,,,,,,,,,,,,,,,,,,,,,,,,,,,,,,,,,,,,,290.9212231999263,290.9360767999897,290.9360767999897,291.4360637998907,291.4360637998907,293.93617589992937,293.93617589992937,293.9199543999275,None,1.0,,,,,,,,,,,,,,,,,,,,,,,,nback2,1.0,2023-12-07_12h20.10.465,untitled,2023.2.3,59.97184923699001,2023-12-07 13h09.35.921550 -0500,
2.0,"[0.64, 0.4]",None,,,,,0.0,6.0,6.0,6.0,,,,,293.93617589992937,,,,,,,,,,,,,,,,,,,,,,,,,,,,,,,,,,,,,,,,,,,,,,293.9205034999177,293.93617589992937,293.93617589992937,294.4361273999093,294.4361273999093,296.9360552999424,296.9360552999424,296.92046579997987,None,1.0,,,,,,,,,,,,,,,,,,,,,,,,nback2,1.0,2023-12-07_12h20.10.465,untitled,2023.2.3,59.97184923699001,2023-12-07 13h09.35.921550 -0500,
9.0,"[0.2, -0.1]",None,,,,,0.0,7.0,7.0,7.0,,,,,296.9360552999424,,,,,,,,,,,,,,,,,,,,,,,,,,,,,,,,,,,,,,,,,,,,,,296.9212276999606,296.9360552999424,296.9360552999424,297.4360446999781,297.4360446999781,299.9360130999703,299.9360130999703,299.9202118999092,None,1.0,,,,,,,,,,,,,,,,,,,,,,,,nback2,1.0,2023-12-07_12h20.10.465,untitled,2023.2.3,59.97184923699001,2023-12-07 13h09.35.921550 -0500,
9.0,"[0.2, -0.1]",space,,,,,0.0,8.0,8.0,8.0,,,,,299.9360130999703,,,,,,,,,,,,,,,,,,,,,,,,,,,,,,,,,,,,,,,,,,,,,,299.92089349997696,299.9360130999703,299.9360130999703,300.43588489992544,300.43588489992544,302.93587449996267,302.93587449996267,302.9199068999151,space,1.0,0.422653799992986,None,,,,,,,,,,,,,,,,,,,,,,nback2,1.0,2023-12-07_12h20.10.465,untitled,2023.2.3,59.97184923699001,2023-12-07 13h09.35.921550 -0500,
6.0,"[-0.3, 0]",None,,,,,0.0,9.0,9.0,9.0,,,,,302.93587449996267,,,,,,,,,,,,,,,,,,,,,,,,,,,,,,,,,,,,,,,,,,,,,,302.9206294999458,302.93587449996267,302.93587449996267,303.4359921999276,303.4359921999276,305.9358714999398,305.9358714999398,305.9200428999029,None,1.0,,,,,,,,,,,,,,,,,,,,,,,,nback2,1.0,2023-12-07_12h20.10.465,untitled,2023.2.3,59.97184923699001,2023-12-07 13h09.35.921550 -0500,
11.0,"[-0.64, -0.4]",None,,,,,0.0,10.0,10.0,10.0,,,,,305.9358714999398,,,,,,,,,,,,,,,,,,,,,,,,,,,,,,,,,,,,,,,,,,,,,,305.9207023999188,305.9358714999398,305.9358714999398,306.43577959993854,306.43577959993854,308.93579819996376,308.93579819996376,308.9199464999838,None,1.0,,,,,,,,,,,,,,,,,,,,,,,,nback2,1.0,2023-12-07_12h20.10.465,untitled,2023.2.3,59.97184923699001,2023-12-07 13h09.35.921550 -0500,
11.0,"[-0.64, -0.4]",space,,,,,0.0,11.0,11.0,11.0,,,,,308.93579819996376,,,,,,,,,,,,,,,,,,,,,,,,,,,,,,,,,,,,,,,,,,,,,,308.92059519991744,308.93579819996376,308.93579819996376,309.4356270999415,309.4356270999415,311.93584379996173,311.93584379996173,311.9200380999828,space,1.0,0.3341883000684902,None,,,,,,,,,,,,,,,,,,,,,,nback2,1.0,2023-12-07_12h20.10.465,untitled,2023.2.3,59.97184923699001,2023-12-07 13h09.35.921550 -0500,
4.0,"[-0.2, 0.1]",None,,,,,0.0,12.0,12.0,12.0,,,,,311.93584379996173,,,,,,,,,,,,,,,,,,,,,,,,,,,,,,,,,,,,,,,,,,,,,,311.9208568999311,311.93584379996173,311.93584379996173,312.435652099899,312.435652099899,314.9357289999025,314.9357289999025,314.9198367999634,None,1.0,,,,,,,,,,,,,,,,,,,,,,,,nback2,1.0,2023-12-07_12h20.10.465,untitled,2023.2.3,59.97184923699001,2023-12-07 13h09.35.921550 -0500,
3.0,"[0, 0.2]",None,,,,,0.0,13.0,13.0,13.0,,,,,314.9357289999025,,,,,,,,,,,,,,,,,,,,,,,,,,,,,,,,,,,,,,,,,,,,,,314.9204191999743,314.9357289999025,314.9357289999025,315.4355507999426,315.4355507999426,317.9356662998907,317.9356662998907,317.91981749993283,None,1.0,,,,,,,,,,,,,,,,,,,,,,,,nback2,1.0,2023-12-07_12h20.10.465,untitled,2023.2.3,59.97184923699001,2023-12-07 13h09.35.921550 -0500,
3.0,"[0, 0.2]",space,,,,,0.0,14.0,14.0,14.0,,,,,317.9356662998907,,,,,,,,,,,,,,,,,,,,,,,,,,,,,,,,,,,,,,,,,,,,,,317.920443699928,317.9356662998907,317.9356662998907,318.43558169994503,318.43558169994503,320.93551489990205,320.93551489990205,320.919679399929,space,1.0,0.4298588000237942,None,,,,,,,,,,,,,,,,,,,,,,nback2,1.0,2023-12-07_12h20.10.465,untitled,2023.2.3,59.97184923699001,2023-12-07 13h09.35.921550 -0500,
8.0,"[-0.2, -0.1]",None,,,,,0.0,15.0,15.0,15.0,,,,,320.93551489990205,,,,,,,,,,,,,,,,,,,,,,,,,,,,,,,,,,,,,,,,,,,,,,320.9203463998856,320.93551489990205,320.93551489990205,321.4357077999739,321.4357077999739,323.93570069991983,323.93570069991983,323.9196261999896,None,1.0,,,,,,,,,,,,,,,,,,,,,,,,nback2,1.0,2023-12-07_12h20.10.465,untitled,2023.2.3,59.97184923699001,2023-12-07 13h09.35.921550 -0500,
1.0,"[-0.64, 0.4]",None,,,,,0.0,16.0,16.0,16.0,,,,,323.93570069991983,,,,,,,,,,,,,,,,,,,,,,,,,,,,,,,,,,,,,,,,,,,,,,323.92032299994025,323.93570069991983,323.93570069991983,324.4355864999816,324.4355864999816,326.9357685999712,326.9357685999712,326.9193841998931,None,1.0,,,,,,,,,,,,,,,,,,,,,,,,nback2,1.0,2023-12-07_12h20.10.465,untitled,2023.2.3,59.97184923699001,2023-12-07 13h09.35.921550 -0500,
2.0,"[0.64, 0.4]",None,,,,,0.0,17.0,17.0,17.0,,,,,326.9357685999712,,,,,,,,,,,,,,,,,,,,,,,,,,,,,,,,,,,,,,,,,,,,,,326.9199401999358,326.9357685999712,326.9357685999712,327.4353887999896,327.4353887999896,329.9354012999684,329.9354012999684,329.9195277999388,None,1.0,,,,,,,,,,,,,,,,,,,,,,,,nback2,1.0,2023-12-07_12h20.10.465,untitled,2023.2.3,59.97184923699001,2023-12-07 13h09.35.921550 -0500,
4.0,"[-0.2, 0.1]",None,,,,,0.0,18.0,18.0,18.0,,,,,329.9354012999684,,,,,,,,,,,,,,,,,,,,,,,,,,,,,,,,,,,,,,,,,,,,,,329.92014109995216,329.9354012999684,329.9354012999684,330.43519819993526,330.43519819993526,332.93533769994974,332.93533769994974,332.91955869994126,None,1.0,,,,,,,,,,,,,,,,,,,,,,,,nback2,1.0,2023-12-07_12h20.10.465,untitled,2023.2.3,59.97184923699001,2023-12-07 13h09.35.921550 -0500,
4.0,"[-0.2, 0.1]",space,,,,,0.0,19.0,19.0,19.0,,,,,332.93533769994974,,,,,,,,,,,,,,,,,,,,,,,,,,,,,,,,,,,,,,,,,,,,,,332.9202320999466,332.93533769994974,332.93533769994974,333.4354282999411,333.4354282999411,335.9353809999302,335.9353809999302,335.9196430000011,space,1.0,0.370834199944511,None,,,,,,,,,,,,,,,,,,,,,,nback2,1.0,2023-12-07_12h20.10.465,untitled,2023.2.3,59.97184923699001,2023-12-07 13h09.35.921550 -0500,
8.0,"[-0.2, -0.1]",None,,,,,0.0,20.0,20.0,20.0,,,,,335.9353809999302,,,,,,,,,,,,,,,,,,,,,,,,,,,,,,,,,,,,,,,,,,,,,,335.9206063998863,335.9353809999302,335.9353809999302,336.4352404999081,336.4352404999081,338.9353160999017,338.9353160999017,338.9195497999899,None,1.0,,,,,,,,,,,,,,,,,,,,,,,,nback2,1.0,2023-12-07_12h20.10.465,untitled,2023.2.3,59.97184923699001,2023-12-07 13h09.35.921550 -0500,
5.0,"[0.2, 0.1]",None,,,,,0.0,21.0,21.0,21.0,,,,,338.9353160999017,,,,,,,,,,,,,,,,,,,,,,,,,,,,,,,,,,,,,,,,,,,,,,338.92015639995225,338.9353160999017,338.9353160999017,339.4352560999105,339.4352560999105,341.93535970000084,341.93535970000084,341.91956209996715,None,1.0,,,,,,,,,,,,,,,,,,,,,,,,nback2,1.0,2023-12-07_12h20.10.465,untitled,2023.2.3,59.97184923699001,2023-12-07 13h09.35.921550 -0500,
5.0,"[0.2, 0.1]",space,,,,,0.0,22.0,22.0,22.0,,,,,341.93535970000084,,,,,,,,,,,,,,,,,,,,,,,,,,,,,,,,,,,,,,,,,,,,,,341.92028399999253,341.93535970000084,341.93535970000084,342.4351242999546,342.4351242999546,344.9352596999379,344.9352596999379,344.9193821999943,space,1.0,0.3561840000329539,None,,,,,,,,,,,,,,,,,,,,,,nback2,1.0,2023-12-07_12h20.10.465,untitled,2023.2.3,59.97184923699001,2023-12-07 13h09.35.921550 -0500,
1.0,"[-0.64, 0.4]",None,,,,,0.0,23.0,23.0,23.0,,,,,344.9352596999379,,,,,,,,,,,,,,,,,,,,,,,,,,,,,,,,,,,,,,,,,,,,,,344.9202092998894,344.9352596999379,344.9352596999379,345.4349801999051,345.4349801999051,347.9351442999905,347.9351442999905,347.91902319993824,None,1.0,,,,,,,,,,,,,,,,,,,,,,,,nback2,1.0,2023-12-07_12h20.10.465,untitled,2023.2.3,59.97184923699001,2023-12-07 13h09.35.921550 -0500,
3.0,"[0, 0.2]",None,,,,,0.0,24.0,24.0,24.0,,,,,347.9351442999905,,,,,,,,,,,,,,,,,,,,,,,,,,,,,,,,,,,,,,,,,,,,,,347.9195083999075,347.9351442999905,347.9351442999905,348.4352450999432,348.4352450999432,350.93526239995845,350.93526239995845,350.9194751998876,None,1.0,,,,,,,,,,,,,,,,,,,,,,,,nback2,1.0,2023-12-07_12h20.10.465,untitled,2023.2.3,59.97184923699001,2023-12-07 13h09.35.921550 -0500,
6.0,"[-0.3, 0]",None,,,,,0.0,25.0,25.0,25.0,,,,,350.93526239995845,,,,,,,,,,,,,,,,,,,,,,,,,,,,,,,,,,,,,,,,,,,,,,350.9201313999947,350.93526239995845,350.93526239995845,351.43499129998963,351.43499129998963,353.9350766999414,353.9350766999414,353.9191005999455,None,1.0,,,,,,,,,,,,,,,,,,,,,,,,nback2,1.0,2023-12-07_12h20.10.465,untitled,2023.2.3,59.97184923699001,2023-12-07 13h09.35.921550 -0500,
1.0,"[-0.64, 0.4]",None,,,,,0.0,26.0,26.0,26.0,,,,,353.9350766999414,,,,,,,,,,,,,,,,,,,,,,,,,,,,,,,,,,,,,,,,,,,,,,353.91984819993377,353.9350766999414,353.9350766999414,354.4349858999485,354.4349858999485,356.93508669990115,356.93508669990115,356.91913779999595,None,1.0,,,,,,,,,,,,,,,,,,,,,,,,nback2,1.0,2023-12-07_12h20.10.465,untitled,2023.2.3,59.97184923699001,2023-12-07 13h09.35.921550 -0500,
1.0,"[-0.64, 0.4]",space,,,,,0.0,27.0,27.0,27.0,,,,,356.93508669990115,,,,,,,,,,,,,,,,,,,,,,,,,,,,,,,,,,,,,,,,,,,,,,356.9197525999043,356.93508669990115,356.93508669990115,357.43483909999486,357.43483909999486,359.93499429989606,359.93499429989606,359.91888219991233,space,1.0,0.5518637000350282,None,,,,,,,,,,,,,,,,,,,,,,nback2,1.0,2023-12-07_12h20.10.465,untitled,2023.2.3,59.97184923699001,2023-12-07 13h09.35.921550 -0500,
1.0,"[-0.64, 0.4]",space,,,,,0.0,28.0,28.0,28.0,,,,,359.93499429989606,,,,,,,,,,,,,,,,,,,,,,,,,,,,,,,,,,,,,,,,,,,,,,359.919688199996,359.93499429989606,359.93499429989606,360.4349102999549,360.4349102999549,362.9349124999717,362.9349124999717,362.918895599898,None,0.0,,,,,,,,,,,,,,,,,,,,,,,,nback2,1.0,2023-12-07_12h20.10.465,untitled,2023.2.3,59.97184923699001,2023-12-07 13h09.35.921550 -0500,
3.0,"[0, 0.2]",None,,,,,0.0,29.0,29.0,29.0,,,,,362.9349124999717,,,,,,,,,,,,,,,,,,,,,,,,,,,,,,,,,,,,,,,,,,,,,,362.9194363999413,362.9349124999717,362.9349124999717,363.43478319991846,363.43478319991846,365.93489289993886,365.93489289993886,365.9189491999568,None,1.0,,,,,,,,,,,,,,,,,,,,,,,,nback2,1.0,2023-12-07_12h20.10.465,untitled,2023.2.3,59.97184923699001,2023-12-07 13h09.35.921550 -0500,
12.0,"[0.64, -0.4]",None,,,,,0.0,30.0,30.0,30.0,,,,,365.93489289993886,,,,,,,,,,,,,,,,,,,,,,,,,,,,,,,,,,,,,,,,,,,,,,365.91962099995,365.93489289993886,365.93489289993886,366.43492099992,366.43492099992,368.9348204999697,368.9348204999697,368.91892119997647,None,1.0,,,,,,,,,,,,,,,,,,,,,,,,nback2,1.0,2023-12-07_12h20.10.465,untitled,2023.2.3,59.97184923699001,2023-12-07 13h09.35.921550 -0500,
12.0,"[0.64, -0.4]",space,,,,,0.0,31.0,31.0,31.0,,,,,368.9348204999697,,,,,,,,,,,,,,,,,,,,,,,,,,,,,,,,,,,,,,,,,,,,,,368.919562999974,368.9348204999697,368.9348204999697,369.4347865999444,369.4347865999444,371.93478189990856,371.93478189990856,371.918765099952,space,1.0,0.4538163000252098,None,,,,,,,,,,,,,,,,,,,,,,nback2,1.0,2023-12-07_12h20.10.465,untitled,2023.2.3,59.97184923699001,2023-12-07 13h09.35.921550 -0500,
2.0,"[0.64, 0.4]",None,,,,,0.0,32.0,32.0,32.0,,,,,371.93478189990856,,,,,,,,,,,,,,,,,,,,,,,,,,,,,,,,,,,,,,,,,,,,,,371.9195083999075,371.93478189990856,371.93478189990856,372.434633399942,372.434633399942,374.934737799922,374.934737799922,374.9189787999494,None,1.0,,,,,,,,,,,,,,,,,,,,,,,,nback2,1.0,2023-12-07_12h20.10.465,untitled,2023.2.3,59.97184923699001,2023-12-07 13h09.35.921550 -0500,
1.0,"[-0.64, 0.4]",None,,,,,0.0,33.0,33.0,33.0,,,,,374.934737799922,,,,,,,,,,,,,,,,,,,,,,,,,,,,,,,,,,,,,,,,,,,,,,374.91981669992674,374.934737799922,374.934737799922,375.4344439998968,375.4344439998968,377.9346153999213,377.9346153999213,377.9182908999501,None,1.0,,,,,,,,,,,,,,,,,,,,,,,,nback2,1.0,2023-12-07_12h20.10.465,untitled,2023.2.3,59.97184923699001,2023-12-07 13h09.35.921550 -0500,
7.0,"[0.3, 0]",None,,,,,0.0,34.0,34.0,34.0,,,,,377.9346153999213,,,,,,,,,,,,,,,,,,,,,,,,,,,,,,,,,,,,,,,,,,,,,,377.9185991999693,377.9346153999213,377.9346153999213,378.4343964,378.4343964,380.93462129996624,380.93462129996624,380.9191513999831,None,1.0,,,,,,,,,,,,,,,,,,,,,,,,nback2,1.0,2023-12-07_12h20.10.465,untitled,2023.2.3,59.97184923699001,2023-12-07 13h09.35.921550 -0500,
7.0,"[0.3, 0]",space,,,,,0.0,35.0,35.0,35.0,,,,,380.93462129996624,,,,,,,,,,,,,,,,,,,,,,,,,,,,,,,,,,,,,,,,,,,,,,380.9198360999581,380.93462129996624,380.93462129996624,381.4346241999883,381.4346241999883,383.9344885998871,383.9344885998871,383.91868889995385,space,1.0,0.4338635000167414,None,,,,,,,,,,,,,,,,,,,,,,nback2,1.0,2023-12-07_12h20.10.465,untitled,2023.2.3,59.97184923699001,2023-12-07 13h09.35.921550 -0500,
11.0,"[-0.64, -0.4]",None,,,,,0.0,36.0,36.0,36.0,,,,,383.9344885998871,,,,,,,,,,,,,,,,,,,,,,,,,,,,,,,,,,,,,,,,,,,,,,383.9194840999553,383.9344885998871,383.9344885998871,384.4345639999956,384.4345639999956,386.9344528999645,386.9344528999645,386.9182328999741,None,1.0,,,,,,,,,,,,,,,,,,,,,,,,nback2,1.0,2023-12-07_12h20.10.465,untitled,2023.2.3,59.97184923699001,2023-12-07 13h09.35.921550 -0500,
2.0,"[0.64, 0.4]",None,,,,,0.0,37.0,37.0,37.0,,,,,386.9344528999645,,,,,,,,,,,,,,,,,,,,,,,,,,,,,,,,,,,,,,,,,,,,,,386.9186700999271,386.9344528999645,386.9344528999645,387.4343695999123,387.4343695999123,389.9344755999045,389.9344755999045,389.91876469994895,None,1.0,,,,,,,,,,,,,,,,,,,,,,,,nback2,1.0,2023-12-07_12h20.10.465,untitled,2023.2.3,59.97184923699001,2023-12-07 13h09.35.921550 -0500,
6.0,"[-0.3, 0]",None,,,,,0.0,38.0,38.0,38.0,,,,,389.9344755999045,,,,,,,,,,,,,,,,,,,,,,,,,,,,,,,,,,,,,,,,,,,,,,389.91943689994514,389.9344755999045,389.9344755999045,390.4343695999123,390.4343695999123,392.9343577999389,392.9343577999389,392.9187121998984,None,1.0,,,,,,,,,,,,,,,,,,,,,,,,nback2,1.0,2023-12-07_12h20.10.465,untitled,2023.2.3,59.97184923699001,2023-12-07 13h09.35.921550 -0500,
10.0,"[0, -0.2]",None,,,,,0.0,39.0,39.0,39.0,,,,,392.9343577999389,,,,,,,,,,,,,,,,,,,,,,,,,,,,,,,,,,,,,,,,,,,,,,392.91941929992754,392.9343577999389,392.9343577999389,393.4344469999196,393.4344469999196,395.93453329999465,395.93453329999465,395.9184894999489,None,1.0,,,,,,,,,,,,,,,,,,,,,,,,nback2,1.0,2023-12-07_12h20.10.465,untitled,2023.2.3,59.97184923699001,2023-12-07 13h09.35.921550 -0500,
,,,,,,,,,,,,,,,,,,,,,,,,,,,,,,,,,,,,,,,,,,,,,,,,,,,,,,,,,,,,,,,,,,,,,,,,,395.9189762999304,395.93453329999465,395.93453329999465,439.66828969994094,space,43.72470400005113,None,,,,,,,,,,,,,,,nback2,1.0,2023-12-07_12h20.10.465,untitled,2023.2.3,59.97184923699001,2023-12-07 13h09.35.921550 -0500,
,"[0.2, 0.1]",None,,,,,,,,,0.0,0.0,0.0,0.0,440.6849871999584,,,,,,,,,,,,,,,,,,,,,,,,439.668329399894,439.6836695999373,440.6849871999584,440.6675502998987,,,,,,,,,,,,,,,,,,,,,,,,,,,,,,,,,,,,,,440.6829166999087,440.6849871999584,440.6849871999584,441.18374759994913,441.20035849988926,443.68361199996434,443.6838056999258,None,1.0,,,,,,nback2,1.0,2023-12-07_12h20.10.465,untitled,2023.2.3,59.97184923699001,2023-12-07 13h09.35.921550 -0500,
,"[0.64, 0.4]",None,,,,,,,,,0.0,1.0,1.0,1.0,443.7003809999442,,,,,,,,,,,,,,,,,,,,,,,,,,,,,,,,,,,,,,,,,,,,,,,,,,,,,,,,,,,,,,,,,443.6847731999587,443.7003809999442,443.7003809999442,444.1835508999648,444.2001343999291,446.6835668999702,446.68376519996673,None,1.0,,,,,,nback2,1.0,2023-12-07_12h20.10.465,untitled,2023.2.3,59.97184923699001,2023-12-07 13h09.35.921550 -0500,
,"[-0.3, 0]",None,,,,,,,,,0.0,2.0,2.0,2.0,446.70034299988765,,,,,,,,,,,,,,,,,,,,,,,,,,,,,,,,,,,,,,,,,,,,,,,,,,,,,,,,,,,,,,,,,446.6846449999138,446.70034299988765,446.70034299988765,447.18344669998623,447.1999956999207,449.6836094999453,449.6837937999517,None,1.0,,,,,,nback2,1.0,2023-12-07_12h20.10.465,untitled,2023.2.3,59.97184923699001,2023-12-07 13h09.35.921550 -0500,
,"[0.2, -0.1]",None,,,,,,,,,0.0,3.0,3.0,3.0,449.7002471999731,,,,,,,,,,,,,,,,,,,,,,,,,,,,,,,,,,,,,,,,,,,,,,,,,,,,,,,,,,,,,,,,,449.68451739999,449.7002471999731,449.7002471999731,450.18349239998497,450.2000869999174,452.6834389999276,452.6836042999057,None,1.0,,,,,,nback2,1.0,2023-12-07_12h20.10.465,untitled,2023.2.3,59.97184923699001,2023-12-07 13h09.35.921550 -0500,
,"[0, 0.2]",None,,,,,,,,,0.0,4.0,4.0,4.0,452.70007839996833,,,,,,,,,,,,,,,,,,,,,,,,,,,,,,,,,,,,,,,,,,,,,,,,,,,,,,,,,,,,,,,,,452.6843133999501,452.70007839996833,452.70007839996833,453.1833026999375,453.20006149995606,455.6834888999583,455.6836898999754,None,1.0,,,,,,nback2,1.0,2023-12-07_12h20.10.465,untitled,2023.2.3,59.97184923699001,2023-12-07 13h09.35.921550 -0500,
,"[0.2, -0.1]",space,,,,,,,,,0.0,5.0,5.0,5.0,455.7002517998917,,,,,,,,,,,,,,,,,,,,,,,,,,,,,,,,,,,,,,,,,,,,,,,,,,,,,,,,,,,,,,,,,455.6845033999998,455.7002517998917,455.7002517998917,456.1832870999351,456.1999253999674,458.6833079999778,458.683490699972,space,1.0,0.5778400999261066,None,,,,nback2,1.0,2023-12-07_12h20.10.465,untitled,2023.2.3,59.97184923699001,2023-12-07 13h09.35.921550 -0500,
,"[0, -0.2]",None,,,,,,,,,0.0,6.0,6.0,6.0,458.70006459997967,,,,,,,,,,,,,,,,,,,,,,,,,,,,,,,,,,,,,,,,,,,,,,,,,,,,,,,,,,,,,,,,,458.6845515999012,458.70006459997967,458.70006459997967,459.1832149999682,459.199825599906,461.6833939999342,461.6835861,None,1.0,,,,,,nback2,1.0,2023-12-07_12h20.10.465,untitled,2023.2.3,59.97184923699001,2023-12-07 13h09.35.921550 -0500,
,"[0.64, -0.4]",None,,,,,,,,,0.0,7.0,7.0,7.0,461.6999062999385,,,,,,,,,,,,,,,,,,,,,,,,,,,,,,,,,,,,,,,,,,,,,,,,,,,,,,,,,,,,,,,,,461.6843748999527,461.6999062999385,461.6999062999385,462.1831774999155,462.1998329999624,464.6831481999252,464.68332189996727,None,1.0,,,,,,nback2,1.0,2023-12-07_12h20.10.465,untitled,2023.2.3,59.97184923699001,2023-12-07 13h09.35.921550 -0500,
,"[0.3, 0]",None,,,,,,,,,0.0,8.0,8.0,8.0,464.6999757000012,,,,,,,,,,,,,,,,,,,,,,,,,,,,,,,,,,,,,,,,,,,,,,,,,,,,,,,,,,,,,,,,,464.6840192999225,464.6999757000012,464.6999757000012,465.1830692999065,465.199656499899,467.6832032999955,467.6833883998916,None,1.0,,,,,,nback2,1.0,2023-12-07_12h20.10.465,untitled,2023.2.3,59.97184923699001,2023-12-07 13h09.35.921550 -0500,
,"[0.64, -0.4]",space,,,,,,,,,0.0,9.0,9.0,9.0,467.69997639989015,,,,,,,,,,,,,,,,,,,,,,,,,,,,,,,,,,,,,,,,,,,,,,,,,,,,,,,,,,,,,,,,,467.6841577999294,467.69997639989015,467.69997639989015,468.183102699928,468.1999193999218,470.6830698999111,470.6832349998877,space,1.0,0.4268991000717506,None,,,,nback2,1.0,2023-12-07_12h20.10.465,untitled,2023.2.3,59.97184923699001,2023-12-07 13h09.35.921550 -0500,
,"[-0.64, 0.4]",None,,,,,,,,,0.0,10.0,10.0,10.0,470.69987809995655,,,,,,,,,,,,,,,,,,,,,,,,,,,,,,,,,,,,,,,,,,,,,,,,,,,,,,,,,,,,,,,,,470.68408669997007,470.69987809995655,470.69987809995655,471.1829673999455,471.1996414999012,473.6830943999812,473.6832518998999,None,1.0,,,,,,nback2,1.0,2023-12-07_12h20.10.465,untitled,2023.2.3,59.97184923699001,2023-12-07 13h09.35.921550 -0500,
,"[0.2, 0.1]",None,,,,,,,,,0.0,11.0,11.0,11.0,473.6999386999523,,,,,,,,,,,,,,,,,,,,,,,,,,,,,,,,,,,,,,,,,,,,,,,,,,,,,,,,,,,,,,,,,473.6838596999878,473.6999386999523,473.6999386999523,474.18303089996334,474.1995868999511,476.6830195999937,476.6831923999125,None,1.0,,,,,,nback2,1.0,2023-12-07_12h20.10.465,untitled,2023.2.3,59.97184923699001,2023-12-07 13h09.35.921550 -0500,
,"[0.3, 0]",None,,,,,,,,,0.0,12.0,12.0,12.0,476.6996866998961,,,,,,,,,,,,,,,,,,,,,,,,,,,,,,,,,,,,,,,,,,,,,,,,,,,,,,,,,,,,,,,,,476.6838929998921,476.6996866998961,476.6996866998961,477.1829578999896,477.1996158999391,479.6830019999761,479.6831872999901,None,1.0,,,,,,nback2,1.0,2023-12-07_12h20.10.465,untitled,2023.2.3,59.97184923699001,2023-12-07 13h09.35.921550 -0500,
,"[0.2, 0.1]",space,,,,,,,,,0.0,13.0,13.0,13.0,479.6995796998963,,,,,,,,,,,,,,,,,,,,,,,,,,,,,,,,,,,,,,,,,,,,,,,,,,,,,,,,,,,,,,,,,479.68401379999705,479.6995796998963,479.6995796998963,480.1827986999415,480.1995204999112,482.6829101999756,482.6830868999241,space,1.0,0.3527328999480232,None,,,,nback2,1.0,2023-12-07_12h20.10.465,untitled,2023.2.3,59.97184923699001,2023-12-07 13h09.35.921550 -0500,
,"[-0.3, 0]",None,,,,,,,,,0.0,14.0,14.0,14.0,482.69954439997673,,,,,,,,,,,,,,,,,,,,,,,,,,,,,,,,,,,,,,,,,,,,,,,,,,,,,,,,,,,,,,,,,482.6839267999167,482.69954439997673,482.69954439997673,483.18269509996753,483.19942579988856,485.6829210999422,485.6831179999281,None,1.0,,,,,,nback2,1.0,2023-12-07_12h20.10.465,untitled,2023.2.3,59.97184923699001,2023-12-07 13h09.35.921550 -0500,
,"[0, 0.2]",None,,,,,,,,,0.0,15.0,15.0,15.0,485.6995788998902,,,,,,,,,,,,,,,,,,,,,,,,,,,,,,,,,,,,,,,,,,,,,,,,,,,,,,,,,,,,,,,,,485.68384659988806,485.6995788998902,485.6995788998902,486.1828122999286,486.19953989994247,488.682960899896,488.68315839988645,None,1.0,,,,,,nback2,1.0,2023-12-07_12h20.10.465,untitled,2023.2.3,59.97184923699001,2023-12-07 13h09.35.921550 -0500,
,"[-0.3, 0]",space,,,,,,,,,0.0,16.0,16.0,16.0,488.6994639999466,,,,,,,,,,,,,,,,,,,,,,,,,,,,,,,,,,,,,,,,,,,,,,,,,,,,,,,,,,,,,,,,,488.6839533998864,488.6994639999466,488.6994639999466,489.182761099888,489.1994439999107,491.6828995998949,491.6831546999747,space,1.0,0.3147580000804737,None,,,,nback2,1.0,2023-12-07_12h20.10.465,untitled,2023.2.3,59.97184923699001,2023-12-07 13h09.35.921550 -0500,
,"[-0.64, -0.4]",None,,,,,,,,,0.0,17.0,17.0,17.0,491.6995516999159,,,,,,,,,,,,,,,,,,,,,,,,,,,,,,,,,,,,,,,,,,,,,,,,,,,,,,,,,,,,,,,,,491.6841715999181,491.6995516999159,491.6995516999159,492.1826756999362,492.1992696999805,494.6828339999775,494.6830292999512,None,1.0,,,,,,nback2,1.0,2023-12-07_12h20.10.465,untitled,2023.2.3,59.97184923699001,2023-12-07 13h09.35.921550 -0500,
,"[-0.2, -0.1]",None,,,,,,,,,0.0,18.0,18.0,18.0,494.6994660999626,,,,,,,,,,,,,,,,,,,,,,,,,,,,,,,,,,,,,,,,,,,,,,,,,,,,,,,,,,,,,,,,,494.68396019993816,494.6994660999626,494.6994660999626,495.1826174999587,495.19927369989455,497.6826764999423,497.6828612999525,None,1.0,,,,,,nback2,1.0,2023-12-07_12h20.10.465,untitled,2023.2.3,59.97184923699001,2023-12-07 13h09.35.921550 -0500,
,"[0.2, -0.1]",None,,,,,,,,,0.0,19.0,19.0,19.0,497.6994022999425,,,,,,,,,,,,,,,,,,,,,,,,,,,,,,,,,,,,,,,,,,,,,,,,,,,,,,,,,,,,,,,,,497.68364839989226,497.6994022999425,497.6994022999425,498.1826346999733,498.1993310999824,500.68267589993775,500.6828542998992,None,1.0,,,,,,nback2,1.0,2023-12-07_12h20.10.465,untitled,2023.2.3,59.97184923699001,2023-12-07 13h09.35.921550 -0500,
,"[0.2, -0.1]",None,,,,,,,,,0.0,20.0,20.0,20.0,500.6994096999988,,,,,,,,,,,,,,,,,,,,,,,,,,,,,,,,,,,,,,,,,,,,,,,,,,,,,,,,,,,,,,,,,500.6835831999779,500.6994096999988,500.6994096999988,501.1825333999004,501.1991997999139,503.6826659999788,503.6828896999359,None,1.0,,,,,,nback2,1.0,2023-12-07_12h20.10.465,untitled,2023.2.3,59.97184923699001,2023-12-07 13h09.35.921550 -0500,
,"[-0.64, 0.4]",None,,,,,,,,,0.0,21.0,21.0,21.0,503.6991997999139,,,,,,,,,,,,,,,,,,,,,,,,,,,,,,,,,,,,,,,,,,,,,,,,,,,,,,,,,,,,,,,,,503.68357129988726,503.6991997999139,503.6991997999139,504.1823664999101,504.199096599943,506.6825354999164,506.6827682999429,None,1.0,,,,,,nback2,1.0,2023-12-07_12h20.10.465,untitled,2023.2.3,59.97184923699001,2023-12-07 13h09.35.921550 -0500,
,"[0, 0.2]",None,,,,,,,,,0.0,22.0,22.0,22.0,506.6992799999425,,,,,,,,,,,,,,,,,,,,,,,,,,,,,,,,,,,,,,,,,,,,,,,,,,,,,,,,,,,,,,,,,506.6834489998873,506.6992799999425,506.6992799999425,507.1825264999643,507.1991355998907,509.6825175998965,509.6826908999356,None,1.0,,,,,,nback2,1.0,2023-12-07_12h20.10.465,untitled,2023.2.3,59.97184923699001,2023-12-07 13h09.35.921550 -0500,
,"[0.64, -0.4]",None,,,,,,,,,0.0,23.0,23.0,23.0,509.6991630999837,,,,,,,,,,,,,,,,,,,,,,,,,,,,,,,,,,,,,,,,,,,,,,,,,,,,,,,,,,,,,,,,,509.6834808998974,509.6991630999837,509.6991630999837,510.1824609999312,510.1991540999152,512.6825489999028,512.6827702999581,None,1.0,,,,,,nback2,1.0,2023-12-07_12h20.10.465,untitled,2023.2.3,59.97184923699001,2023-12-07 13h09.35.921550 -0500,
,"[0, 0.2]",space,,,,,,,,,0.0,24.0,24.0,24.0,512.6991022999864,,,,,,,,,,,,,,,,,,,,,,,,,,,,,,,,,,,,,,,,,,,,,,,,,,,,,,,,,,,,,,,,,512.6834979999112,512.6991022999864,512.6991022999864,513.1823165999958,513.1989438999444,515.6824849999975,515.6827365999343,space,1.0,0.3615128999808803,None,,,,nback2,1.0,2023-12-07_12h20.10.465,untitled,2023.2.3,59.97184923699001,2023-12-07 13h09.35.921550 -0500,
,"[-0.2, 0.1]",None,,,,,,,,,0.0,25.0,25.0,25.0,515.699152499903,,,,,,,,,,,,,,,,,,,,,,,,,,,,,,,,,,,,,,,,,,,,,,,,,,,,,,,,,,,,,,,,,515.6837763999356,515.699152499903,515.699152499903,516.1822230999824,516.1987808999838,518.6824714998947,518.6827172999037,space,0.0,1.7842731999699026,None,,,,nback2,1.0,2023-12-07_12h20.10.465,untitled,2023.2.3,59.97184923699001,2023-12-07 13h09.35.921550 -0500,
,"[0.3, 0]",None,,,,,,,,,0.0,26.0,26.0,26.0,518.6988997999579,,,,,,,,,,,,,,,,,,,,,,,,,,,,,,,,,,,,,,,,,,,,,,,,,,,,,,,,,,,,,,,,,518.6837491999613,518.6988997999579,518.6988997999579,519.1822197999572,519.1988619999029,521.6822776999325,521.6824519999791,None,1.0,,,,,,nback2,1.0,2023-12-07_12h20.10.465,untitled,2023.2.3,59.97184923699001,2023-12-07 13h09.35.921550 -0500,
,"[-0.2, 0.1]",space,,,,,,,,,0.0,27.0,27.0,27.0,521.6991461999714,,,,,,,,,,,,,,,,,,,,,,,,,,,,,,,,,,,,,,,,,,,,,,,,,,,,,,,,,,,,,,,,,521.6832425999455,521.6991461999714,521.6991461999714,522.1820754999062,522.1988418999827,524.682336299913,524.682536499924,None,0.0,,,,,,nback2,1.0,2023-12-07_12h20.10.465,untitled,2023.2.3,59.97184923699001,2023-12-07 13h09.35.921550 -0500,
,"[-0.2, 0.1]",None,,,,,,,,,0.0,28.0,28.0,28.0,524.6989685998997,,,,,,,,,,,,,,,,,,,,,,,,,,,,,,,,,,,,,,,,,,,,,,,,,,,,,,,,,,,,,,,,,524.6832936999854,524.6989685998997,524.6989685998997,525.1822100999998,525.1988388999598,527.682038399973,527.6822039999533,space,0.0,0.6254884999943897,None,,,,nback2,1.0,2023-12-07_12h20.10.465,untitled,2023.2.3,59.97184923699001,2023-12-07 13h09.35.921550 -0500,
,"[0.2, 0.1]",None,,,,,,,,,0.0,29.0,29.0,29.0,527.6989055000013,,,,,,,,,,,,,,,,,,,,,,,,,,,,,,,,,,,,,,,,,,,,,,,,,,,,,,,,,,,,,,,,,527.6830307999626,527.6989055000013,527.6989055000013,528.1820247999858,528.1986641999101,530.6821730999509,530.6823400999419,None,1.0,,,,,,nback2,1.0,2023-12-07_12h20.10.465,untitled,2023.2.3,59.97184923699001,2023-12-07 13h09.35.921550 -0500,
,"[-0.64, -0.4]",None,,,,,,,,,0.0,30.0,30.0,30.0,530.6986880999757,,,,,,,,,,,,,,,,,,,,,,,,,,,,,,,,,,,,,,,,,,,,,,,,,,,,,,,,,,,,,,,,,530.6830282999435,530.6986880999757,530.6986880999757,531.1819992999081,531.198623699951,533.6820707999868,533.6822535999818,None,1.0,,,,,,nback2,1.0,2023-12-07_12h20.10.465,untitled,2023.2.3,59.97184923699001,2023-12-07 13h09.35.921550 -0500,
,"[0, -0.2]",None,,,,,,,,,0.0,31.0,31.0,31.0,533.6988692999585,,,,,,,,,,,,,,,,,,,,,,,,,,,,,,,,,,,,,,,,,,,,,,,,,,,,,,,,,,,,,,,,,533.6830399999162,533.6988692999585,533.6988692999585,534.1818710999796,534.1985646999674,536.682196199894,536.6823564999504,None,1.0,,,,,,nback2,1.0,2023-12-07_12h20.10.465,untitled,2023.2.3,59.97184923699001,2023-12-07 13h09.35.921550 -0500,
,"[-0.64, -0.4]",space,,,,,,,,,0.0,32.0,32.0,32.0,536.6988796999212,,,,,,,,,,,,,,,,,,,,,,,,,,,,,,,,,,,,,,,,,,,,,,,,,,,,,,,,,,,,,,,,,536.6831174999243,536.6988796999212,536.6988796999212,537.1819783999817,537.1985136999283,539.6821470999857,539.682325599948,space,1.0,0.3654875999782234,None,,,,nback2,1.0,2023-12-07_12h20.10.465,untitled,2023.2.3,59.97184923699001,2023-12-07 13h09.35.921550 -0500,
,"[0.64, 0.4]",None,,,,,,,,,0.0,33.0,33.0,33.0,539.6985434999224,,,,,,,,,,,,,,,,,,,,,,,,,,,,,,,,,,,,,,,,,,,,,,,,,,,,,,,,,,,,,,,,,539.6831508999458,539.6985434999224,539.6985434999224,540.1821276999544,540.1985838999972,542.6819313999731,542.6821054999018,None,1.0,,,,,,nback2,1.0,2023-12-07_12h20.10.465,untitled,2023.2.3,59.97184923699001,2023-12-07 13h09.35.921550 -0500,
,"[-0.3, 0]",None,,,,,,,,,0.0,34.0,34.0,34.0,542.6988702999661,,,,,,,,,,,,,,,,,,,,,,,,,,,,,,,,,,,,,,,,,,,,,,,,,,,,,,,,,,,,,,,,,542.6828162999591,542.6988702999661,542.6988702999661,543.1818298998987,543.1984011998866,545.6818102999823,545.6819754999597,None,1.0,,,,,,nback2,1.0,2023-12-07_12h20.10.465,untitled,2023.2.3,59.97184923699001,2023-12-07 13h09.35.921550 -0500,
,"[0.3, 0]",None,,,,,,,,,0.0,35.0,35.0,35.0,545.6985909999348,,,,,,,,,,,,,,,,,,,,,,,,,,,,,,,,,,,,,,,,,,,,,,,,,,,,,,,,,,,,,,,,,545.6827424999792,545.6985909999348,545.6985909999348,546.1818812999409,546.1986540999496,548.6818957999349,548.6820794999367,None,1.0,,,,,,nback2,1.0,2023-12-07_12h20.10.465,untitled,2023.2.3,59.97184923699001,2023-12-07 13h09.35.921550 -0500,
,"[-0.3, 0]",space,,,,,,,,,0.0,36.0,36.0,36.0,548.698426399962,,,,,,,,,,,,,,,,,,,,,,,,,,,,,,,,,,,,,,,,,,,,,,,,,,,,,,,,,,,,,,,,,548.6829042999307,548.698426399962,548.698426399962,549.1816875999793,549.1983968999702,551.6818869999843,551.6821040998911,space,1.0,0.3675064999843016,None,,,,nback2,1.0,2023-12-07_12h20.10.465,untitled,2023.2.3,59.97184923699001,2023-12-07 13h09.35.921550 -0500,
,"[0, -0.2]",None,,,,,,,,,0.0,37.0,37.0,37.0,551.6983551000012,,,,,,,,,,,,,,,,,,,,,,,,,,,,,,,,,,,,,,,,,,,,,,,,,,,,,,,,,,,,,,,,,551.6831309999106,551.6983551000012,551.6983551000012,552.181752699893,552.1984287999803,554.6817985998932,554.6819654999999,None,1.0,,,,,,nback2,1.0,2023-12-07_12h20.10.465,untitled,2023.2.3,59.97184923699001,2023-12-07 13h09.35.921550 -0500,
,"[0.3, 0]",None,,,,,,,,,0.0,38.0,38.0,38.0,554.6983412998961,,,,,,,,,,,,,,,,,,,,,,,,,,,,,,,,,,,,,,,,,,,,,,,,,,,,,,,,,,,,,,,,,554.6825900999829,554.6983412998961,554.6983412998961,555.1816582999891,555.1983189999592,557.681703899987,557.6818698999705,None,1.0,,,,,,nback2,1.0,2023-12-07_12h20.10.465,untitled,2023.2.3,59.97184923699001,2023-12-07 13h09.35.921550 -0500,
,"[0.2, 0.1]",None,,,,,,,,,0.0,39.0,39.0,39.0,557.698570999899,,,,,,,,,,,,,,,,,,,,,,,,,,,,,,,,,,,,,,,,,,,,,,,,,,,,,,,,,,,,,,,,,557.6825466000009,557.698570999899,557.698570999899,558.1815158999525,558.1981197999557,560.6817605999531,560.6819686999079,None,1.0,,,,,,nback2,1.0,2023-12-07_12h20.10.465,untitled,2023.2.3,59.97184923699001,2023-12-07 13h09.35.921550 -0500,
,,,,,,,,,,,,,,,,,,,,,,,,,,,,,,,,,,,,,,,,,,,,,,,,,,,,,,,,,,,,,,,,,,,,,,,,,,,,,,,,,,,,,,,,,,,560.6825463999994,560.6983510999708,563.6816662999336,,,,,,,,
