square,location,corrAns,trials_0.thisRepN,trials_0.thisTrialN,trials_0.thisN,trials_0.thisIndex,trials_1.thisRepN,trials_1.thisTrialN,trials_1.thisN,trials_1.thisIndex,trials_2.thisRepN,trials_2.thisTrialN,trials_2.thisN,trials_2.thisIndex,thisRow.t,notes,Instructions.started,instructions.started,key_resp.started,inst_sq11.started,Instructions.stopped,key_resp.keys,key_resp.rt,key_resp.duration,All.started,sq_1.started,sq_2.started,sq_3.started,sq_4.started,sq_5.started,sq_6.started,sq_7.started,sq_8.started,sq_9.started,sq_10.started,sq_11.started,sq_12.started,All.stopped,Fixation.started,fixation_3.started,fixation_3.stopped,Fixation.stopped,N_back_0_Trial.started,target_square_0.started,response_0.started,fixation_0.started,target_square_0.stopped,fixation_0.stopped,N_back_0_Trial.stopped,response_0.keys,response_0.corr,response_0.rt,response_0.duration,Instructions_1.started,instructions_1.started,key_resp_1.started,Instructions_1.stopped,key_resp_1.keys,key_resp_1.rt,key_resp_1.duration,N_back_1_Trial.started,target_square_1.started,response_1.started,target_square_1.stopped,fixation_1.started,fixation_1.stopped,response_1.stopped,N_back_1_Trial.stopped,response_1.keys,response_1.corr,response_1.rt,response_1.duration,Instructions_2.started,instructions_2.started,key_resp_2.started,Instructions_2.stopped,key_resp_2.keys,key_resp_2.rt,key_resp_2.duration,N_back_2_trials.started,target_square_2.started,response_2.started,fixation_2.started,target_square_2.stopped,fixation_2.stopped,N_back_2_trials.stopped,response_2.keys,response_2.corr,response_2.rt,response_2.duration,End.started,thank_you.started,End.stopped,participant,session,date,expName,psychopyVersion,frameRate,expStart,
,,,,,,,,,,,,,,,,,0.0018767000292427838,0.004343100008554757,0.004343100008554757,0.004343100008554757,1963.103883600037,space,1963.082852499967,None,,,,,,,,,,,,,,,,,,,,,,,,,,,,,,,,,,,,,,,,,,,,,,,,,,,,,,,,,,,,,,,,,,,,,,nback52,001,2024-01-15_10h22.11.185,untitled,2023.2.3,60.013635103908875,2024-01-15 10h48.40.183444 -0500,
6,"[-0.3, 0]",None,0,0,0,0,,,,,,,,,1965.1237340000225,,,,,,,,,,1963.103947399999,1963.1191420999821,1963.1191420999821,1963.1191420999821,1963.1191420999821,1963.1191420999821,1963.1191420999821,1963.1191420999821,1963.1191420999821,1963.1191420999821,1963.1191420999821,1963.1191420999821,1963.1191420999821,1964.1033595000044,1964.1033880999894,1964.1190523999976,1965.1237340000225,1965.1032465000171,1965.1218066000147,1965.1237340000225,1965.1237340000225,1965.6023879999993,1965.6358804000192,1968.1022445000126,1968.1192167000263,None,1,,,,,,,,,,,,,,,,,,,,,,,,,,,,,,,,,,,,,,,,,,,nback52,001,2024-01-15_10h22.11.185,untitled,2023.2.3,60.013635103908875,2024-01-15 10h48.40.183444 -0500,
10,"[0, -0.2]",None,0,1,1,1,,,,,,,,,1968.1355955000035,,,,,,,,,,,,,,,,,,,,,,,,,,,,1968.1201873000246,1968.1355955000035,1968.1355955000035,1968.6022325000376,1968.6357041000156,1971.1023045000038,1971.1191980000003,None,1,,,,,,,,,,,,,,,,,,,,,,,,,,,,,,,,,,,,,,,,,,,nback52,001,2024-01-15_10h22.11.185,untitled,2023.2.3,60.013635103908875,2024-01-15 10h48.40.183444 -0500,
11,"[-0.64, -0.4]",space,0,2,2,2,,,,,,,,,1971.1355080000358,,,,,,,,,,,,,,,,,,,,,,,,,,,,1971.1199473000015,1971.1355080000358,1971.1355080000358,1971.6190376000013,1971.635514100024,1974.1190409000264,1974.1192212000024,space,1,0.49903349997475743,None,,,,,,,,,,,,,,,,,,,,,,,,,,,,,,,,,,,,,,,,,nback52,001,2024-01-15_10h22.11.185,untitled,2023.2.3,60.013635103908875,2024-01-15 10h48.40.183444 -0500,
12,"[0.64, -0.4]",None,0,3,3,3,,,,,,,,,1974.1355919000343,,,,,,,,,,,,,,,,,,,,,,,,,,,,1974.1203483000281,1974.1355919000343,1974.1355919000343,1974.6022617000272,1974.6355802000035,1977.1020778000238,1977.118813899986,None,1,,,,,,,,,,,,,,,,,,,,,,,,,,,,,,,,,,,,,,,,,,,nback52,001,2024-01-15_10h22.11.185,untitled,2023.2.3,60.013635103908875,2024-01-15 10h48.40.183444 -0500,
1,"[-0.64, 0.4]",None,0,4,4,4,,,,,,,,,1977.1355599000235,,,,,,,,,,,,,,,,,,,,,,,,,,,,1977.1192728999886,1977.1355599000235,1977.1355599000235,1977.6189433999825,1977.6355855999864,1980.118835900037,1980.1190373999998,None,1,,,,,,,,,,,,,,,,,,,,,,,,,,,,,,,,,,,,,,,,,,,nback52,001,2024-01-15_10h22.11.185,untitled,2023.2.3,60.013635103908875,2024-01-15 10h48.40.183444 -0500,
1,"[-0.64, 0.4]",None,0,5,5,5,,,,,,,,,1980.135583300027,,,,,,,,,,,,,,,,,,,,,,,,,,,,1980.1198963000206,1980.135583300027,1980.135583300027,1980.6189304,1980.635539299983,1983.118846700003,1983.1190612000064,None,1,,,,,,,,,,,,,,,,,,,,,,,,,,,,,,,,,,,,,,,,,,,nback52,001,2024-01-15_10h22.11.185,untitled,2023.2.3,60.013635103908875,2024-01-15 10h48.40.183444 -0500,
4,"[-0.2, 0.1]",None,0,6,6,6,,,,,,,,,1983.1354389000335,,,,,,,,,,,,,,,,,,,,,,,,,,,,1983.119774700026,1983.1354389000335,1983.1354389000335,1983.6188437000383,1983.6355946999975,1986.1187589000328,1986.1189428000362,None,1,,,,,,,,,,,,,,,,,,,,,,,,,,,,,,,,,,,,,,,,,,,nback52,001,2024-01-15_10h22.11.185,untitled,2023.2.3,60.013635103908875,2024-01-15 10h48.40.183444 -0500,
5,"[0.2, 0.1]",None,0,7,7,7,,,,,,,,,1986.1353237000294,,,,,,,,,,,,,,,,,,,,,,,,,,,,1986.1196542999824,1986.1353237000294,1986.1353237000294,1986.61870739999,1986.635441499995,1989.1188043000293,1989.119002100022,None,1,,,,,,,,,,,,,,,,,,,,,,,,,,,,,,,,,,,,,,,,,,,nback52,001,2024-01-15_10h22.11.185,untitled,2023.2.3,60.013635103908875,2024-01-15 10h48.40.183444 -0500,
11,"[-0.64, -0.4]",space,0,8,8,8,,,,,,,,,1989.1353059000103,,,,,,,,,,,,,,,,,,,,,,,,,,,,1989.1198587000254,1989.1353059000103,1989.1353059000103,1989.6185801000101,1989.6352965999977,1992.1185244999942,1992.118708599999,space,1,0.47730139998020604,None,,,,,,,,,,,,,,,,,,,,,,,,,,,,,,,,,,,,,,,,,nback52,001,2024-01-15_10h22.11.185,untitled,2023.2.3,60.013635103908875,2024-01-15 10h48.40.183444 -0500,
9,"[0.2, -0.1]",None,0,9,9,9,,,,,,,,,1992.135312600003,,,,,,,,,,,,,,,,,,,,,,,,,,,,1992.1196502000093,1992.135312600003,1992.135312600003,1992.6183622999815,1992.6351587999961,1995.1185840999824,1995.1187731000246,None,1,,,,,,,,,,,,,,,,,,,,,,,,,,,,,,,,,,,,,,,,,,,nback52,001,2024-01-15_10h22.11.185,untitled,2023.2.3,60.013635103908875,2024-01-15 10h48.40.183444 -0500,
8,"[-0.2, -0.1]",None,0,10,10,10,,,,,,,,,1995.1353068000171,,,,,,,,,,,,,,,,,,,,,,,,,,,,1995.119528900017,1995.1353068000171,1995.1353068000171,1995.6184527000296,1995.6354129000101,1998.1185295000323,1998.1187149999896,None,1,,,,,,,,,,,,,,,,,,,,,,,,,,,,,,,,,,,,,,,,,,,nback52,001,2024-01-15_10h22.11.185,untitled,2023.2.3,60.013635103908875,2024-01-15 10h48.40.183444 -0500,
9,"[0.2, -0.1]",None,0,11,11,11,,,,,,,,,1998.135047800024,,,,,,,,,,,,,,,,,,,,,,,,,,,,1998.119356899988,1998.135047800024,1998.135047800024,1998.6184295000276,1998.6352303000167,2001.118458700017,2001.118623699993,None,1,,,,,,,,,,,,,,,,,,,,,,,,,,,,,,,,,,,,,,,,,,,nback52,001,2024-01-15_10h22.11.185,untitled,2023.2.3,60.013635103908875,2024-01-15 10h48.40.183444 -0500,
6,"[-0.3, 0]",None,0,12,12,12,,,,,,,,,2001.1351578999893,,,,,,,,,,,,,,,,,,,,,,,,,,,,2001.1193420999916,2001.1351578999893,2001.1351578999893,2001.6183583000093,2001.6351213000016,2004.118507599982,2004.118760399986,None,1,,,,,,,,,,,,,,,,,,,,,,,,,,,,,,,,,,,,,,,,,,,nback52,001,2024-01-15_10h22.11.185,untitled,2023.2.3,60.013635103908875,2024-01-15 10h48.40.183444 -0500,
9,"[0.2, -0.1]",None,0,13,13,13,,,,,,,,,2004.1349850000115,,,,,,,,,,,,,,,,,,,,,,,,,,,,2004.1195716999937,2004.1349850000115,2004.1349850000115,2004.618491500034,2004.6351723999833,2007.118413600023,2007.1185754000326,None,1,,,,,,,,,,,,,,,,,,,,,,,,,,,,,,,,,,,,,,,,,,,nback52,001,2024-01-15_10h22.11.185,untitled,2023.2.3,60.013635103908875,2024-01-15 10h48.40.183444 -0500,
7,"[0.3, 0]",None,0,14,14,14,,,,,,,,,2007.1350765000097,,,,,,,,,,,,,,,,,,,,,,,,,,,,2007.1191922000144,2007.1350765000097,2007.1350765000097,2007.6184390999842,2007.6349841000047,2010.1181994000217,2010.1183685000287,None,1,,,,,,,,,,,,,,,,,,,,,,,,,,,,,,,,,,,,,,,,,,,nback52,001,2024-01-15_10h22.11.185,untitled,2023.2.3,60.013635103908875,2024-01-15 10h48.40.183444 -0500,
2,"[0.64, 0.4]",None,0,15,15,15,,,,,,,,,2010.134942899982,,,,,,,,,,,,,,,,,,,,,,,,,,,,2010.1190282999887,2010.134942899982,2010.134942899982,2010.6183387000347,2010.6350285999943,2013.1182801999967,2013.1184796000016,None,1,,,,,,,,,,,,,,,,,,,,,,,,,,,,,,,,,,,,,,,,,,,nback52,001,2024-01-15_10h22.11.185,untitled,2023.2.3,60.013635103908875,2024-01-15 10h48.40.183444 -0500,
2,"[0.64, 0.4]",None,0,16,16,16,,,,,,,,,2013.134891499998,,,,,,,,,,,,,,,,,,,,,,,,,,,,2013.1192611000151,2013.134891499998,2013.134891499998,2013.6182140000165,2013.6348926000064,2016.1182397000375,2016.11840690003,None,1,,,,,,,,,,,,,,,,,,,,,,,,,,,,,,,,,,,,,,,,,,,nback52,001,2024-01-15_10h22.11.185,untitled,2023.2.3,60.013635103908875,2024-01-15 10h48.40.183444 -0500,
11,"[-0.64, -0.4]",space,0,17,17,17,,,,,,,,,2016.1348053999827,,,,,,,,,,,,,,,,,,,,,,,,,,,,2016.119064700033,2016.1348053999827,2016.1348053999827,2016.6181826000102,2016.6347641000175,2019.1181660000002,2019.1183658000082,space,1,0.6872588000260293,None,,,,,,,,,,,,,,,,,,,,,,,,,,,,,,,,,,,,,,,,,nback52,001,2024-01-15_10h22.11.185,untitled,2023.2.3,60.013635103908875,2024-01-15 10h48.40.183444 -0500,
11,"[-0.64, -0.4]",space,0,18,18,18,,,,,,,,,2019.1348021000158,,,,,,,,,,,,,,,,,,,,,,,,,,,,2019.1193459000206,2019.1348021000158,2019.1348021000158,2019.6182170000393,2019.6348523999914,2022.1180759000126,2022.1182621000335,space,1,0.5352256000041962,None,,,,,,,,,,,,,,,,,,,,,,,,,,,,,,,,,,,,,,,,,nback52,001,2024-01-15_10h22.11.185,untitled,2023.2.3,60.013635103908875,2024-01-15 10h48.40.183444 -0500,
7,"[0.3, 0]",None,0,19,19,19,,,,,,,,,2022.1349310000078,,,,,,,,,,,,,,,,,,,,,,,,,,,,2022.1192587999976,2022.1349310000078,2022.1349310000078,2022.6180922000203,2022.6346819000319,2025.1179465000168,2025.1181175000384,None,1,,,,,,,,,,,,,,,,,,,,,,,,,,,,,,,,,,,,,,,,,,,nback52,001,2024-01-15_10h22.11.185,untitled,2023.2.3,60.013635103908875,2024-01-15 10h48.40.183444 -0500,
3,"[0, 0.2]",None,0,20,20,20,,,,,,,,,2025.1347002999973,,,,,,,,,,,,,,,,,,,,,,,,,,,,2025.1186940000043,2025.1347002999973,2025.1347002999973,2025.6181078000227,2025.634813599987,2028.118112199998,2028.118328200013,None,1,,,,,,,,,,,,,,,,,,,,,,,,,,,,,,,,,,,,,,,,,,,nback52,001,2024-01-15_10h22.11.185,untitled,2023.2.3,60.013635103908875,2024-01-15 10h48.40.183444 -0500,
10,"[0, -0.2]",None,0,21,21,21,,,,,,,,,2028.1346593000344,,,,,,,,,,,,,,,,,,,,,,,,,,,,2028.119141400035,2028.1346593000344,2028.1346593000344,2028.6178783000214,2028.6346671000356,2031.1179239000194,2031.1181220000144,None,1,,,,,,,,,,,,,,,,,,,,,,,,,,,,,,,,,,,,,,,,,,,nback52,001,2024-01-15_10h22.11.185,untitled,2023.2.3,60.013635103908875,2024-01-15 10h48.40.183444 -0500,
1,"[-0.64, 0.4]",None,0,22,22,22,,,,,,,,,2031.1347586000338,,,,,,,,,,,,,,,,,,,,,,,,,,,,2031.1189794000238,2031.1347586000338,2031.1347586000338,2031.6178897999926,2031.6346411000122,2034.1179140000022,2034.1181099999812,None,1,,,,,,,,,,,,,,,,,,,,,,,,,,,,,,,,,,,,,,,,,,,nback52,001,2024-01-15_10h22.11.185,untitled,2023.2.3,60.013635103908875,2024-01-15 10h48.40.183444 -0500,
2,"[0.64, 0.4]",None,0,23,23,23,,,,,,,,,2034.134717000008,,,,,,,,,,,,,,,,,,,,,,,,,,,,2034.1188723000232,2034.134717000008,2034.134717000008,2034.6177957000327,2034.6344573000097,2037.117845700006,2037.1180423999904,None,1,,,,,,,,,,,,,,,,,,,,,,,,,,,,,,,,,,,,,,,,,,,nback52,001,2024-01-15_10h22.11.185,untitled,2023.2.3,60.013635103908875,2024-01-15 10h48.40.183444 -0500,
6,"[-0.3, 0]",None,0,24,24,24,,,,,,,,,2037.1345813000225,,,,,,,,,,,,,,,,,,,,,,,,,,,,2037.118847100006,2037.1345813000225,2037.1345813000225,2037.617855300021,2037.6345161999925,2040.1177464000066,2040.117929,None,1,,,,,,,,,,,,,,,,,,,,,,,,,,,,,,,,,,,,,,,,,,,nback52,001,2024-01-15_10h22.11.185,untitled,2023.2.3,60.013635103908875,2024-01-15 10h48.40.183444 -0500,
3,"[0, 0.2]",None,0,25,25,25,,,,,,,,,2040.134558700025,,,,,,,,,,,,,,,,,,,,,,,,,,,,2040.1187297999859,2040.134558700025,2040.134558700025,2040.6178086000145,2040.6344302000361,2043.1179461000138,2043.1181568999891,None,1,,,,,,,,,,,,,,,,,,,,,,,,,,,,,,,,,,,,,,,,,,,nback52,001,2024-01-15_10h22.11.185,untitled,2023.2.3,60.013635103908875,2024-01-15 10h48.40.183444 -0500,
11,"[-0.64, -0.4]",space,0,26,26,26,,,,,,,,,2043.134479500004,,,,,,,,,,,,,,,,,,,,,,,,,,,,2043.1190512999892,2043.134479500004,2043.134479500004,2043.617723000003,2043.6343081000377,2046.1176577000297,2046.117849900038,space,1,0.45655010000336915,None,,,,,,,,,,,,,,,,,,,,,,,,,,,,,,,,,,,,,,,,,nback52,001,2024-01-15_10h22.11.185,untitled,2023.2.3,60.013635103908875,2024-01-15 10h48.40.183444 -0500,
1,"[-0.64, 0.4]",None,0,27,27,27,,,,,,,,,2046.1344524000306,,,,,,,,,,,,,,,,,,,,,,,,,,,,2046.1187168000033,2046.1344524000306,2046.1344524000306,2046.6177419000305,2046.634479100001,2049.1175793000148,2049.1177883000346,None,1,,,,,,,,,,,,,,,,,,,,,,,,,,,,,,,,,,,,,,,,,,,nback52,001,2024-01-15_10h22.11.185,untitled,2023.2.3,60.013635103908875,2024-01-15 10h48.40.183444 -0500,
3,"[0, 0.2]",None,0,28,28,28,,,,,,,,,2049.1344043000136,,,,,,,,,,,,,,,,,,,,,,,,,,,,2049.1186075999867,2049.1344043000136,2049.1344043000136,2049.617544000037,2049.6344205000205,2052.1175802000216,2052.117759399989,None,1,,,,,,,,,,,,,,,,,,,,,,,,,,,,,,,,,,,,,,,,,,,nback52,001,2024-01-15_10h22.11.185,untitled,2023.2.3,60.013635103908875,2024-01-15 10h48.40.183444 -0500,
9,"[0.2, -0.1]",None,0,29,29,29,,,,,,,,,2052.134370999993,,,,,,,,,,,,,,,,,,,,,,,,,,,,2052.1184801000054,2052.134370999993,2052.134370999993,2052.617642700032,2052.634373000008,2055.1177577000344,2055.1179809999885,None,1,,,,,,,,,,,,,,,,,,,,,,,,,,,,,,,,,,,,,,,,,,,nback52,001,2024-01-15_10h22.11.185,untitled,2023.2.3,60.013635103908875,2024-01-15 10h48.40.183444 -0500,
8,"[-0.2, -0.1]",None,0,30,30,30,,,,,,,,,2055.1342550999834,,,,,,,,,,,,,,,,,,,,,,,,,,,,2055.1187911999878,2055.1342550999834,2055.1342550999834,2055.617368999985,2055.634242400003,2058.1174666000297,2058.117655400012,None,1,,,,,,,,,,,,,,,,,,,,,,,,,,,,,,,,,,,,,,,,,,,nback52,001,2024-01-15_10h22.11.185,untitled,2023.2.3,60.013635103908875,2024-01-15 10h48.40.183444 -0500,
12,"[0.64, -0.4]",None,0,31,31,31,,,,,,,,,2058.1343474999885,,,,,,,,,,,,,,,,,,,,,,,,,,,,2058.1184416000033,2058.1343474999885,2058.1343474999885,2058.617489300028,2058.6342270000023,2061.1173555999994,2061.1175303999917,None,1,,,,,,,,,,,,,,,,,,,,,,,,,,,,,,,,,,,,,,,,,,,nback52,001,2024-01-15_10h22.11.185,untitled,2023.2.3,60.013635103908875,2024-01-15 10h48.40.183444 -0500,
9,"[0.2, -0.1]",None,0,32,32,32,,,,,,,,,2061.1340871999855,,,,,,,,,,,,,,,,,,,,,,,,,,,,2061.1182562999893,2061.1340871999855,2061.1340871999855,2061.617455200001,2061.634167400014,2064.1175106000155,2064.1177229000023,None,1,,,,,,,,,,,,,,,,,,,,,,,,,,,,,,,,,,,,,,,,,,,nback52,001,2024-01-15_10h22.11.185,untitled,2023.2.3,60.013635103908875,2024-01-15 10h48.40.183444 -0500,
11,"[-0.64, -0.4]",space,0,33,33,33,,,,,,,,,2064.134053400019,,,,,,,,,,,,,,,,,,,,,,,,,,,,2064.118526700011,2064.134053400019,2064.134053400019,2064.617343800026,2064.6340349999955,2067.1173326999997,2067.1175006999983,space,1,0.4447937000077218,None,,,,,,,,,,,,,,,,,,,,,,,,,,,,,,,,,,,,,,,,,nback52,001,2024-01-15_10h22.11.185,untitled,2023.2.3,60.013635103908875,2024-01-15 10h48.40.183444 -0500,
7,"[0.3, 0]",None,0,34,34,34,,,,,,,,,2067.1339298000094,,,,,,,,,,,,,,,,,,,,,,,,,,,,2067.1183121000067,2067.1339298000094,2067.1339298000094,2067.617459500034,2067.633987599984,2070.117348800006,2070.1175496000214,None,1,,,,,,,,,,,,,,,,,,,,,,,,,,,,,,,,,,,,,,,,,,,nback52,001,2024-01-15_10h22.11.185,untitled,2023.2.3,60.013635103908875,2024-01-15 10h48.40.183444 -0500,
11,"[-0.64, -0.4]",space,0,35,35,35,,,,,,,,,2070.1339726999868,,,,,,,,,,,,,,,,,,,,,,,,,,,,2070.1183292000205,2070.1339726999868,2070.1339726999868,2070.6172732000123,2070.6340081000235,2073.117213300022,2073.1173834000365,space,1,0.5714123999932781,None,,,,,,,,,,,,,,,,,,,,,,,,,,,,,,,,,,,,,,,,,nback52,001,2024-01-15_10h22.11.185,untitled,2023.2.3,60.013635103908875,2024-01-15 10h48.40.183444 -0500,
4,"[-0.2, 0.1]",None,0,36,36,36,,,,,,,,,2073.133842899988,,,,,,,,,,,,,,,,,,,,,,,,,,,,2073.118309799989,2073.133842899988,2073.133842899988,2073.6173322999966,2073.6338941000286,2076.117343300022,2076.1175921999966,space,0,0.46101239998824894,None,,,,,,,,,,,,,,,,,,,,,,,,,,,,,,,,,,,,,,,,,nback52,001,2024-01-15_10h22.11.185,untitled,2023.2.3,60.013635103908875,2024-01-15 10h48.40.183444 -0500,
5,"[0.2, 0.1]",None,0,37,37,37,,,,,,,,,2076.1338128999923,,,,,,,,,,,,,,,,,,,,,,,,,,,,2076.1186759999837,2076.1338128999923,2076.1338128999923,2076.6172394999885,2076.6338565000333,2079.1172380000353,2079.1174239999964,None,1,,,,,,,,,,,,,,,,,,,,,,,,,,,,,,,,,,,,,,,,,,,nback52,001,2024-01-15_10h22.11.185,untitled,2023.2.3,60.013635103908875,2024-01-15 10h48.40.183444 -0500,
6,"[-0.3, 0]",None,0,38,38,38,,,,,,,,,2079.133842099982,,,,,,,,,,,,,,,,,,,,,,,,,,,,2079.118176400021,2079.133842099982,2079.133842099982,2079.6172932999907,2079.6337589999894,2082.117174200015,2082.117349100008,None,1,,,,,,,,,,,,,,,,,,,,,,,,,,,,,,,,,,,,,,,,,,,nback52,001,2024-01-15_10h22.11.185,untitled,2023.2.3,60.013635103908875,2024-01-15 10h48.40.183444 -0500,
11,"[-0.64, -0.4]",space,0,39,39,39,,,,,,,,,2082.133795700036,,,,,,,,,,,,,,,,,,,,,,,,,,,,2082.1180777000263,2082.133795700036,2082.133795700036,2082.6170782999834,2082.6338435999933,2085.1171227000304,2085.1173262000084,space,1,0.519089300010819,None,,,,,,,,,,,,,,,,,,,,,,,,,,,,,,,,,,,,,,,,,nback52,001,2024-01-15_10h22.11.185,untitled,2023.2.3,60.013635103908875,2024-01-15 10h48.40.183444 -0500,
,,,,,,,,,,,,,,,,,,,,,,,,,,,,,,,,,,,,,,,,,,,,,,,,,,,,,,2085.1181050000014,2085.1338016000227,2085.1338016000227,2149.8839405000326,space,64.74730589997489,None,,,,,,,,,,,,,,,,,,,,,,,,,,,,,,,,,,nback52,001,2024-01-15_10h22.11.185,untitled,2023.2.3,60.013635103908875,2024-01-15 10h48.40.183444 -0500,
10,"[0, -0.2]",None,,,,,0,0,0,0,,,,,2150.9001403999864,,,,,,,,,,,,,,,,,,,,,,,,2149.8839798999834,2149.8990922000376,2150.9001403999864,2150.883378700004,,,,,,,,,,,,,,,,,,,2150.898113000032,2150.9001403999864,2150.9001403999864,2151.399222499982,2151.399222499982,2153.8991503000143,2153.8991503000143,2153.8835612999974,None,1,,,,,,,,,,,,,,,,,,,,,,,,nback52,001,2024-01-15_10h22.11.185,untitled,2023.2.3,60.013635103908875,2024-01-15 10h48.40.183444 -0500,
5,"[0.2, 0.1]",None,,,,,0,1,1,1,,,,,2153.8991503000143,,,,,,,,,,,,,,,,,,,,,,,,,,,,,,,,,,,,,,,,,,,,,,2153.8845766999875,2153.8991503000143,2153.8991503000143,2154.399236300029,2154.399236300029,2156.8992037000135,2156.8992037000135,2156.8831833000295,None,1,,,,,,,,,,,,,,,,,,,,,,,,nback52,001,2024-01-15_10h22.11.185,untitled,2023.2.3,60.013635103908875,2024-01-15 10h48.40.183444 -0500,
6,"[-0.3, 0]",None,,,,,0,2,2,2,,,,,2156.8992037000135,,,,,,,,,,,,,,,,,,,,,,,,,,,,,,,,,,,,,,,,,,,,,,2156.883799300005,2156.8992037000135,2156.8992037000135,2157.399142500013,2157.399142500013,2159.8991825000267,2159.8991825000267,2159.8832206000225,None,1,,,,,,,,,,,,,,,,,,,,,,,,nback52,001,2024-01-15_10h22.11.185,untitled,2023.2.3,60.013635103908875,2024-01-15 10h48.40.183444 -0500,
6,"[-0.3, 0]",space,,,,,0,3,3,3,,,,,2159.8991825000267,,,,,,,,,,,,,,,,,,,,,,,,,,,,,,,,,,,,,,,,,,,,,,2159.8838647000375,2159.8991825000267,2159.8991825000267,2160.399009399989,2160.399009399989,2162.898983000021,2162.898983000021,2162.883328200027,space,1,0.5310174000333063,None,,,,,,,,,,,,,,,,,,,,,,nback52,001,2024-01-15_10h22.11.185,untitled,2023.2.3,60.013635103908875,2024-01-15 10h48.40.183444 -0500,
12,"[0.64, -0.4]",None,,,,,0,4,4,4,,,,,2162.898983000021,,,,,,,,,,,,,,,,,,,,,,,,,,,,,,,,,,,,,,,,,,,,,,2162.884302599996,2162.898983000021,2162.898983000021,2163.399071699998,2163.399071699998,2165.898841099988,2165.898841099988,2165.8832214000286,None,1,,,,,,,,,,,,,,,,,,,,,,,,nback52,001,2024-01-15_10h22.11.185,untitled,2023.2.3,60.013635103908875,2024-01-15 10h48.40.183444 -0500,
10,"[0, -0.2]",None,,,,,0,5,5,5,,,,,2165.898841099988,,,,,,,,,,,,,,,,,,,,,,,,,,,,,,,,,,,,,,,,,,,,,,2165.8840018000337,2165.898841099988,2165.898841099988,2166.399012000009,2166.399012000009,2168.8989513000124,2168.8989513000124,2168.883125499997,None,1,,,,,,,,,,,,,,,,,,,,,,,,nback52,001,2024-01-15_10h22.11.185,untitled,2023.2.3,60.013635103908875,2024-01-15 10h48.40.183444 -0500,
2,"[0.64, 0.4]",None,,,,,0,6,6,6,,,,,2168.8989513000124,,,,,,,,,,,,,,,,,,,,,,,,,,,,,,,,,,,,,,,,,,,,,,2168.883868100005,2168.8989513000124,2168.8989513000124,2169.3989022999885,2169.3989022999885,2171.898626899987,2171.898626899987,2171.883242800017,None,1,,,,,,,,,,,,,,,,,,,,,,,,nback52,001,2024-01-15_10h22.11.185,untitled,2023.2.3,60.013635103908875,2024-01-15 10h48.40.183444 -0500,
9,"[0.2, -0.1]",None,,,,,0,7,7,7,,,,,2171.898626899987,,,,,,,,,,,,,,,,,,,,,,,,,,,,,,,,,,,,,,,,,,,,,,2171.883971500036,2171.898626899987,2171.898626899987,2172.3988527000183,2172.3988527000183,2174.89895599999,2174.89895599999,2174.883334400016,None,1,,,,,,,,,,,,,,,,,,,,,,,,nback52,001,2024-01-15_10h22.11.185,untitled,2023.2.3,60.013635103908875,2024-01-15 10h48.40.183444 -0500,
9,"[0.2, -0.1]",space,,,,,0,8,8,8,,,,,2174.89895599999,,,,,,,,,,,,,,,,,,,,,,,,,,,,,,,,,,,,,,,,,,,,,,2174.8842291000183,2174.89895599999,2174.89895599999,2175.398905400012,2175.398905400012,2177.8987895000027,2177.8987895000027,2177.88324689999,space,1,0.6474603999522515,None,,,,,,,,,,,,,,,,,,,,,,nback52,001,2024-01-15_10h22.11.185,untitled,2023.2.3,60.013635103908875,2024-01-15 10h48.40.183444 -0500,
6,"[-0.3, 0]",None,,,,,0,9,9,9,,,,,2177.8987895000027,,,,,,,,,,,,,,,,,,,,,,,,,,,,,,,,,,,,,,,,,,,,,,2177.884128500009,2177.8987895000027,2177.8987895000027,2178.398815900029,2178.398815900029,2180.8985192999826,2180.8985192999826,2180.8830672000186,None,1,,,,,,,,,,,,,,,,,,,,,,,,nback52,001,2024-01-15_10h22.11.185,untitled,2023.2.3,60.013635103908875,2024-01-15 10h48.40.183444 -0500,
11,"[-0.64, -0.4]",None,,,,,0,10,10,10,,,,,2180.8985192999826,,,,,,,,,,,,,,,,,,,,,,,,,,,,,,,,,,,,,,,,,,,,,,2180.8838728999835,2180.8985192999826,2180.8985192999826,2181.398808100028,2181.398808100028,2183.898590099998,2183.898590099998,2183.883074500016,None,1,,,,,,,,,,,,,,,,,,,,,,,,nback52,001,2024-01-15_10h22.11.185,untitled,2023.2.3,60.013635103908875,2024-01-15 10h48.40.183444 -0500,
11,"[-0.64, -0.4]",space,,,,,0,11,11,11,,,,,2183.898590099998,,,,,,,,,,,,,,,,,,,,,,,,,,,,,,,,,,,,,,,,,,,,,,2183.883796899987,2183.898590099998,2183.898590099998,2184.398660900013,2184.398660900013,2186.898752500012,2186.898752500012,2186.883001399983,None,0,,,,,,,,,,,,,,,,,,,,,,,,nback52,001,2024-01-15_10h22.11.185,untitled,2023.2.3,60.013635103908875,2024-01-15 10h48.40.183444 -0500,
4,"[-0.2, 0.1]",None,,,,,0,12,12,12,,,,,2186.898752500012,,,,,,,,,,,,,,,,,,,,,,,,,,,,,,,,,,,,,,,,,,,,,,2186.8838295000023,2186.898752500012,2186.898752500012,2187.3986589999986,2187.3986589999986,2189.898539000016,2189.898539000016,2189.88284700003,None,1,,,,,,,,,,,,,,,,,,,,,,,,nback52,001,2024-01-15_10h22.11.185,untitled,2023.2.3,60.013635103908875,2024-01-15 10h48.40.183444 -0500,
3,"[0, 0.2]",None,,,,,0,13,13,13,,,,,2189.898539000016,,,,,,,,,,,,,,,,,,,,,,,,,,,,,,,,,,,,,,,,,,,,,,2189.883603300026,2189.898539000016,2189.898539000016,2190.3985007000156,2190.3985007000156,2192.898528699996,2192.898528699996,2192.883037100022,None,1,,,,,,,,,,,,,,,,,,,,,,,,nback52,001,2024-01-15_10h22.11.185,untitled,2023.2.3,60.013635103908875,2024-01-15 10h48.40.183444 -0500,
3,"[0, 0.2]",space,,,,,0,14,14,14,,,,,2192.898528699996,,,,,,,,,,,,,,,,,,,,,,,,,,,,,,,,,,,,,,,,,,,,,,2192.8838722000364,2192.898528699996,2192.898528699996,2193.398462800018,2193.398462800018,2195.898525400029,2195.898525400029,2195.882642199984,space,1,0.7906409000279382,None,,,,,,,,,,,,,,,,,,,,,,nback52,001,2024-01-15_10h22.11.185,untitled,2023.2.3,60.013635103908875,2024-01-15 10h48.40.183444 -0500,
8,"[-0.2, -0.1]",None,,,,,0,15,15,15,,,,,2195.898525400029,,,,,,,,,,,,,,,,,,,,,,,,,,,,,,,,,,,,,,,,,,,,,,2195.88343430002,2195.898525400029,2195.898525400029,2196.398449200031,2196.398449200031,2198.8985747999977,2198.8985747999977,2198.8829436000087,None,1,,,,,,,,,,,,,,,,,,,,,,,,nback52,001,2024-01-15_10h22.11.185,untitled,2023.2.3,60.013635103908875,2024-01-15 10h48.40.183444 -0500,
1,"[-0.64, 0.4]",None,,,,,0,16,16,16,,,,,2198.8985747999977,,,,,,,,,,,,,,,,,,,,,,,,,,,,,,,,,,,,,,,,,,,,,,2198.8837750999955,2198.8985747999977,2198.8985747999977,2199.3984513999894,2199.3984513999894,2201.898392400006,2201.898392400006,2201.882930600026,None,1,,,,,,,,,,,,,,,,,,,,,,,,nback52,001,2024-01-15_10h22.11.185,untitled,2023.2.3,60.013635103908875,2024-01-15 10h48.40.183444 -0500,
2,"[0.64, 0.4]",None,,,,,0,17,17,17,,,,,2201.898392400006,,,,,,,,,,,,,,,,,,,,,,,,,,,,,,,,,,,,,,,,,,,,,,2201.8837722000317,2201.898392400006,2201.898392400006,2202.3984862000216,2202.3984862000216,2204.898328399984,2204.898328399984,2204.882633100031,None,1,,,,,,,,,,,,,,,,,,,,,,,,nback52,001,2024-01-15_10h22.11.185,untitled,2023.2.3,60.013635103908875,2024-01-15 10h48.40.183444 -0500,
4,"[-0.2, 0.1]",None,,,,,0,18,18,18,,,,,2204.898328399984,,,,,,,,,,,,,,,,,,,,,,,,,,,,,,,,,,,,,,,,,,,,,,2204.8834046000266,2204.898328399984,2204.898328399984,2205.3982147999923,2205.3982147999923,2207.8982247000095,2207.8982247000095,2207.882390099985,None,1,,,,,,,,,,,,,,,,,,,,,,,,nback52,001,2024-01-15_10h22.11.185,untitled,2023.2.3,60.013635103908875,2024-01-15 10h48.40.183444 -0500,
4,"[-0.2, 0.1]",space,,,,,0,19,19,19,,,,,2207.8982247000095,,,,,,,,,,,,,,,,,,,,,,,,,,,,,,,,,,,,,,,,,,,,,,2207.8829788999865,2207.8982247000095,2207.8982247000095,2208.398142400023,2208.398142400023,2210.898103000014,2210.898103000014,2210.8826643000357,space,1,0.49613300000783056,None,,,,,,,,,,,,,,,,,,,,,,nback52,001,2024-01-15_10h22.11.185,untitled,2023.2.3,60.013635103908875,2024-01-15 10h48.40.183444 -0500,
8,"[-0.2, -0.1]",None,,,,,0,20,20,20,,,,,2210.898103000014,,,,,,,,,,,,,,,,,,,,,,,,,,,,,,,,,,,,,,,,,,,,,,2210.8836190000293,2210.898103000014,2210.898103000014,2211.398207499995,2211.398207499995,2213.898001900001,2213.898001900001,2213.8824586999835,None,1,,,,,,,,,,,,,,,,,,,,,,,,nback52,001,2024-01-15_10h22.11.185,untitled,2023.2.3,60.013635103908875,2024-01-15 10h48.40.183444 -0500,
5,"[0.2, 0.1]",None,,,,,0,21,21,21,,,,,2213.898001900001,,,,,,,,,,,,,,,,,,,,,,,,,,,,,,,,,,,,,,,,,,,,,,2213.8831712999963,2213.898001900001,2213.898001900001,2214.3982190000243,2214.3982190000243,2216.898188000021,2216.898188000021,2216.8824153000023,None,1,,,,,,,,,,,,,,,,,,,,,,,,nback52,001,2024-01-15_10h22.11.185,untitled,2023.2.3,60.013635103908875,2024-01-15 10h48.40.183444 -0500,
5,"[0.2, 0.1]",space,,,,,0,22,22,22,,,,,2216.898188000021,,,,,,,,,,,,,,,,,,,,,,,,,,,,,,,,,,,,,,,,,,,,,,2216.8831833000295,2216.898188000021,2216.898188000021,2217.3981339000165,2217.3981339000165,2219.8980979000335,2219.8980979000335,2219.8824877000297,space,1,0.6975294000003487,None,,,,,,,,,,,,,,,,,,,,,,nback52,001,2024-01-15_10h22.11.185,untitled,2023.2.3,60.013635103908875,2024-01-15 10h48.40.183444 -0500,
1,"[-0.64, 0.4]",None,,,,,0,23,23,23,,,,,2219.8980979000335,,,,,,,,,,,,,,,,,,,,,,,,,,,,,,,,,,,,,,,,,,,,,,2219.8834186000167,2219.8980979000335,2219.8980979000335,2220.3980283000274,2220.3980283000274,2222.8980774999945,2222.8980774999945,2222.882039999997,None,1,,,,,,,,,,,,,,,,,,,,,,,,nback52,001,2024-01-15_10h22.11.185,untitled,2023.2.3,60.013635103908875,2024-01-15 10h48.40.183444 -0500,
3,"[0, 0.2]",None,,,,,0,24,24,24,,,,,2222.8980774999945,,,,,,,,,,,,,,,,,,,,,,,,,,,,,,,,,,,,,,,,,,,,,,2222.8827132000006,2222.8980774999945,2222.8980774999945,2223.3981010999996,2223.3981010999996,2225.897855899995,2225.897855899995,2225.882046499988,None,1,,,,,,,,,,,,,,,,,,,,,,,,nback52,001,2024-01-15_10h22.11.185,untitled,2023.2.3,60.013635103908875,2024-01-15 10h48.40.183444 -0500,
6,"[-0.3, 0]",None,,,,,0,25,25,25,,,,,2225.897855899995,,,,,,,,,,,,,,,,,,,,,,,,,,,,,,,,,,,,,,,,,,,,,,2225.882695200038,2225.897855899995,2225.897855899995,2226.3979985000333,2226.3979985000333,2228.8978478999925,2228.8978478999925,2228.881949200004,None,1,,,,,,,,,,,,,,,,,,,,,,,,nback52,001,2024-01-15_10h22.11.185,untitled,2023.2.3,60.013635103908875,2024-01-15 10h48.40.183444 -0500,
1,"[-0.64, 0.4]",None,,,,,0,26,26,26,,,,,2228.8978478999925,,,,,,,,,,,,,,,,,,,,,,,,,,,,,,,,,,,,,,,,,,,,,,2228.8825598999974,2228.8978478999925,2228.8978478999925,2229.397943800024,2229.397943800024,2231.8978097999934,2231.8978097999934,2231.8821023000055,None,1,,,,,,,,,,,,,,,,,,,,,,,,nback52,001,2024-01-15_10h22.11.185,untitled,2023.2.3,60.013635103908875,2024-01-15 10h48.40.183444 -0500,
1,"[-0.64, 0.4]",space,,,,,0,27,27,27,,,,,2231.8978097999934,,,,,,,,,,,,,,,,,,,,,,,,,,,,,,,,,,,,,,,,,,,,,,2231.8828761000186,2231.8978097999934,2231.8978097999934,2232.3975861000363,2232.3975861000363,2234.8976949999924,2234.8976949999924,2234.8819718000013,space,1,0.6159008000395261,None,,,,,,,,,,,,,,,,,,,,,,nback52,001,2024-01-15_10h22.11.185,untitled,2023.2.3,60.013635103908875,2024-01-15 10h48.40.183444 -0500,
1,"[-0.64, 0.4]",space,,,,,0,28,28,28,,,,,2234.8976949999924,,,,,,,,,,,,,,,,,,,,,,,,,,,,,,,,,,,,,,,,,,,,,,2234.882847400033,2234.8976949999924,2234.8976949999924,2235.3977613000316,2235.3977613000316,2237.897717999993,2237.897717999993,2237.8821922999923,space,1,1.096075400011614,None,,,,,,,,,,,,,,,,,,,,,,nback52,001,2024-01-15_10h22.11.185,untitled,2023.2.3,60.013635103908875,2024-01-15 10h48.40.183444 -0500,
3,"[0, 0.2]",None,,,,,0,29,29,29,,,,,2237.897717999993,,,,,,,,,,,,,,,,,,,,,,,,,,,,,,,,,,,,,,,,,,,,,,2237.883222899982,2237.897717999993,2237.897717999993,2238.397724899987,2238.397724899987,2240.8976102999877,2240.8976102999877,2240.882185299997,None,1,,,,,,,,,,,,,,,,,,,,,,,,nback52,001,2024-01-15_10h22.11.185,untitled,2023.2.3,60.013635103908875,2024-01-15 10h48.40.183444 -0500,
12,"[0.64, -0.4]",None,,,,,0,30,30,30,,,,,2240.8976102999877,,,,,,,,,,,,,,,,,,,,,,,,,,,,,,,,,,,,,,,,,,,,,,2240.8830099999905,2240.8976102999877,2240.8976102999877,2241.397582100006,2241.397582100006,2243.897545100015,2243.897545100015,2243.8818357000127,None,1,,,,,,,,,,,,,,,,,,,,,,,,nback52,001,2024-01-15_10h22.11.185,untitled,2023.2.3,60.013635103908875,2024-01-15 10h48.40.183444 -0500,
12,"[0.64, -0.4]",space,,,,,0,31,31,31,,,,,2243.897545100015,,,,,,,,,,,,,,,,,,,,,,,,,,,,,,,,,,,,,,,,,,,,,,2243.8825271000387,2243.897545100015,2243.897545100015,2244.3976102999877,2244.3976102999877,2246.8974039999885,2246.8974039999885,2246.881680599996,space,1,0.9436987999943085,None,,,,,,,,,,,,,,,,,,,,,,nback52,001,2024-01-15_10h22.11.185,untitled,2023.2.3,60.013635103908875,2024-01-15 10h48.40.183444 -0500,
2,"[0.64, 0.4]",None,,,,,0,32,32,32,,,,,2246.8974039999885,,,,,,,,,,,,,,,,,,,,,,,,,,,,,,,,,,,,,,,,,,,,,,2246.882444499992,2246.8974039999885,2246.8974039999885,2247.3976742000086,2247.3976742000086,2249.897632999986,2249.897632999986,2249.8819196000113,None,1,,,,,,,,,,,,,,,,,,,,,,,,nback52,001,2024-01-15_10h22.11.185,untitled,2023.2.3,60.013635103908875,2024-01-15 10h48.40.183444 -0500,
1,"[-0.64, 0.4]",None,,,,,0,33,33,33,,,,,2249.897632999986,,,,,,,,,,,,,,,,,,,,,,,,,,,,,,,,,,,,,,,,,,,,,,2249.88274500001,2249.897632999986,2249.897632999986,2250.397531500028,2250.397531500028,2252.897572099988,2252.897572099988,2252.8821984999813,None,1,,,,,,,,,,,,,,,,,,,,,,,,nback52,001,2024-01-15_10h22.11.185,untitled,2023.2.3,60.013635103908875,2024-01-15 10h48.40.183444 -0500,
7,"[0.3, 0]",None,,,,,0,34,34,34,,,,,2252.897572099988,,,,,,,,,,,,,,,,,,,,,,,,,,,,,,,,,,,,,,,,,,,,,,2252.8828890000004,2252.897572099988,2252.897572099988,2253.397396299988,2253.397396299988,2255.8976252999855,2255.8976252999855,2255.8818250999902,None,1,,,,,,,,,,,,,,,,,,,,,,,,nback52,001,2024-01-15_10h22.11.185,untitled,2023.2.3,60.013635103908875,2024-01-15 10h48.40.183444 -0500,
7,"[0.3, 0]",space,,,,,0,35,35,35,,,,,2255.8976252999855,,,,,,,,,,,,,,,,,,,,,,,,,,,,,,,,,,,,,,,,,,,,,,2255.8826570000383,2255.8976252999855,2255.8976252999855,2256.3975489999866,2256.3975489999866,2258.8974856000277,2258.8974856000277,2258.8816061000107,space,1,0.6383219999843277,None,,,,,,,,,,,,,,,,,,,,,,nback52,001,2024-01-15_10h22.11.185,untitled,2023.2.3,60.013635103908875,2024-01-15 10h48.40.183444 -0500,
11,"[-0.64, -0.4]",None,,,,,0,36,36,36,,,,,2258.8974856000277,,,,,,,,,,,,,,,,,,,,,,,,,,,,,,,,,,,,,,,,,,,,,,2258.882505799993,2258.8974856000277,2258.8974856000277,2259.3973335000337,2259.3973335000337,2261.8974754000083,2261.8974754000083,2261.8817126000067,None,1,,,,,,,,,,,,,,,,,,,,,,,,nback52,001,2024-01-15_10h22.11.185,untitled,2023.2.3,60.013635103908875,2024-01-15 10h48.40.183444 -0500,
2,"[0.64, 0.4]",None,,,,,0,37,37,37,,,,,2261.8974754000083,,,,,,,,,,,,,,,,,,,,,,,,,,,,,,,,,,,,,,,,,,,,,,2261.882534400036,2261.8974754000083,2261.8974754000083,2262.397321700002,2262.397321700002,2264.8973316000192,2264.8973316000192,2264.881671499985,None,1,,,,,,,,,,,,,,,,,,,,,,,,nback52,001,2024-01-15_10h22.11.185,untitled,2023.2.3,60.013635103908875,2024-01-15 10h48.40.183444 -0500,
6,"[-0.3, 0]",None,,,,,0,38,38,38,,,,,2264.8973316000192,,,,,,,,,,,,,,,,,,,,,,,,,,,,,,,,,,,,,,,,,,,,,,2264.8824909999967,2264.8973316000192,2264.8973316000192,2265.397349899984,2265.397349899984,2267.897156400024,2267.897156400024,2267.8811644000234,None,1,,,,,,,,,,,,,,,,,,,,,,,,nback52,001,2024-01-15_10h22.11.185,untitled,2023.2.3,60.013635103908875,2024-01-15 10h48.40.183444 -0500,
10,"[0, -0.2]",None,,,,,0,39,39,39,,,,,2267.897156400024,,,,,,,,,,,,,,,,,,,,,,,,,,,,,,,,,,,,,,,,,,,,,,2267.881720300007,2267.897156400024,2267.897156400024,2268.3972781000193,2268.3972781000193,2270.8972180000274,2270.8972180000274,2270.8812584999832,None,1,,,,,,,,,,,,,,,,,,,,,,,,nback52,001,2024-01-15_10h22.11.185,untitled,2023.2.3,60.013635103908875,2024-01-15 10h48.40.183444 -0500,
,,,,,,,,,,,,,,,,,,,,,,,,,,,,,,,,,,,,,,,,,,,,,,,,,,,,,,,,,,,,,,,,,,,,,,,,,2270.88169140002,2270.8972180000274,2270.8972180000274,2289.5316809000215,space,18.62096859997837,None,,,,,,,,,,,,,,,nback52,001,2024-01-15_10h22.11.185,untitled,2023.2.3,60.013635103908875,2024-01-15 10h48.40.183444 -0500,
,"[0.2, 0.1]",None,,,,,,,,,0,0,0,0,2290.549349899986,,,,,,,,,,,,,,,,,,,,,,,,2289.531726300018,2289.547088099993,2290.549349899986,2290.5311847000266,,,,,,,,,,,,,,,,,,,,,,,,,,,,,,,,,,,,,,2290.5473991000326,2290.549349899986,2290.549349899986,2291.0468636000296,2291.063451200025,2293.5467609000043,2293.5469636000344,None,1,,,,,,nback52,001,2024-01-15_10h22.11.185,untitled,2023.2.3,60.013635103908875,2024-01-15 10h48.40.183444 -0500,
,"[0.64, 0.4]",None,,,,,,,,,0,1,1,1,2293.5634440000285,,,,,,,,,,,,,,,,,,,,,,,,,,,,,,,,,,,,,,,,,,,,,,,,,,,,,,,,,,,,,,,,,2293.547955600021,2293.5634440000285,2293.5634440000285,2294.0468906000024,2294.0634109000093,2296.546841400035,2296.5470212000073,None,1,,,,,,nback52,001,2024-01-15_10h22.11.185,untitled,2023.2.3,60.013635103908875,2024-01-15 10h48.40.183444 -0500,
,"[-0.3, 0]",None,,,,,,,,,0,2,2,2,2296.5634240999934,,,,,,,,,,,,,,,,,,,,,,,,,,,,,,,,,,,,,,,,,,,,,,,,,,,,,,,,,,,,,,,,,2296.5477051000344,2296.5634240999934,2296.5634240999934,2297.0467909,2297.063391999982,2299.5467940000235,2299.546978200029,None,1,,,,,,nback52,001,2024-01-15_10h22.11.185,untitled,2023.2.3,60.013635103908875,2024-01-15 10h48.40.183444 -0500,
,"[0.2, -0.1]",None,,,,,,,,,0,3,3,3,2299.5633992000367,,,,,,,,,,,,,,,,,,,,,,,,,,,,,,,,,,,,,,,,,,,,,,,,,,,,,,,,,,,,,,,,,2299.5476896000328,2299.5633992000367,2299.5633992000367,2300.0465876000235,2300.0633175999974,2302.546559599985,2302.546769400011,None,1,,,,,,nback52,001,2024-01-15_10h22.11.185,untitled,2023.2.3,60.013635103908875,2024-01-15 10h48.40.183444 -0500,
,"[0, 0.2]",None,,,,,,,,,0,4,4,4,2302.5633747000247,,,,,,,,,,,,,,,,,,,,,,,,,,,,,,,,,,,,,,,,,,,,,,,,,,,,,,,,,,,,,,,,,2302.547622199985,2302.5633747000247,2302.5633747000247,2303.046490000037,2303.0633697999874,2305.546559999988,2305.5467480000225,None,1,,,,,,nback52,001,2024-01-15_10h22.11.185,untitled,2023.2.3,60.013635103908875,2024-01-15 10h48.40.183444 -0500,
,"[0.2, -0.1]",space,,,,,,,,,0,5,5,5,2305.5633147000335,,,,,,,,,,,,,,,,,,,,,,,,,,,,,,,,,,,,,,,,,,,,,,,,,,,,,,,,,,,,,,,,,2305.5474821000244,2305.5633147000335,2305.5633147000335,2306.046660199994,2306.0632785999915,2308.546552999993,2308.5467599999974,space,1,0.5749248000211082,None,,,,nback52,001,2024-01-15_10h22.11.185,untitled,2023.2.3,60.013635103908875,2024-01-15 10h48.40.183444 -0500,
,"[0, -0.2]",None,,,,,,,,,0,6,6,6,2308.563282200019,,,,,,,,,,,,,,,,,,,,,,,,,,,,,,,,,,,,,,,,,,,,,,,,,,,,,,,,,,,,,,,,,2308.548006900004,2308.563282200019,2308.563282200019,2309.0466207999852,2309.063290800026,2311.5464769999962,2311.546689799987,None,1,,,,,,nback52,001,2024-01-15_10h22.11.185,untitled,2023.2.3,60.013635103908875,2024-01-15 10h48.40.183444 -0500,
,"[0.64, -0.4]",None,,,,,,,,,0,7,7,7,2311.563263499993,,,,,,,,,,,,,,,,,,,,,,,,,,,,,,,,,,,,,,,,,,,,,,,,,,,,,,,,,,,,,,,,,2311.547650100023,2311.563263499993,2311.563263499993,2312.0465875000227,2312.0631474999827,2314.5464300999884,2314.546628299984,None,1,,,,,,nback52,001,2024-01-15_10h22.11.185,untitled,2023.2.3,60.013635103908875,2024-01-15 10h48.40.183444 -0500,
,"[0.3, 0]",None,,,,,,,,,0,8,8,8,2314.563071099983,,,,,,,,,,,,,,,,,,,,,,,,,,,,,,,,,,,,,,,,,,,,,,,,,,,,,,,,,,,,,,,,,2314.5474191000103,2314.563071099983,2314.563071099983,2315.046309700003,2315.063039700035,2317.546301399998,2317.5464470000006,None,1,,,,,,nback52,001,2024-01-15_10h22.11.185,untitled,2023.2.3,60.013635103908875,2024-01-15 10h48.40.183444 -0500,
,"[0.64, -0.4]",space,,,,,,,,,0,9,9,9,2317.562969700026,,,,,,,,,,,,,,,,,,,,,,,,,,,,,,,,,,,,,,,,,,,,,,,,,,,,,,,,,,,,,,,,,2317.5470472000306,2317.562969700026,2317.562969700026,2318.046363600006,2318.0630402999814,2320.546432700008,2320.5466460000025,space,1,0.7198790999827906,None,,,,nback52,001,2024-01-15_10h22.11.185,untitled,2023.2.3,60.013635103908875,2024-01-15 10h48.40.183444 -0500,
,"[-0.64, 0.4]",None,,,,,,,,,0,10,10,10,2320.562959600007,,,,,,,,,,,,,,,,,,,,,,,,,,,,,,,,,,,,,,,,,,,,,,,,,,,,,,,,,,,,,,,,,2320.547590500035,2320.562959600007,2320.562959600007,2321.046329899982,2321.062999900023,2323.546317600005,2323.5465071999934,None,1,,,,,,nback52,001,2024-01-15_10h22.11.185,untitled,2023.2.3,60.013635103908875,2024-01-15 10h48.40.183444 -0500,
,"[0.2, 0.1]",None,,,,,,,,,0,11,11,11,2323.5630330999848,,,,,,,,,,,,,,,,,,,,,,,,,,,,,,,,,,,,,,,,,,,,,,,,,,,,,,,,,,,,,,,,,2323.5472304000286,2323.5630330999848,2323.5630330999848,2324.046374800033,2324.0628806999885,2326.546256100002,2326.5464465999976,None,1,,,,,,nback52,001,2024-01-15_10h22.11.185,untitled,2023.2.3,60.013635103908875,2024-01-15 10h48.40.183444 -0500,
,"[0.3, 0]",None,,,,,,,,,0,12,12,12,2326.5628727999865,,,,,,,,,,,,,,,,,,,,,,,,,,,,,,,,,,,,,,,,,,,,,,,,,,,,,,,,,,,,,,,,,2326.547165900003,2326.5628727999865,2326.5628727999865,2327.0461936999927,2327.062985900033,2329.54608260002,2329.546256600006,None,1,,,,,,nback52,001,2024-01-15_10h22.11.185,untitled,2023.2.3,60.013635103908875,2024-01-15 10h48.40.183444 -0500,
,"[0.2, 0.1]",space,,,,,,,,,0,13,13,13,2329.562769900018,,,,,,,,,,,,,,,,,,,,,,,,,,,,,,,,,,,,,,,,,,,,,,,,,,,,,,,,,,,,,,,,,2329.546964200039,2329.562769900018,2329.562769900018,2330.046107400034,2330.0627709000255,2332.546130300034,2332.5463305999874,space,1,0.4312224000459537,None,,,,nback52,001,2024-01-15_10h22.11.185,untitled,2023.2.3,60.013635103908875,2024-01-15 10h48.40.183444 -0500,
,"[-0.3, 0]",None,,,,,,,,,0,14,14,14,2332.5628358999966,,,,,,,,,,,,,,,,,,,,,,,,,,,,,,,,,,,,,,,,,,,,,,,,,,,,,,,,,,,,,,,,,2332.5472573000006,2332.5628358999966,2332.5628358999966,2333.046206900035,2333.062858499994,2335.5460632999893,2335.5462778999936,None,1,,,,,,nback52,001,2024-01-15_10h22.11.185,untitled,2023.2.3,60.013635103908875,2024-01-15 10h48.40.183444 -0500,
,"[0, 0.2]",None,,,,,,,,,0,15,15,15,2335.5628196999896,,,,,,,,,,,,,,,,,,,,,,,,,,,,,,,,,,,,,,,,,,,,,,,,,,,,,,,,,,,,,,,,,2335.5471003000275,2335.5628196999896,2335.5628196999896,2336.046147999994,2336.0627295000013,2338.5461421000073,2338.546353099984,None,1,,,,,,nback52,001,2024-01-15_10h22.11.185,untitled,2023.2.3,60.013635103908875,2024-01-15 10h48.40.183444 -0500,
,"[-0.3, 0]",space,,,,,,,,,0,16,16,16,2338.562729199999,,,,,,,,,,,,,,,,,,,,,,,,,,,,,,,,,,,,,,,,,,,,,,,,,,,,,,,,,,,,,,,,,2338.5471801999956,2338.562729199999,2338.562729199999,2339.04578580003,2339.0626249000197,2341.5456798000378,2341.545765399991,space,1,0.4762201000121422,None,,,,nback52,001,2024-01-15_10h22.11.185,untitled,2023.2.3,60.013635103908875,2024-01-15 10h48.40.183444 -0500,
,"[-0.64, -0.4]",None,,,,,,,,,0,17,17,17,2341.5627355999895,,,,,,,,,,,,,,,,,,,,,,,,,,,,,,,,,,,,,,,,,,,,,,,,,,,,,,,,,,,,,,,,,2341.5461555999937,2341.5627355999895,2341.5627355999895,2342.0460620000376,2342.0625430000364,2344.5458764000214,2344.5460761000286,None,1,,,,,,nback52,001,2024-01-15_10h22.11.185,untitled,2023.2.3,60.013635103908875,2024-01-15 10h48.40.183444 -0500,
,"[-0.2, -0.1]",None,,,,,,,,,0,18,18,18,2344.562644999998,,,,,,,,,,,,,,,,,,,,,,,,,,,,,,,,,,,,,,,,,,,,,,,,,,,,,,,,,,,,,,,,,2344.5468487000326,2344.562644999998,2344.562644999998,2345.045984800032,2345.0626498000347,2347.5457643999835,2347.5459459000267,None,1,,,,,,nback52,001,2024-01-15_10h22.11.185,untitled,2023.2.3,60.013635103908875,2024-01-15 10h48.40.183444 -0500,
,"[0.2, -0.1]",None,,,,,,,,,0,19,19,19,2347.5625947000226,,,,,,,,,,,,,,,,,,,,,,,,,,,,,,,,,,,,,,,,,,,,,,,,,,,,,,,,,,,,,,,,,2347.546646700008,2347.5625947000226,2347.5625947000226,2348.0459531000233,2348.0625676999916,2350.545818399987,2350.5460166999837,None,1,,,,,,nback52,001,2024-01-15_10h22.11.185,untitled,2023.2.3,60.013635103908875,2024-01-15 10h48.40.183444 -0500,
,"[0.2, -0.1]",None,,,,,,,,,0,20,20,20,2350.5624796000193,,,,,,,,,,,,,,,,,,,,,,,,,,,,,,,,,,,,,,,,,,,,,,,,,,,,,,,,,,,,,,,,,2350.5467783000204,2350.5624796000193,2350.5624796000193,2351.0457506999956,2351.062621799996,2353.5459241000353,2353.546325800009,None,1,,,,,,nback52,001,2024-01-15_10h22.11.185,untitled,2023.2.3,60.013635103908875,2024-01-15 10h48.40.183444 -0500,
,"[-0.64, 0.4]",None,,,,,,,,,0,21,21,21,2353.5623769999947,,,,,,,,,,,,,,,,,,,,,,,,,,,,,,,,,,,,,,,,,,,,,,,,,,,,,,,,,,,,,,,,,2353.5471942999866,2353.5623769999947,2353.5623769999947,2354.045867500012,2354.0623970000306,2356.5457288000034,2356.54590550001,None,1,,,,,,nback52,001,2024-01-15_10h22.11.185,untitled,2023.2.3,60.013635103908875,2024-01-15 10h48.40.183444 -0500,
,"[0, 0.2]",None,,,,,,,,,0,22,22,22,2356.5624493000214,,,,,,,,,,,,,,,,,,,,,,,,,,,,,,,,,,,,,,,,,,,,,,,,,,,,,,,,,,,,,,,,,2356.5465875000227,2356.5624493000214,2356.5624493000214,2357.045676000009,2357.062338699994,2359.5456342999823,2359.5458141000126,None,1,,,,,,nback52,001,2024-01-15_10h22.11.185,untitled,2023.2.3,60.013635103908875,2024-01-15 10h48.40.183444 -0500,
,"[0.64, -0.4]",None,,,,,,,,,0,23,23,23,2359.5622013999964,,,,,,,,,,,,,,,,,,,,,,,,,,,,,,,,,,,,,,,,,,,,,,,,,,,,,,,,,,,,,,,,,2359.5465219999896,2359.5622013999964,2359.5622013999964,2360.045661900018,2360.0622052000253,2362.545737700013,2362.5459247999825,None,1,,,,,,nback52,001,2024-01-15_10h22.11.185,untitled,2023.2.3,60.013635103908875,2024-01-15 10h48.40.183444 -0500,
,"[0, 0.2]",space,,,,,,,,,0,24,24,24,2362.562218600011,,,,,,,,,,,,,,,,,,,,,,,,,,,,,,,,,,,,,,,,,,,,,,,,,,,,,,,,,,,,,,,,,2362.5466659000376,2362.562218600011,2362.562218600011,2363.045614200004,2363.0622976000304,2365.545481499983,2365.5456901,space,1,0.8144364999607205,None,,,,nback52,001,2024-01-15_10h22.11.185,untitled,2023.2.3,60.013635103908875,2024-01-15 10h48.40.183444 -0500,
,"[-0.2, 0.1]",None,,,,,,,,,0,25,25,25,2365.5622566000093,,,,,,,,,,,,,,,,,,,,,,,,,,,,,,,,,,,,,,,,,,,,,,,,,,,,,,,,,,,,,,,,,2365.546724500018,2365.5622566000093,2365.5622566000093,2366.0455399000202,2366.0622933999985,2368.545409800019,2368.5455795000307,None,1,,,,,,nback52,001,2024-01-15_10h22.11.185,untitled,2023.2.3,60.013635103908875,2024-01-15 10h48.40.183444 -0500,
,"[0.3, 0]",None,,,,,,,,,0,26,26,26,2368.562097900023,,,,,,,,,,,,,,,,,,,,,,,,,,,,,,,,,,,,,,,,,,,,,,,,,,,,,,,,,,,,,,,,,2368.5462878000108,2368.562097900023,2368.562097900023,2369.045332000009,2369.062162199989,2371.54533719999,2371.545507200004,None,1,,,,,,nback52,001,2024-01-15_10h22.11.185,untitled,2023.2.3,60.013635103908875,2024-01-15 10h48.40.183444 -0500,
,"[-0.2, 0.1]",space,,,,,,,,,0,27,27,27,2371.5622091999976,,,,,,,,,,,,,,,,,,,,,,,,,,,,,,,,,,,,,,,,,,,,,,,,,,,,,,,,,,,,,,,,,2371.5462963000173,2371.5622091999976,2371.5622091999976,2372.0453735000337,2372.062155199994,2374.5455327000236,2374.545748100034,space,1,0.544775300018955,None,,,,nback52,001,2024-01-15_10h22.11.185,untitled,2023.2.3,60.013635103908875,2024-01-15 10h48.40.183444 -0500,
,"[-0.2, 0.1]",None,,,,,,,,,0,28,28,28,2374.5620970000164,,,,,,,,,,,,,,,,,,,,,,,,,,,,,,,,,,,,,,,,,,,,,,,,,,,,,,,,,,,,,,,,,2374.546687700029,2374.5620970000164,2374.5620970000164,2375.045545800007,2375.0620401999913,2377.545257400023,2377.54540990002,None,1,,,,,,nback52,001,2024-01-15_10h22.11.185,untitled,2023.2.3,60.013635103908875,2024-01-15 10h48.40.183444 -0500,
,"[0.2, 0.1]",None,,,,,,,,,0,29,29,29,2377.561917599989,,,,,,,,,,,,,,,,,,,,,,,,,,,,,,,,,,,,,,,,,,,,,,,,,,,,,,,,,,,,,,,,,2377.5460328999907,2377.561917599989,2377.561917599989,2378.0452607999905,2378.0619577000034,2380.5453063999885,2380.545517700026,None,1,,,,,,nback52,001,2024-01-15_10h22.11.185,untitled,2023.2.3,60.013635103908875,2024-01-15 10h48.40.183444 -0500,
,"[-0.64, -0.4]",None,,,,,,,,,0,30,30,30,2380.562060200027,,,,,,,,,,,,,,,,,,,,,,,,,,,,,,,,,,,,,,,,,,,,,,,,,,,,,,,,,,,,,,,,,2380.546352799982,2380.562060200027,2380.562060200027,2381.045033100003,2381.0619159000344,2383.545299899997,2383.545502300025,None,1,,,,,,nback52,001,2024-01-15_10h22.11.185,untitled,2023.2.3,60.013635103908875,2024-01-15 10h48.40.183444 -0500,
,"[0, -0.2]",None,,,,,,,,,0,31,31,31,2383.5619398999843,,,,,,,,,,,,,,,,,,,,,,,,,,,,,,,,,,,,,,,,,,,,,,,,,,,,,,,,,,,,,,,,,2383.546301399998,2383.5619398999843,2383.5619398999843,2384.045375799993,2384.061946700036,2386.5452918999945,2386.5455052999896,None,1,,,,,,nback52,001,2024-01-15_10h22.11.185,untitled,2023.2.3,60.013635103908875,2024-01-15 10h48.40.183444 -0500,
,"[-0.64, -0.4]",space,,,,,,,,,0,32,32,32,2386.5619089000393,,,,,,,,,,,,,,,,,,,,,,,,,,,,,,,,,,,,,,,,,,,,,,,,,,,,,,,,,,,,,,,,,2386.546333200007,2386.5619089000393,2386.5619089000393,2387.045295900025,2387.06204769999,2389.545060000033,2389.5452681999886,space,1,0.6537825999548659,None,,,,nback52,001,2024-01-15_10h22.11.185,untitled,2023.2.3,60.013635103908875,2024-01-15 10h48.40.183444 -0500,
,"[0.64, 0.4]",None,,,,,,,,,0,33,33,33,2389.5617087000282,,,,,,,,,,,,,,,,,,,,,,,,,,,,,,,,,,,,,,,,,,,,,,,,,,,,,,,,,,,,,,,,,2389.5462490000064,2389.5617087000282,2389.5617087000282,2390.0451813000254,2390.061910199991,2392.545051000023,2392.545244000037,None,1,,,,,,nback52,001,2024-01-15_10h22.11.185,untitled,2023.2.3,60.013635103908875,2024-01-15 10h48.40.183444 -0500,
,"[-0.3, 0]",None,,,,,,,,,0,34,34,34,2392.5618230000255,,,,,,,,,,,,,,,,,,,,,,,,,,,,,,,,,,,,,,,,,,,,,,,,,,,,,,,,,,,,,,,,,2392.5459708999842,2392.5618230000255,2392.5618230000255,2393.045193500002,2393.0618438000092,2395.54511549999,2395.545328300039,None,1,,,,,,nback52,001,2024-01-15_10h22.11.185,untitled,2023.2.3,60.013635103908875,2024-01-15 10h48.40.183444 -0500,
,"[0.3, 0]",None,,,,,,,,,0,35,35,35,2395.5617288000067,,,,,,,,,,,,,,,,,,,,,,,,,,,,,,,,,,,,,,,,,,,,,,,,,,,,,,,,,,,,,,,,,2395.5462187000085,2395.5617288000067,2395.5617288000067,2396.0450425000163,2396.0616650999873,2398.5450363000273,2398.5452365000383,None,1,,,,,,nback52,001,2024-01-15_10h22.11.185,untitled,2023.2.3,60.013635103908875,2024-01-15 10h48.40.183444 -0500,
,"[-0.3, 0]",space,,,,,,,,,0,36,36,36,2398.56190239999,,,,,,,,,,,,,,,,,,,,,,,,,,,,,,,,,,,,,,,,,,,,,,,,,,,,,,,,,,,,,,,,,2398.546026199998,2398.56190239999,2398.56190239999,2399.0450722000096,2399.0615128999925,2401.5447316000354,2401.544842500007,space,1,0.7346038000541739,None,,,,nback52,001,2024-01-15_10h22.11.185,untitled,2023.2.3,60.013635103908875,2024-01-15 10h48.40.183444 -0500,
,"[0, -0.2]",None,,,,,,,,,0,37,37,37,2401.5614282999886,,,,,,,,,,,,,,,,,,,,,,,,,,,,,,,,,,,,,,,,,,,,,,,,,,,,,,,,,,,,,,,,,2401.545267599984,2401.5614282999886,2401.5614282999886,2402.0449407999986,2402.0615315000177,2404.544759500015,2404.5449171999935,None,1,,,,,,nback52,001,2024-01-15_10h22.11.185,untitled,2023.2.3,60.013635103908875,2024-01-15 10h48.40.183444 -0500,
,"[0.3, 0]",None,,,,,,,,,0,38,38,38,2404.561503899982,,,,,,,,,,,,,,,,,,,,,,,,,,,,,,,,,,,,,,,,,,,,,,,,,,,,,,,,,,,,,,,,,2404.5455206999904,2404.561503899982,2404.561503899982,2405.0448807000066,2405.0617244000314,2407.5448691000347,2407.545058000018,None,1,,,,,,nback52,001,2024-01-15_10h22.11.185,untitled,2023.2.3,60.013635103908875,2024-01-15 10h48.40.183444 -0500,
,"[0.2, 0.1]",None,,,,,,,,,0,39,39,39,2407.5616413999815,,,,,,,,,,,,,,,,,,,,,,,,,,,,,,,,,,,,,,,,,,,,,,,,,,,,,,,,,,,,,,,,,2407.545790700009,2407.5616413999815,2407.5616413999815,2408.044912800018,2408.0615709000267,2410.544830000028,2410.545011200011,None,1,,,,,,nback52,001,2024-01-15_10h22.11.185,untitled,2023.2.3,60.013635103908875,2024-01-15 10h48.40.183444 -0500,
,,,,,,,,,,,,,,,,,,,,,,,,,,,,,,,,,,,,,,,,,,,,,,,,,,,,,,,,,,,,,,,,,,,,,,,,,,,,,,,,,,,,,,,,,,,2410.545501800021,2410.5614669999923,2413.5450932999956,,,,,,,,
