square,location,corrAns,trials_0.thisRepN,trials_0.thisTrialN,trials_0.thisN,trials_0.thisIndex,trials_1.thisRepN,trials_1.thisTrialN,trials_1.thisN,trials_1.thisIndex,trials_2.thisRepN,trials_2.thisTrialN,trials_2.thisN,trials_2.thisIndex,thisRow.t,notes,Instructions.started,instructions.started,key_resp.started,inst_sq11.started,Instructions.stopped,key_resp.keys,key_resp.rt,key_resp.duration,All.started,sq_1.started,sq_2.started,sq_3.started,sq_4.started,sq_5.started,sq_6.started,sq_7.started,sq_8.started,sq_9.started,sq_10.started,sq_11.started,sq_12.started,All.stopped,Fixation.started,fixation_3.started,fixation_3.stopped,Fixation.stopped,N_back_0_Trial.started,target_square_0.started,response_0.started,fixation_0.started,target_square_0.stopped,fixation_0.stopped,response_0.stopped,N_back_0_Trial.stopped,response_0.keys,response_0.corr,response_0.rt,response_0.duration,Instructions_1.started,instructions_1.started,key_resp_1.started,Instructions_1.stopped,key_resp_1.keys,key_resp_1.rt,key_resp_1.duration,N_back_1_Trial.started,target_square_1.started,response_1.started,target_square_1.stopped,fixation_1.started,fixation_1.stopped,response_1.stopped,N_back_1_Trial.stopped,response_1.keys,response_1.corr,response_1.rt,response_1.duration,Instructions_2.started,instructions_2.started,key_resp_2.started,Instructions_2.stopped,key_resp_2.keys,key_resp_2.rt,key_resp_2.duration,N_back_2_trials.started,target_square_2.started,response_2.started,target_square_2.stopped,fixation_2.started,fixation_2.stopped,response_2.stopped,N_back_2_trials.stopped,response_2.keys,response_2.corr,response_2.rt,response_2.duration,End.started,thank_you.started,thank_you.stopped,End.stopped,participant,session,date,expName,psychopyVersion,frameRate,expStart,Unnamed: 104
,,,,,,,,,,,,,,,,,0.0014909000601619,0.0039930001366883,0.0039930001366883,0.0039930001366883,1561.417180000106,space,1561.405157599831,None,,,,,,,,,,,,,,,,,,,,,,,,,,,,,,,,,,,,,,,,,,,,,,,,,,,,,,,,,,,,,,,,,,,,,,,,,nback75,1.0,2024-01-30_12h16.59.453,untitled,2023.2.3,60.13807701205524,2024-01-30 12h49.58.197975 -0500,
6.0,"[-0.3, 0]",None,0.0,0.0,0.0,0.0,,,,,,,,,1563.4314064001665,,,,,,,,,,1561.4172413002234,1561.4316091001965,1561.4316091001965,1561.4316091001965,1561.4316091001965,1561.4316091001965,1561.4316091001965,1561.4316091001965,1561.4316091001965,1561.4316091001965,1561.4316091001965,1561.4316091001965,1561.4316091001965,1562.4157021001447,1562.4157320000231,1562.4317118001636,1563.4314064001665,1563.4159363000654,1563.4289392000064,1563.4314064001665,1563.4314064001665,1563.9149790001102,1563.931836800184,1566.4149509000126,1566.4314000001175,1566.4159210000653,None,1.0,,,,,,,,,,,,,,,,,,,,,,,,,,,,,,,,,,,,,,,,,,,,,nback75,1.0,2024-01-30_12h16.59.453,untitled,2023.2.3,60.13807701205524,2024-01-30 12h49.58.197975 -0500,
10.0,"[0, -0.2]",None,0.0,1.0,1.0,1.0,,,,,,,,,1566.4314000001175,,,,,,,,,,,,,,,,,,,,,,,,,,,,1566.4170008001383,1566.4314000001175,1566.4314000001175,1566.91498160013,1566.9316660000477,1569.414924300043,1569.4315389001276,1569.4160303000826,None,1.0,,,,,,,,,,,,,,,,,,,,,,,,,,,,,,,,,,,,,,,,,,,,,nback75,1.0,2024-01-30_12h16.59.453,untitled,2023.2.3,60.13807701205524,2024-01-30 12h49.58.197975 -0500,
11.0,"[-0.64, -0.4]",space,0.0,2.0,2.0,2.0,,,,,,,,,1569.4315389001276,,,,,,,,,,,,,,,,,,,,,,,,,,,,1569.4168452001177,1569.4315389001276,1569.4315389001276,1569.9148497001734,1569.931608500192,1572.4149875000585,1572.43155580014,1572.415866000112,space,1.0,0.359126599971205,None,,,,,,,,,,,,,,,,,,,,,,,,,,,,,,,,,,,,,,,,,,,nback75,1.0,2024-01-30_12h16.59.453,untitled,2023.2.3,60.13807701205524,2024-01-30 12h49.58.197975 -0500,
12.0,"[0.64, -0.4]",None,0.0,3.0,3.0,3.0,,,,,,,,,1572.43155580014,,,,,,,,,,,,,,,,,,,,,,,,,,,,1572.4170931000262,1572.43155580014,1572.43155580014,1572.9146926000249,1572.9316281001084,1575.4148631000426,1575.4314541001804,1575.4159035000484,None,1.0,,,,,,,,,,,,,,,,,,,,,,,,,,,,,,,,,,,,,,,,,,,,,nback75,1.0,2024-01-30_12h16.59.453,untitled,2023.2.3,60.13807701205524,2024-01-30 12h49.58.197975 -0500,
1.0,"[-0.64, 0.4]",None,0.0,4.0,4.0,4.0,,,,,,,,,1575.4314541001804,,,,,,,,,,,,,,,,,,,,,,,,,,,,1575.4166893002111,1575.4314541001804,1575.4314541001804,1575.931340500014,1575.931340500014,1578.431426800089,1578.431426800089,1578.41558310017,None,1.0,,,,,,,,,,,,,,,,,,,,,,,,,,,,,,,,,,,,,,,,,,,,,nback75,1.0,2024-01-30_12h16.59.453,untitled,2023.2.3,60.13807701205524,2024-01-30 12h49.58.197975 -0500,
1.0,"[-0.64, 0.4]",None,0.0,5.0,5.0,5.0,,,,,,,,,1578.431426800089,,,,,,,,,,,,,,,,,,,,,,,,,,,,1578.4163252001165,1578.431426800089,1578.431426800089,1578.9314213001635,1578.9314213001635,1581.431111900136,1581.431111900136,1581.4152931000572,None,1.0,,,,,,,,,,,,,,,,,,,,,,,,,,,,,,,,,,,,,,,,,,,,,nback75,1.0,2024-01-30_12h16.59.453,untitled,2023.2.3,60.13807701205524,2024-01-30 12h49.58.197975 -0500,
4.0,"[-0.2, 0.1]",None,0.0,6.0,6.0,6.0,,,,,,,,,1581.431111900136,,,,,,,,,,,,,,,,,,,,,,,,,,,,1581.415935400175,1581.431111900136,1581.431111900136,1581.931185600115,1581.931185600115,1584.4313093000092,1584.4313093000092,1584.4155198000371,None,1.0,,,,,,,,,,,,,,,,,,,,,,,,,,,,,,,,,,,,,,,,,,,,,nback75,1.0,2024-01-30_12h16.59.453,untitled,2023.2.3,60.13807701205524,2024-01-30 12h49.58.197975 -0500,
5.0,"[0.2, 0.1]",None,0.0,7.0,7.0,7.0,,,,,,,,,1584.4313093000092,,,,,,,,,,,,,,,,,,,,,,,,,,,,1584.416208300041,1584.4313093000092,1584.4313093000092,1584.9312515000347,1584.9312515000347,1587.4311278001403,1587.4311278001403,1587.4154223001096,None,1.0,,,,,,,,,,,,,,,,,,,,,,,,,,,,,,,,,,,,,,,,,,,,,nback75,1.0,2024-01-30_12h16.59.453,untitled,2023.2.3,60.13807701205524,2024-01-30 12h49.58.197975 -0500,
11.0,"[-0.64, -0.4]",space,0.0,8.0,8.0,8.0,,,,,,,,,1587.4311278001403,,,,,,,,,,,,,,,,,,,,,,,,,,,,1587.4158039002214,1587.4311278001403,1587.4311278001403,1587.9311347000769,1587.9311347000769,1590.4312103001866,1590.4312103001866,1590.4155233001802,space,1.0,0.4011186000425368,None,,,,,,,,,,,,,,,,,,,,,,,,,,,,,,,,,,,,,,,,,,,nback75,1.0,2024-01-30_12h16.59.453,untitled,2023.2.3,60.13807701205524,2024-01-30 12h49.58.197975 -0500,
9.0,"[0.2, -0.1]",None,0.0,9.0,9.0,9.0,,,,,,,,,1590.4312103001866,,,,,,,,,,,,,,,,,,,,,,,,,,,,1590.416452900041,1590.4312103001866,1590.4312103001866,1590.9313697000034,1590.9313697000034,1593.4310267001856,1593.4310267001856,1593.4155685000587,None,1.0,,,,,,,,,,,,,,,,,,,,,,,,,,,,,,,,,,,,,,,,,,,,,nback75,1.0,2024-01-30_12h16.59.453,untitled,2023.2.3,60.13807701205524,2024-01-30 12h49.58.197975 -0500,
8.0,"[-0.2, -0.1]",None,0.0,10.0,10.0,10.0,,,,,,,,,1593.4310267001856,,,,,,,,,,,,,,,,,,,,,,,,,,,,1593.4163856001103,1593.4310267001856,1593.4310267001856,1593.93102680007,1593.93102680007,1596.4310617002193,1596.4310617002193,1596.415288600139,None,1.0,,,,,,,,,,,,,,,,,,,,,,,,,,,,,,,,,,,,,,,,,,,,,nback75,1.0,2024-01-30_12h16.59.453,untitled,2023.2.3,60.13807701205524,2024-01-30 12h49.58.197975 -0500,
9.0,"[0.2, -0.1]",None,0.0,11.0,11.0,11.0,,,,,,,,,1596.4310617002193,,,,,,,,,,,,,,,,,,,,,,,,,,,,1596.415965600172,1596.4310617002193,1596.4310617002193,1596.9311483001802,1596.9311483001802,1599.4311504000798,1599.4311504000798,1599.4154486001937,None,1.0,,,,,,,,,,,,,,,,,,,,,,,,,,,,,,,,,,,,,,,,,,,,,nback75,1.0,2024-01-30_12h16.59.453,untitled,2023.2.3,60.13807701205524,2024-01-30 12h49.58.197975 -0500,
6.0,"[-0.3, 0]",None,0.0,12.0,12.0,12.0,,,,,,,,,1599.4311504000798,,,,,,,,,,,,,,,,,,,,,,,,,,,,1599.4161777000409,1599.4311504000798,1599.4311504000798,1599.9311846001074,1599.9311846001074,1602.4310370001476,1602.4310370001476,1602.4151563001797,None,1.0,,,,,,,,,,,,,,,,,,,,,,,,,,,,,,,,,,,,,,,,,,,,,nback75,1.0,2024-01-30_12h16.59.453,untitled,2023.2.3,60.13807701205524,2024-01-30 12h49.58.197975 -0500,
9.0,"[0.2, -0.1]",None,0.0,13.0,13.0,13.0,,,,,,,,,1602.4310370001476,,,,,,,,,,,,,,,,,,,,,,,,,,,,1602.4159833001904,1602.4310370001476,1602.4310370001476,1602.9309819000773,1602.9309819000773,1605.431026400067,1605.431026400067,1605.415415500058,None,1.0,,,,,,,,,,,,,,,,,,,,,,,,,,,,,,,,,,,,,,,,,,,,,nback75,1.0,2024-01-30_12h16.59.453,untitled,2023.2.3,60.13807701205524,2024-01-30 12h49.58.197975 -0500,
7.0,"[0.3, 0]",None,0.0,14.0,14.0,14.0,,,,,,,,,1605.431026400067,,,,,,,,,,,,,,,,,,,,,,,,,,,,1605.41626060009,1605.431026400067,1605.431026400067,1605.9308552001603,1605.9308552001603,1608.430621800013,1608.430621800013,1608.4146958000492,None,1.0,,,,,,,,,,,,,,,,,,,,,,,,,,,,,,,,,,,,,,,,,,,,,nback75,1.0,2024-01-30_12h16.59.453,untitled,2023.2.3,60.13807701205524,2024-01-30 12h49.58.197975 -0500,
2.0,"[0.64, 0.4]",None,0.0,15.0,15.0,15.0,,,,,,,,,1608.430621800013,,,,,,,,,,,,,,,,,,,,,,,,,,,,1608.41504230001,1608.430621800013,1608.430621800013,1608.9308336002289,1608.9308336002289,1611.4306996001396,1611.4306996001396,1611.4152710000053,None,1.0,,,,,,,,,,,,,,,,,,,,,,,,,,,,,,,,,,,,,,,,,,,,,nback75,1.0,2024-01-30_12h16.59.453,untitled,2023.2.3,60.13807701205524,2024-01-30 12h49.58.197975 -0500,
2.0,"[0.64, 0.4]",None,0.0,16.0,16.0,16.0,,,,,,,,,1611.4306996001396,,,,,,,,,,,,,,,,,,,,,,,,,,,,1611.4160855000373,1611.4306996001396,1611.4306996001396,1611.9306139000691,1611.9306139000691,1614.430853100028,1614.430853100028,1614.4151575001888,None,1.0,,,,,,,,,,,,,,,,,,,,,,,,,,,,,,,,,,,,,,,,,,,,,nback75,1.0,2024-01-30_12h16.59.453,untitled,2023.2.3,60.13807701205524,2024-01-30 12h49.58.197975 -0500,
11.0,"[-0.64, -0.4]",space,0.0,17.0,17.0,17.0,,,,,,,,,1614.430853100028,,,,,,,,,,,,,,,,,,,,,,,,,,,,1614.41592160007,1614.430853100028,1614.430853100028,1614.9307835001964,1614.9307835001964,1617.4307377000805,1617.4307377000805,1617.4150871001184,space,1.0,0.4156738999299705,None,,,,,,,,,,,,,,,,,,,,,,,,,,,,,,,,,,,,,,,,,,,nback75,1.0,2024-01-30_12h16.59.453,untitled,2023.2.3,60.13807701205524,2024-01-30 12h49.58.197975 -0500,
11.0,"[-0.64, -0.4]",space,0.0,18.0,18.0,18.0,,,,,,,,,1617.4307377000805,,,,,,,,,,,,,,,,,,,,,,,,,,,,1617.4160084000323,1617.4307377000805,1617.4307377000805,1617.9307224000804,1617.9307224000804,1620.4306424001695,1620.4306424001695,1620.414744600188,space,1.0,0.510558299953118,None,,,,,,,,,,,,,,,,,,,,,,,,,,,,,,,,,,,,,,,,,,,nback75,1.0,2024-01-30_12h16.59.453,untitled,2023.2.3,60.13807701205524,2024-01-30 12h49.58.197975 -0500,
7.0,"[0.3, 0]",None,0.0,19.0,19.0,19.0,,,,,,,,,1620.4306424001695,,,,,,,,,,,,,,,,,,,,,,,,,,,,1620.4156165001914,1620.4306424001695,1620.4306424001695,1620.930747100152,1620.930747100152,1623.4307942001617,1623.4307942001617,1623.415019000182,None,1.0,,,,,,,,,,,,,,,,,,,,,,,,,,,,,,,,,,,,,,,,,,,,,nback75,1.0,2024-01-30_12h16.59.453,untitled,2023.2.3,60.13807701205524,2024-01-30 12h49.58.197975 -0500,
3.0,"[0, 0.2]",None,0.0,20.0,20.0,20.0,,,,,,,,,1623.4307942001617,,,,,,,,,,,,,,,,,,,,,,,,,,,,1623.4157818001695,1623.4307942001617,1623.4307942001617,1623.9305637001526,1623.9305637001526,1626.4305174001493,1626.4305174001493,1626.41504540015,None,1.0,,,,,,,,,,,,,,,,,,,,,,,,,,,,,,,,,,,,,,,,,,,,,nback75,1.0,2024-01-30_12h16.59.453,untitled,2023.2.3,60.13807701205524,2024-01-30 12h49.58.197975 -0500,
10.0,"[0, -0.2]",None,0.0,21.0,21.0,21.0,,,,,,,,,1626.4305174001493,,,,,,,,,,,,,,,,,,,,,,,,,,,,1626.415834600106,1626.4305174001493,1626.4305174001493,1626.930624400033,1626.930624400033,1629.4306186002214,1629.4306186002214,1629.4147916000802,None,1.0,,,,,,,,,,,,,,,,,,,,,,,,,,,,,,,,,,,,,,,,,,,,,nback75,1.0,2024-01-30_12h16.59.453,untitled,2023.2.3,60.13807701205524,2024-01-30 12h49.58.197975 -0500,
1.0,"[-0.64, 0.4]",None,0.0,22.0,22.0,22.0,,,,,,,,,1629.4306186002214,,,,,,,,,,,,,,,,,,,,,,,,,,,,1629.4155863001945,1629.4306186002214,1629.4306186002214,1629.9303941000253,1629.9303941000253,1632.4302913001738,1632.4302913001738,1632.4145982000043,None,1.0,,,,,,,,,,,,,,,,,,,,,,,,,,,,,,,,,,,,,,,,,,,,,nback75,1.0,2024-01-30_12h16.59.453,untitled,2023.2.3,60.13807701205524,2024-01-30 12h49.58.197975 -0500,
2.0,"[0.64, 0.4]",None,0.0,23.0,23.0,23.0,,,,,,,,,1632.4302913001738,,,,,,,,,,,,,,,,,,,,,,,,,,,,1632.4152693001088,1632.4302913001738,1632.4302913001738,1632.9304106000343,1632.9304106000343,1635.4303335000295,1635.4303335000295,1635.414288900094,None,1.0,,,,,,,,,,,,,,,,,,,,,,,,,,,,,,,,,,,,,,,,,,,,,nback75,1.0,2024-01-30_12h16.59.453,untitled,2023.2.3,60.13807701205524,2024-01-30 12h49.58.197975 -0500,
6.0,"[-0.3, 0]",None,0.0,24.0,24.0,24.0,,,,,,,,,1635.4303335000295,,,,,,,,,,,,,,,,,,,,,,,,,,,,1635.4149065001402,1635.4303335000295,1635.4303335000295,1635.9305091002025,1635.9305091002025,1638.4302518002223,1638.4302518002223,1638.414429200115,None,1.0,,,,,,,,,,,,,,,,,,,,,,,,,,,,,,,,,,,,,,,,,,,,,nback75,1.0,2024-01-30_12h16.59.453,untitled,2023.2.3,60.13807701205524,2024-01-30 12h49.58.197975 -0500,
3.0,"[0, 0.2]",None,0.0,25.0,25.0,25.0,,,,,,,,,1638.4302518002223,,,,,,,,,,,,,,,,,,,,,,,,,,,,1638.4152242001146,1638.4302518002223,1638.4302518002223,1638.9304106000343,1638.9304106000343,1641.4302790001966,1641.4302790001966,1641.4148170000408,None,1.0,,,,,,,,,,,,,,,,,,,,,,,,,,,,,,,,,,,,,,,,,,,,,nback75,1.0,2024-01-30_12h16.59.453,untitled,2023.2.3,60.13807701205524,2024-01-30 12h49.58.197975 -0500,
11.0,"[-0.64, -0.4]",space,0.0,26.0,26.0,26.0,,,,,,,,,1641.4302790001966,,,,,,,,,,,,,,,,,,,,,,,,,,,,1641.415652600117,1641.4302790001966,1641.4302790001966,1641.9303390001878,1641.9303390001878,1644.4302250000185,1644.4302250000185,1644.41438620002,space,1.0,0.4510043000336736,None,,,,,,,,,,,,,,,,,,,,,,,,,,,,,,,,,,,,,,,,,,,nback75,1.0,2024-01-30_12h16.59.453,untitled,2023.2.3,60.13807701205524,2024-01-30 12h49.58.197975 -0500,
1.0,"[-0.64, 0.4]",None,0.0,27.0,27.0,27.0,,,,,,,,,1644.4302250000185,,,,,,,,,,,,,,,,,,,,,,,,,,,,1644.4151638001204,1644.4302250000185,1644.4302250000185,1644.930332500022,1644.930332500022,1647.4303885002157,1647.4303885002157,1647.4147229001392,None,1.0,,,,,,,,,,,,,,,,,,,,,,,,,,,,,,,,,,,,,,,,,,,,,nback75,1.0,2024-01-30_12h16.59.453,untitled,2023.2.3,60.13807701205524,2024-01-30 12h49.58.197975 -0500,
3.0,"[0, 0.2]",None,0.0,28.0,28.0,28.0,,,,,,,,,1647.4303885002157,,,,,,,,,,,,,,,,,,,,,,,,,,,,1647.4156165001914,1647.4303885002157,1647.4303885002157,1647.9303689000662,1647.9303689000662,1650.4303617000114,1650.4303617000114,1650.4145498001017,None,1.0,,,,,,,,,,,,,,,,,,,,,,,,,,,,,,,,,,,,,,,,,,,,,nback75,1.0,2024-01-30_12h16.59.453,untitled,2023.2.3,60.13807701205524,2024-01-30 12h49.58.197975 -0500,
9.0,"[0.2, -0.1]",None,0.0,29.0,29.0,29.0,,,,,,,,,1650.4303617000114,,,,,,,,,,,,,,,,,,,,,,,,,,,,1650.4153691001702,1650.4303617000114,1650.4303617000114,1650.9301124000922,1650.9301124000922,1653.430119200144,1653.430119200144,1653.4145563000347,None,1.0,,,,,,,,,,,,,,,,,,,,,,,,,,,,,,,,,,,,,,,,,,,,,nback75,1.0,2024-01-30_12h16.59.453,untitled,2023.2.3,60.13807701205524,2024-01-30 12h49.58.197975 -0500,
8.0,"[-0.2, -0.1]",None,0.0,30.0,30.0,30.0,,,,,,,,,1653.430119200144,,,,,,,,,,,,,,,,,,,,,,,,,,,,1653.4154150001705,1653.430119200144,1653.430119200144,1653.9296847002115,1653.9296847002115,1656.4299758002162,1656.4299758002162,1656.4145033000968,None,1.0,,,,,,,,,,,,,,,,,,,,,,,,,,,,,,,,,,,,,,,,,,,,,nback75,1.0,2024-01-30_12h16.59.453,untitled,2023.2.3,60.13807701205524,2024-01-30 12h49.58.197975 -0500,
12.0,"[0.64, -0.4]",None,0.0,31.0,31.0,31.0,,,,,,,,,1656.4299758002162,,,,,,,,,,,,,,,,,,,,,,,,,,,,1656.4153147002216,1656.4299758002162,1656.4299758002162,1656.93005360011,1656.93005360011,1659.4299917002209,1659.4299917002209,1659.4144057000522,None,1.0,,,,,,,,,,,,,,,,,,,,,,,,,,,,,,,,,,,,,,,,,,,,,nback75,1.0,2024-01-30_12h16.59.453,untitled,2023.2.3,60.13807701205524,2024-01-30 12h49.58.197975 -0500,
9.0,"[0.2, -0.1]",None,0.0,32.0,32.0,32.0,,,,,,,,,1659.4299917002209,,,,,,,,,,,,,,,,,,,,,,,,,,,,1659.4151993000414,1659.4299917002209,1659.4299917002209,1659.9300065001007,1659.9300065001007,1662.4299286000896,1662.4299286000896,1662.4143762001768,None,1.0,,,,,,,,,,,,,,,,,,,,,,,,,,,,,,,,,,,,,,,,,,,,,nback75,1.0,2024-01-30_12h16.59.453,untitled,2023.2.3,60.13807701205524,2024-01-30 12h49.58.197975 -0500,
11.0,"[-0.64, -0.4]",space,0.0,33.0,33.0,33.0,,,,,,,,,1662.4299286000896,,,,,,,,,,,,,,,,,,,,,,,,,,,,1662.4151413000654,1662.4299286000896,1662.4299286000896,1662.929799000034,1662.929799000034,1665.429937200155,1665.429937200155,1665.4142161000054,space,1.0,0.4102028999477625,None,,,,,,,,,,,,,,,,,,,,,,,,,,,,,,,,,,,,,,,,,,,nback75,1.0,2024-01-30_12h16.59.453,untitled,2023.2.3,60.13807701205524,2024-01-30 12h49.58.197975 -0500,
7.0,"[0.3, 0]",None,0.0,34.0,34.0,34.0,,,,,,,,,1665.429937200155,,,,,,,,,,,,,,,,,,,,,,,,,,,,1665.4151421000715,1665.429937200155,1665.429937200155,1665.929761200212,1665.929761200212,1668.429768500151,1668.429768500151,1668.414103700081,None,1.0,,,,,,,,,,,,,,,,,,,,,,,,,,,,,,,,,,,,,,,,,,,,,nback75,1.0,2024-01-30_12h16.59.453,untitled,2023.2.3,60.13807701205524,2024-01-30 12h49.58.197975 -0500,
11.0,"[-0.64, -0.4]",space,0.0,35.0,35.0,35.0,,,,,,,,,1668.429768500151,,,,,,,,,,,,,,,,,,,,,,,,,,,,1668.4148044001777,1668.429768500151,1668.429768500151,1668.9298183000649,1668.9298183000649,1671.429606100079,1671.429606100079,1671.4138140000869,space,1.0,0.385792399989441,None,,,,,,,,,,,,,,,,,,,,,,,,,,,,,,,,,,,,,,,,,,,nback75,1.0,2024-01-30_12h16.59.453,untitled,2023.2.3,60.13807701205524,2024-01-30 12h49.58.197975 -0500,
4.0,"[-0.2, 0.1]",None,0.0,36.0,36.0,36.0,,,,,,,,,1671.429606100079,,,,,,,,,,,,,,,,,,,,,,,,,,,,1671.4146174001507,1671.429606100079,1671.429606100079,1671.929699700093,1671.929699700093,1674.42973910016,1674.42973910016,1674.4137630001642,None,1.0,,,,,,,,,,,,,,,,,,,,,,,,,,,,,,,,,,,,,,,,,,,,,nback75,1.0,2024-01-30_12h16.59.453,untitled,2023.2.3,60.13807701205524,2024-01-30 12h49.58.197975 -0500,
5.0,"[0.2, 0.1]",None,0.0,37.0,37.0,37.0,,,,,,,,,1674.42973910016,,,,,,,,,,,,,,,,,,,,,,,,,,,,1674.4144580001011,1674.42973910016,1674.42973910016,1674.9295298000798,1674.9295298000798,1677.4296823001932,1677.4296823001932,1677.414220200153,None,1.0,,,,,,,,,,,,,,,,,,,,,,,,,,,,,,,,,,,,,,,,,,,,,nback75,1.0,2024-01-30_12h16.59.453,untitled,2023.2.3,60.13807701205524,2024-01-30 12h49.58.197975 -0500,
6.0,"[-0.3, 0]",None,0.0,38.0,38.0,38.0,,,,,,,,,1677.4296823001932,,,,,,,,,,,,,,,,,,,,,,,,,,,,1677.4150563001167,1677.4296823001932,1677.4296823001932,1677.929652000079,1677.929652000079,1680.4296144000257,1680.4296144000257,1680.4140874000732,None,1.0,,,,,,,,,,,,,,,,,,,,,,,,,,,,,,,,,,,,,,,,,,,,,nback75,1.0,2024-01-30_12h16.59.453,untitled,2023.2.3,60.13807701205524,2024-01-30 12h49.58.197975 -0500,
11.0,"[-0.64, -0.4]",space,0.0,39.0,39.0,39.0,,,,,,,,,1680.4296144000257,,,,,,,,,,,,,,,,,,,,,,,,,,,,1680.4148697000928,1680.4296144000257,1680.4296144000257,1680.929599400144,1680.929599400144,1683.429607800208,1683.429607800208,1683.413925500121,space,1.0,0.3397345000412315,None,,,,,,,,,,,,,,,,,,,,,,,,,,,,,,,,,,,,,,,,,,,nback75,1.0,2024-01-30_12h16.59.453,untitled,2023.2.3,60.13807701205524,2024-01-30 12h49.58.197975 -0500,
,,,,,,,,,,,,,,,,,,,,,,,,,,,,,,,,,,,,,,,,,,,,,,,,,,,,,,,1683.414648000151,1683.429607800208,1683.429607800208,1730.097185100196,space,46.65984370000661,None,,,,,,,,,,,,,,,,,,,,,,,,,,,,,,,,,,,,nback75,1.0,2024-01-30_12h16.59.453,untitled,2023.2.3,60.13807701205524,2024-01-30 12h49.58.197975 -0500,
10.0,"[0, -0.2]",None,,,,,0.0,0.0,0.0,0.0,,,,,1731.1117412000897,,,,,,,,,,,,,,,,,,,,,,,,1730.0972327000927,1730.1118928000797,1731.1117412000897,1731.0959621001966,,,,,,,,,,,,,,,,,,,,1731.1054441002198,1731.1117412000897,1731.1117412000897,1731.6119813001717,1731.6119813001717,1734.1118566000368,1734.1118566000368,1734.096318300115,None,1.0,,,,,,,,,,,,,,,,,,,,,,,,,,nback75,1.0,2024-01-30_12h16.59.453,untitled,2023.2.3,60.13807701205524,2024-01-30 12h49.58.197975 -0500,
5.0,"[0.2, 0.1]",None,,,,,0.0,1.0,1.0,1.0,,,,,1734.1118566000368,,,,,,,,,,,,,,,,,,,,,,,,,,,,,,,,,,,,,,,,,,,,,,,1734.0972470000852,1734.1118566000368,1734.1118566000368,1734.611876900075,1734.611876900075,1737.1119167001452,1737.1119167001452,1737.095875900006,None,1.0,,,,,,,,,,,,,,,,,,,,,,,,,,nback75,1.0,2024-01-30_12h16.59.453,untitled,2023.2.3,60.13807701205524,2024-01-30 12h49.58.197975 -0500,
6.0,"[-0.3, 0]",None,,,,,0.0,2.0,2.0,2.0,,,,,1737.1119167001452,,,,,,,,,,,,,,,,,,,,,,,,,,,,,,,,,,,,,,,,,,,,,,,1737.0964564001188,1737.1119167001452,1737.1119167001452,1737.6120706000363,1737.6120706000363,1740.1118000000715,1740.1118000000715,1740.0962216001935,None,1.0,,,,,,,,,,,,,,,,,,,,,,,,,,nback75,1.0,2024-01-30_12h16.59.453,untitled,2023.2.3,60.13807701205524,2024-01-30 12h49.58.197975 -0500,
6.0,"[-0.3, 0]",space,,,,,0.0,3.0,3.0,3.0,,,,,1740.1118000000715,,,,,,,,,,,,,,,,,,,,,,,,,,,,,,,,,,,,,,,,,,,,,,,1740.097105300054,1740.1118000000715,1740.1118000000715,1740.6118920000736,1740.6118920000736,1743.1116829002276,1743.1116829002276,1743.0959825001191,space,1.0,0.3729574000462889,None,,,,,,,,,,,,,,,,,,,,,,,,nback75,1.0,2024-01-30_12h16.59.453,untitled,2023.2.3,60.13807701205524,2024-01-30 12h49.58.197975 -0500,
12.0,"[0.64, -0.4]",None,,,,,0.0,4.0,4.0,4.0,,,,,1743.1116829002276,,,,,,,,,,,,,,,,,,,,,,,,,,,,,,,,,,,,,,,,,,,,,,,1743.097016400192,1743.1116829002276,1743.1116829002276,1743.6118237001356,1743.6118237001356,1746.111774600111,1746.111774600111,1746.0959028000943,None,1.0,,,,,,,,,,,,,,,,,,,,,,,,,,nback75,1.0,2024-01-30_12h16.59.453,untitled,2023.2.3,60.13807701205524,2024-01-30 12h49.58.197975 -0500,
10.0,"[0, -0.2]",None,,,,,0.0,5.0,5.0,5.0,,,,,1746.111774600111,,,,,,,,,,,,,,,,,,,,,,,,,,,,,,,,,,,,,,,,,,,,,,,1746.0965566001832,1746.111774600111,1746.111774600111,1746.6117767000103,1746.6117767000103,1749.1116517002229,1749.1116517002229,1749.0958386000711,None,1.0,,,,,,,,,,,,,,,,,,,,,,,,,,nback75,1.0,2024-01-30_12h16.59.453,untitled,2023.2.3,60.13807701205524,2024-01-30 12h49.58.197975 -0500,
2.0,"[0.64, 0.4]",None,,,,,0.0,6.0,6.0,6.0,,,,,1749.1116517002229,,,,,,,,,,,,,,,,,,,,,,,,,,,,,,,,,,,,,,,,,,,,,,,1749.0965368000325,1749.1116517002229,1749.1116517002229,1749.6117438001093,1749.6117438001093,1752.1116654002108,1752.1116654002108,1752.0958696000744,None,1.0,,,,,,,,,,,,,,,,,,,,,,,,,,nback75,1.0,2024-01-30_12h16.59.453,untitled,2023.2.3,60.13807701205524,2024-01-30 12h49.58.197975 -0500,
9.0,"[0.2, -0.1]",None,,,,,0.0,7.0,7.0,7.0,,,,,1752.1116654002108,,,,,,,,,,,,,,,,,,,,,,,,,,,,,,,,,,,,,,,,,,,,,,,1752.096540800063,1752.1116654002108,1752.1116654002108,1752.6117538001854,1752.6117538001854,1755.11167270015,1755.11167270015,1755.095784400124,None,1.0,,,,,,,,,,,,,,,,,,,,,,,,,,nback75,1.0,2024-01-30_12h16.59.453,untitled,2023.2.3,60.13807701205524,2024-01-30 12h49.58.197975 -0500,
9.0,"[0.2, -0.1]",space,,,,,0.0,8.0,8.0,8.0,,,,,1755.11167270015,,,,,,,,,,,,,,,,,,,,,,,,,,,,,,,,,,,,,,,,,,,,,,,1755.0965067001523,1755.11167270015,1755.11167270015,1755.61170940008,1755.61170940008,1758.1115392001811,1758.1115392001811,1758.0957773001865,space,1.0,0.5960630001500249,None,,,,,,,,,,,,,,,,,,,,,,,,nback75,1.0,2024-01-30_12h16.59.453,untitled,2023.2.3,60.13807701205524,2024-01-30 12h49.58.197975 -0500,
6.0,"[-0.3, 0]",None,,,,,0.0,9.0,9.0,9.0,,,,,1758.1115392001811,,,,,,,,,,,,,,,,,,,,,,,,,,,,,,,,,,,,,,,,,,,,,,,1758.096705000149,1758.1115392001811,1758.1115392001811,1758.6115507001523,1758.6115507001523,1761.1114496001974,1761.1114496001974,1761.0958965001628,None,1.0,,,,,,,,,,,,,,,,,,,,,,,,,,nback75,1.0,2024-01-30_12h16.59.453,untitled,2023.2.3,60.13807701205524,2024-01-30 12h49.58.197975 -0500,
11.0,"[-0.64, -0.4]",None,,,,,0.0,10.0,10.0,10.0,,,,,1761.1114496001974,,,,,,,,,,,,,,,,,,,,,,,,,,,,,,,,,,,,,,,,,,,,,,,1761.09677630011,1761.1114496001974,1761.1114496001974,1761.611642800039,1761.611642800039,1764.1114196002018,1764.1114196002018,1764.095517900074,None,1.0,,,,,,,,,,,,,,,,,,,,,,,,,,nback75,1.0,2024-01-30_12h16.59.453,untitled,2023.2.3,60.13807701205524,2024-01-30 12h49.58.197975 -0500,
11.0,"[-0.64, -0.4]",space,,,,,0.0,11.0,11.0,11.0,,,,,1764.1114196002018,,,,,,,,,,,,,,,,,,,,,,,,,,,,,,,,,,,,,,,,,,,,,,,1764.0962578000035,1764.1114196002018,1764.1114196002018,1764.6113630000036,1764.6113630000036,1767.111355200177,1767.111355200177,1767.095436700154,space,1.0,0.5589589001610875,None,,,,,,,,,,,,,,,,,,,,,,,,nback75,1.0,2024-01-30_12h16.59.453,untitled,2023.2.3,60.13807701205524,2024-01-30 12h49.58.197975 -0500,
4.0,"[-0.2, 0.1]",None,,,,,0.0,12.0,12.0,12.0,,,,,1767.111355200177,,,,,,,,,,,,,,,,,,,,,,,,,,,,,,,,,,,,,,,,,,,,,,,1767.0962342000566,1767.111355200177,1767.111355200177,1767.6113378000446,1767.6113378000446,1770.1113015001174,1770.1113015001174,1770.09523480013,None,1.0,,,,,,,,,,,,,,,,,,,,,,,,,,nback75,1.0,2024-01-30_12h16.59.453,untitled,2023.2.3,60.13807701205524,2024-01-30 12h49.58.197975 -0500,
3.0,"[0, 0.2]",None,,,,,0.0,13.0,13.0,13.0,,,,,1770.1113015001174,,,,,,,,,,,,,,,,,,,,,,,,,,,,,,,,,,,,,,,,,,,,,,,1770.095716700191,1770.1113015001174,1770.1113015001174,1770.611220000079,1770.611220000079,1773.1112604001537,1773.1112604001537,1773.0952740001958,None,1.0,,,,,,,,,,,,,,,,,,,,,,,,,,nback75,1.0,2024-01-30_12h16.59.453,untitled,2023.2.3,60.13807701205524,2024-01-30 12h49.58.197975 -0500,
3.0,"[0, 0.2]",space,,,,,0.0,14.0,14.0,14.0,,,,,1773.1112604001537,,,,,,,,,,,,,,,,,,,,,,,,,,,,,,,,,,,,,,,,,,,,,,,1773.0958870002069,1773.1112604001537,1773.1112604001537,1773.611312100198,1773.611312100198,1776.1112679000944,1776.1112679000944,1776.0954494001344,space,1.0,0.4990517001133412,None,,,,,,,,,,,,,,,,,,,,,,,,nback75,1.0,2024-01-30_12h16.59.453,untitled,2023.2.3,60.13807701205524,2024-01-30 12h49.58.197975 -0500,
8.0,"[-0.2, -0.1]",None,,,,,0.0,15.0,15.0,15.0,,,,,1776.1112679000944,,,,,,,,,,,,,,,,,,,,,,,,,,,,,,,,,,,,,,,,,,,,,,,1776.096338600153,1776.1112679000944,1776.1112679000944,1776.6112992002163,1776.6112992002163,1779.1112140000332,1779.1112140000332,1779.0956896001007,None,1.0,,,,,,,,,,,,,,,,,,,,,,,,,,nback75,1.0,2024-01-30_12h16.59.453,untitled,2023.2.3,60.13807701205524,2024-01-30 12h49.58.197975 -0500,
1.0,"[-0.64, 0.4]",None,,,,,0.0,16.0,16.0,16.0,,,,,1779.1112140000332,,,,,,,,,,,,,,,,,,,,,,,,,,,,,,,,,,,,,,,,,,,,,,,1779.0967007,1779.1112140000332,1779.1112140000332,1779.6111245001666,1779.6111245001666,1782.1110180001706,1782.1110180001706,1782.095315300161,None,1.0,,,,,,,,,,,,,,,,,,,,,,,,,,nback75,1.0,2024-01-30_12h16.59.453,untitled,2023.2.3,60.13807701205524,2024-01-30 12h49.58.197975 -0500,
2.0,"[0.64, 0.4]",None,,,,,0.0,17.0,17.0,17.0,,,,,1782.1110180001706,,,,,,,,,,,,,,,,,,,,,,,,,,,,,,,,,,,,,,,,,,,,,,,1782.0962081002071,1782.1110180001706,1782.1110180001706,1782.6110539000947,1782.6110539000947,1785.1111862000544,1785.1111862000544,1785.0953035000712,None,1.0,,,,,,,,,,,,,,,,,,,,,,,,,,nback75,1.0,2024-01-30_12h16.59.453,untitled,2023.2.3,60.13807701205524,2024-01-30 12h49.58.197975 -0500,
4.0,"[-0.2, 0.1]",None,,,,,0.0,18.0,18.0,18.0,,,,,1785.1111862000544,,,,,,,,,,,,,,,,,,,,,,,,,,,,,,,,,,,,,,,,,,,,,,,1785.0960381000768,1785.1111862000544,1785.1111862000544,1785.6111207001377,1785.6111207001377,1788.1109669001307,1788.1109669001307,1788.0952704001684,None,1.0,,,,,,,,,,,,,,,,,,,,,,,,,,nback75,1.0,2024-01-30_12h16.59.453,untitled,2023.2.3,60.13807701205524,2024-01-30 12h49.58.197975 -0500,
4.0,"[-0.2, 0.1]",space,,,,,0.0,19.0,19.0,19.0,,,,,1788.1109669001307,,,,,,,,,,,,,,,,,,,,,,,,,,,,,,,,,,,,,,,,,,,,,,,1788.0960694001988,1788.1109669001307,1788.1109669001307,1788.6114996001124,1788.6114996001124,1791.110960500082,1791.110960500082,1791.0952497001272,space,1.0,0.5012781999539584,None,,,,,,,,,,,,,,,,,,,,,,,,nback75,1.0,2024-01-30_12h16.59.453,untitled,2023.2.3,60.13807701205524,2024-01-30 12h49.58.197975 -0500,
8.0,"[-0.2, -0.1]",None,,,,,0.0,20.0,20.0,20.0,,,,,1791.110960500082,,,,,,,,,,,,,,,,,,,,,,,,,,,,,,,,,,,,,,,,,,,,,,,1791.0960757001303,1791.110960500082,1791.110960500082,1791.6109345001169,1791.6109345001169,1794.1109882001765,1794.1109882001765,1794.0953660001978,None,1.0,,,,,,,,,,,,,,,,,,,,,,,,,,nback75,1.0,2024-01-30_12h16.59.453,untitled,2023.2.3,60.13807701205524,2024-01-30 12h49.58.197975 -0500,
5.0,"[0.2, 0.1]",None,,,,,0.0,21.0,21.0,21.0,,,,,1794.1109882001765,,,,,,,,,,,,,,,,,,,,,,,,,,,,,,,,,,,,,,,,,,,,,,,1794.0961902001873,1794.1109882001765,1794.1109882001765,1794.6109522001352,1794.6109522001352,1797.110776600195,1797.110776600195,1797.095269100042,None,1.0,,,,,,,,,,,,,,,,,,,,,,,,,,nback75,1.0,2024-01-30_12h16.59.453,untitled,2023.2.3,60.13807701205524,2024-01-30 12h49.58.197975 -0500,
5.0,"[0.2, 0.1]",space,,,,,0.0,22.0,22.0,22.0,,,,,1797.110776600195,,,,,,,,,,,,,,,,,,,,,,,,,,,,,,,,,,,,,,,,,,,,,,,1797.0961253000423,1797.110776600195,1797.110776600195,1797.6110167000445,1797.6110167000445,1800.1108443001283,1800.1108443001283,1800.095237800153,space,1.0,0.3933248999528587,None,,,,,,,,,,,,,,,,,,,,,,,,nback75,1.0,2024-01-30_12h16.59.453,untitled,2023.2.3,60.13807701205524,2024-01-30 12h49.58.197975 -0500,
1.0,"[-0.64, 0.4]",None,,,,,0.0,23.0,23.0,23.0,,,,,1800.1108443001283,,,,,,,,,,,,,,,,,,,,,,,,,,,,,,,,,,,,,,,,,,,,,,,1800.0961140000727,1800.1108443001283,1800.1108443001283,1800.6109661001246,1800.6109661001246,1803.1108413001057,1803.1108413001057,1803.0948769000825,None,1.0,,,,,,,,,,,,,,,,,,,,,,,,,,nback75,1.0,2024-01-30_12h16.59.453,untitled,2023.2.3,60.13807701205524,2024-01-30 12h49.58.197975 -0500,
3.0,"[0, 0.2]",None,,,,,0.0,24.0,24.0,24.0,,,,,1803.1108413001057,,,,,,,,,,,,,,,,,,,,,,,,,,,,,,,,,,,,,,,,,,,,,,,1803.0955986001063,1803.1108413001057,1803.1108413001057,1803.610666600056,1803.610666600056,1806.1107576000504,1806.1107576000504,1806.095055000158,None,1.0,,,,,,,,,,,,,,,,,,,,,,,,,,nback75,1.0,2024-01-30_12h16.59.453,untitled,2023.2.3,60.13807701205524,2024-01-30 12h49.58.197975 -0500,
6.0,"[-0.3, 0]",None,,,,,0.0,25.0,25.0,25.0,,,,,1806.1107576000504,,,,,,,,,,,,,,,,,,,,,,,,,,,,,,,,,,,,,,,,,,,,,,,1806.0958337001505,1806.1107576000504,1806.1107576000504,1806.610901000211,1806.610901000211,1809.1107668001205,1809.1107668001205,1809.0949971000664,None,1.0,,,,,,,,,,,,,,,,,,,,,,,,,,nback75,1.0,2024-01-30_12h16.59.453,untitled,2023.2.3,60.13807701205524,2024-01-30 12h49.58.197975 -0500,
1.0,"[-0.64, 0.4]",None,,,,,0.0,26.0,26.0,26.0,,,,,1809.1107668001205,,,,,,,,,,,,,,,,,,,,,,,,,,,,,,,,,,,,,,,,,,,,,,,1809.0958586002237,1809.1107668001205,1809.1107668001205,1809.610667600064,1809.610667600064,1812.1105944002047,1812.1105944002047,1812.0949770000295,None,1.0,,,,,,,,,,,,,,,,,,,,,,,,,,nback75,1.0,2024-01-30_12h16.59.453,untitled,2023.2.3,60.13807701205524,2024-01-30 12h49.58.197975 -0500,
1.0,"[-0.64, 0.4]",space,,,,,0.0,27.0,27.0,27.0,,,,,1812.1105944002047,,,,,,,,,,,,,,,,,,,,,,,,,,,,,,,,,,,,,,,,,,,,,,,1812.0957017000765,1812.1105944002047,1812.1105944002047,1812.6105821002277,1812.6105821002277,1815.1104143999985,1815.1104143999985,1815.0945137001108,space,1.0,0.4737228001467883,None,,,,,,,,,,,,,,,,,,,,,,,,nback75,1.0,2024-01-30_12h16.59.453,untitled,2023.2.3,60.13807701205524,2024-01-30 12h49.58.197975 -0500,
1.0,"[-0.64, 0.4]",space,,,,,0.0,28.0,28.0,28.0,,,,,1815.1104143999985,,,,,,,,,,,,,,,,,,,,,,,,,,,,,,,,,,,,,,,,,,,,,,,1815.0952612000983,1815.1104143999985,1815.1104143999985,1815.610437300056,1815.610437300056,1818.110463500023,1818.110463500023,1818.09487790009,space,1.0,0.5598971999716014,None,,,,,,,,,,,,,,,,,,,,,,,,nback75,1.0,2024-01-30_12h16.59.453,untitled,2023.2.3,60.13807701205524,2024-01-30 12h49.58.197975 -0500,
3.0,"[0, 0.2]",None,,,,,0.0,29.0,29.0,29.0,,,,,1818.110463500023,,,,,,,,,,,,,,,,,,,,,,,,,,,,,,,,,,,,,,,,,,,,,,,1818.0959496002176,1818.110463500023,1818.110463500023,1818.6105240001343,1818.6105240001343,1821.1106654000469,1821.1106654000469,1821.095015900209,None,1.0,,,,,,,,,,,,,,,,,,,,,,,,,,nback75,1.0,2024-01-30_12h16.59.453,untitled,2023.2.3,60.13807701205524,2024-01-30 12h49.58.197975 -0500,
12.0,"[0.64, -0.4]",None,,,,,0.0,30.0,30.0,30.0,,,,,1821.1106654000469,,,,,,,,,,,,,,,,,,,,,,,,,,,,,,,,,,,,,,,,,,,,,,,1821.0958531000647,1821.1106654000469,1821.1106654000469,1821.6105130000503,1821.6105130000503,1824.11042030016,1824.11042030016,1824.0946360002272,None,1.0,,,,,,,,,,,,,,,,,,,,,,,,,,nback75,1.0,2024-01-30_12h16.59.453,untitled,2023.2.3,60.13807701205524,2024-01-30 12h49.58.197975 -0500,
12.0,"[0.64, -0.4]",space,,,,,0.0,31.0,31.0,31.0,,,,,1824.11042030016,,,,,,,,,,,,,,,,,,,,,,,,,,,,,,,,,,,,,,,,,,,,,,,1824.0955405000127,1824.11042030016,1824.11042030016,1824.610481900163,1824.610481900163,1827.1103125000373,1827.1103125000373,1827.094727100106,space,1.0,0.3876356000546366,None,,,,,,,,,,,,,,,,,,,,,,,,nback75,1.0,2024-01-30_12h16.59.453,untitled,2023.2.3,60.13807701205524,2024-01-30 12h49.58.197975 -0500,
2.0,"[0.64, 0.4]",None,,,,,0.0,32.0,32.0,32.0,,,,,1827.1103125000373,,,,,,,,,,,,,,,,,,,,,,,,,,,,,,,,,,,,,,,,,,,,,,,1827.0957320001908,1827.1103125000373,1827.1103125000373,1827.6102173000108,1827.6102173000108,1830.110540600028,1830.110540600028,1830.0948331002144,None,1.0,,,,,,,,,,,,,,,,,,,,,,,,,,nback75,1.0,2024-01-30_12h16.59.453,untitled,2023.2.3,60.13807701205524,2024-01-30 12h49.58.197975 -0500,
1.0,"[-0.64, 0.4]",None,,,,,0.0,33.0,33.0,33.0,,,,,1830.110540600028,,,,,,,,,,,,,,,,,,,,,,,,,,,,,,,,,,,,,,,,,,,,,,,1830.0956727000885,1830.110540600028,1830.110540600028,1830.6103443000463,1830.6103443000463,1833.1100600000937,1833.1100600000937,1833.0942403001245,None,1.0,,,,,,,,,,,,,,,,,,,,,,,,,,nback75,1.0,2024-01-30_12h16.59.453,untitled,2023.2.3,60.13807701205524,2024-01-30 12h49.58.197975 -0500,
7.0,"[0.3, 0]",None,,,,,0.0,34.0,34.0,34.0,,,,,1833.1100600000937,,,,,,,,,,,,,,,,,,,,,,,,,,,,,,,,,,,,,,,,,,,,,,,1833.094825200038,1833.1100600000937,1833.1100600000937,1833.6102060000408,1833.6102060000408,1836.1103241001256,1836.1103241001256,1836.0946281000504,None,1.0,,,,,,,,,,,,,,,,,,,,,,,,,,nback75,1.0,2024-01-30_12h16.59.453,untitled,2023.2.3,60.13807701205524,2024-01-30 12h49.58.197975 -0500,
7.0,"[0.3, 0]",space,,,,,0.0,35.0,35.0,35.0,,,,,1836.1103241001256,,,,,,,,,,,,,,,,,,,,,,,,,,,,,,,,,,,,,,,,,,,,,,,1836.095426700078,1836.1103241001256,1836.1103241001256,1836.6102584002076,1836.6102584002076,1839.1102515000384,1839.1102515000384,1839.094366100151,space,1.0,0.4401534998323768,None,,,,,,,,,,,,,,,,,,,,,,,,nback75,1.0,2024-01-30_12h16.59.453,untitled,2023.2.3,60.13807701205524,2024-01-30 12h49.58.197975 -0500,
11.0,"[-0.64, -0.4]",None,,,,,0.0,36.0,36.0,36.0,,,,,1839.1102515000384,,,,,,,,,,,,,,,,,,,,,,,,,,,,,,,,,,,,,,,,,,,,,,,1839.0952140002048,1839.1102515000384,1839.1102515000384,1839.6099690000992,1839.6099690000992,1842.1100553001745,1842.1100553001745,1842.0941269001924,None,1.0,,,,,,,,,,,,,,,,,,,,,,,,,,nback75,1.0,2024-01-30_12h16.59.453,untitled,2023.2.3,60.13807701205524,2024-01-30 12h49.58.197975 -0500,
2.0,"[0.64, 0.4]",None,,,,,0.0,37.0,37.0,37.0,,,,,1842.1100553001745,,,,,,,,,,,,,,,,,,,,,,,,,,,,,,,,,,,,,,,,,,,,,,,1842.09480800014,1842.1100553001745,1842.1100553001745,1842.6100908000956,1842.6100908000956,1845.10996430018,1845.10996430018,1845.094293600181,None,1.0,,,,,,,,,,,,,,,,,,,,,,,,,,nback75,1.0,2024-01-30_12h16.59.453,untitled,2023.2.3,60.13807701205524,2024-01-30 12h49.58.197975 -0500,
6.0,"[-0.3, 0]",None,,,,,0.0,38.0,38.0,38.0,,,,,1845.10996430018,,,,,,,,,,,,,,,,,,,,,,,,,,,,,,,,,,,,,,,,,,,,,,,1845.0950891000684,1845.10996430018,1845.10996430018,1845.6100676001515,1845.6100676001515,1848.110082600033,1848.110082600033,1848.0945127001032,None,1.0,,,,,,,,,,,,,,,,,,,,,,,,,,nback75,1.0,2024-01-30_12h16.59.453,untitled,2023.2.3,60.13807701205524,2024-01-30 12h49.58.197975 -0500,
10.0,"[0, -0.2]",None,,,,,0.0,39.0,39.0,39.0,,,,,1848.110082600033,,,,,,,,,,,,,,,,,,,,,,,,,,,,,,,,,,,,,,,,,,,,,,,1848.0952911002096,1848.110082600033,1848.110082600033,1848.6100145000964,1848.6100145000964,1851.1101171001792,1851.1101171001792,1851.0942177001853,None,1.0,,,,,,,,,,,,,,,,,,,,,,,,,,nback75,1.0,2024-01-30_12h16.59.453,untitled,2023.2.3,60.13807701205524,2024-01-30 12h49.58.197975 -0500,
,,,,,,,,,,,,,,,,,,,,,,,,,,,,,,,,,,,,,,,,,,,,,,,,,,,,,,,,,,,,,,,,,,,,,,,,,,1851.0946933000812,1851.1101171001792,1851.1101171001792,1879.7611645001448,space,28.6418921998702,None,,,,,,,,,,,,,,,,,nback75,1.0,2024-01-30_12h16.59.453,untitled,2023.2.3,60.13807701205524,2024-01-30 12h49.58.197975 -0500,
,"[0.2, 0.1]",None,,,,,,,,,0.0,0.0,0.0,0.0,1880.776021900121,,,,,,,,,,,,,,,,,,,,,,,,1879.761211200152,1879.7759689001832,1880.776021900121,1880.7602393000848,,,,,,,,,,,,,,,,,,,,,,,,,,,,,,,,,,,,,,,1880.769173500128,1880.776021900121,1880.776021900121,1881.2761460000183,1881.2761460000183,1883.776009100024,1883.776009100024,1883.760202200152,None,1.0,,,,,,,nback75,1.0,2024-01-30_12h16.59.453,untitled,2023.2.3,60.13807701205524,2024-01-30 12h49.58.197975 -0500,
,"[0.64, 0.4]",None,,,,,,,,,0.0,1.0,1.0,1.0,1883.776009100024,,,,,,,,,,,,,,,,,,,,,,,,,,,,,,,,,,,,,,,,,,,,,,,,,,,,,,,,,,,,,,,,,,1883.7611776001288,1883.776009100024,1883.776009100024,1884.2761303000152,1884.2761303000152,1886.7759750001128,1886.7759750001128,1886.7600611001253,None,1.0,,,,,,,nback75,1.0,2024-01-30_12h16.59.453,untitled,2023.2.3,60.13807701205524,2024-01-30 12h49.58.197975 -0500,
,"[-0.3, 0]",None,,,,,,,,,0.0,2.0,2.0,2.0,1886.7759750001128,,,,,,,,,,,,,,,,,,,,,,,,,,,,,,,,,,,,,,,,,,,,,,,,,,,,,,,,,,,,,,,,,,1886.7606313000435,1886.7759750001128,1886.7759750001128,1887.2761521001808,1887.2761521001808,1889.7760151000691,1889.7760151000691,1889.7600563000888,None,1.0,,,,,,,nback75,1.0,2024-01-30_12h16.59.453,untitled,2023.2.3,60.13807701205524,2024-01-30 12h49.58.197975 -0500,
,"[0.2, -0.1]",None,,,,,,,,,0.0,3.0,3.0,3.0,1889.7760151000691,,,,,,,,,,,,,,,,,,,,,,,,,,,,,,,,,,,,,,,,,,,,,,,,,,,,,,,,,,,,,,,,,,1889.760780000128,1889.7760151000691,1889.7760151000691,1890.2759626000188,1890.2759626000188,1892.775859500049,1892.775859500049,1892.759985400131,None,1.0,,,,,,,nback75,1.0,2024-01-30_12h16.59.453,untitled,2023.2.3,60.13807701205524,2024-01-30 12h49.58.197975 -0500,
,"[0, 0.2]",None,,,,,,,,,0.0,4.0,4.0,4.0,1892.775859500049,,,,,,,,,,,,,,,,,,,,,,,,,,,,,,,,,,,,,,,,,,,,,,,,,,,,,,,,,,,,,,,,,,1892.760767800035,1892.775859500049,1892.775859500049,1893.275866100099,1893.275866100099,1895.7757732002065,1895.7757732002065,1895.7599436000453,None,1.0,,,,,,,nback75,1.0,2024-01-30_12h16.59.453,untitled,2023.2.3,60.13807701205524,2024-01-30 12h49.58.197975 -0500,
,"[0.2, -0.1]",space,,,,,,,,,0.0,5.0,5.0,5.0,1895.7757732002065,,,,,,,,,,,,,,,,,,,,,,,,,,,,,,,,,,,,,,,,,,,,,,,,,,,,,,,,,,,,,,,,,,1895.7606230000963,1895.7757732002065,1895.7757732002065,1896.275925300084,1896.275925300084,1898.7758457001764,1898.7758457001764,1898.7599379001183,space,1.0,0.5010036998428404,None,,,,,nback75,1.0,2024-01-30_12h16.59.453,untitled,2023.2.3,60.13807701205524,2024-01-30 12h49.58.197975 -0500,
,"[0, -0.2]",None,,,,,,,,,0.0,6.0,6.0,6.0,1898.7758457001764,,,,,,,,,,,,,,,,,,,,,,,,,,,,,,,,,,,,,,,,,,,,,,,,,,,,,,,,,,,,,,,,,,1898.7609436002092,1898.7758457001764,1898.7758457001764,1899.276025900152,1899.276025900152,1901.77574650012,1901.77574650012,1901.7597861001268,None,1.0,,,,,,,nback75,1.0,2024-01-30_12h16.59.453,untitled,2023.2.3,60.13807701205524,2024-01-30 12h49.58.197975 -0500,
,"[0.64, -0.4]",None,,,,,,,,,0.0,7.0,7.0,7.0,1901.77574650012,,,,,,,,,,,,,,,,,,,,,,,,,,,,,,,,,,,,,,,,,,,,,,,,,,,,,,,,,,,,,,,,,,1901.760435700184,1901.77574650012,1901.77574650012,1902.2757476000115,1902.2757476000115,1904.7756294000428,1904.7756294000428,1904.7598145001105,None,1.0,,,,,,,nback75,1.0,2024-01-30_12h16.59.453,untitled,2023.2.3,60.13807701205524,2024-01-30 12h49.58.197975 -0500,
,"[0.3, 0]",None,,,,,,,,,0.0,8.0,8.0,8.0,1904.7756294000428,,,,,,,,,,,,,,,,,,,,,,,,,,,,,,,,,,,,,,,,,,,,,,,,,,,,,,,,,,,,,,,,,,1904.760488,1904.7756294000428,1904.7756294000428,1905.2756239001171,1905.2756239001171,1907.775527200196,1907.775527200196,1907.7593563001135,None,1.0,,,,,,,nback75,1.0,2024-01-30_12h16.59.453,untitled,2023.2.3,60.13807701205524,2024-01-30 12h49.58.197975 -0500,
,"[0.64, -0.4]",space,,,,,,,,,0.0,9.0,9.0,9.0,1907.775527200196,,,,,,,,,,,,,,,,,,,,,,,,,,,,,,,,,,,,,,,,,,,,,,,,,,,,,,,,,,,,,,,,,,1907.7598860000728,1907.775527200196,1907.775527200196,1908.2757279002108,1908.2757279002108,1910.7755872001871,1910.7755872001871,1910.759195200168,space,1.0,0.3428523000329733,None,,,,,nback75,1.0,2024-01-30_12h16.59.453,untitled,2023.2.3,60.13807701205524,2024-01-30 12h49.58.197975 -0500,
,"[-0.64, 0.4]",None,,,,,,,,,0.0,10.0,10.0,10.0,1910.7755872001871,,,,,,,,,,,,,,,,,,,,,,,,,,,,,,,,,,,,,,,,,,,,,,,,,,,,,,,,,,,,,,,,,,1910.759589600144,1910.7755872001871,1910.7755872001871,1911.275676800171,1911.275676800171,1913.7754891000225,1913.7754891000225,1913.7595056002028,None,1.0,,,,,,,nback75,1.0,2024-01-30_12h16.59.453,untitled,2023.2.3,60.13807701205524,2024-01-30 12h49.58.197975 -0500,
,"[0.2, 0.1]",None,,,,,,,,,0.0,11.0,11.0,11.0,1913.7754891000225,,,,,,,,,,,,,,,,,,,,,,,,,,,,,,,,,,,,,,,,,,,,,,,,,,,,,,,,,,,,,,,,,,1913.7601925001943,1913.7754891000225,1913.7754891000225,1914.2754888001364,1914.2754888001364,1916.7755216001533,1916.7755216001533,1916.7599932001904,space,0.0,1.0443549999035897,None,,,,,nback75,1.0,2024-01-30_12h16.59.453,untitled,2023.2.3,60.13807701205524,2024-01-30 12h49.58.197975 -0500,
,"[0.3, 0]",None,,,,,,,,,0.0,12.0,12.0,12.0,1916.7755216001533,,,,,,,,,,,,,,,,,,,,,,,,,,,,,,,,,,,,,,,,,,,,,,,,,,,,,,,,,,,,,,,,,,1916.761089700041,1916.7755216001533,1916.7755216001533,1917.275640600128,1917.275640600128,1919.7753395000475,1919.7753395000475,1919.7599031000864,None,1.0,,,,,,,nback75,1.0,2024-01-30_12h16.59.453,untitled,2023.2.3,60.13807701205524,2024-01-30 12h49.58.197975 -0500,
,"[0.2, 0.1]",space,,,,,,,,,0.0,13.0,13.0,13.0,1919.7753395000475,,,,,,,,,,,,,,,,,,,,,,,,,,,,,,,,,,,,,,,,,,,,,,,,,,,,,,,,,,,,,,,,,,1919.7607917001003,1919.7753395000475,1919.7753395000475,1920.27538700006,1920.27538700006,1922.7751378000248,1922.7751378000248,1922.7589808001649,None,0.0,,,,,,,nback75,1.0,2024-01-30_12h16.59.453,untitled,2023.2.3,60.13807701205524,2024-01-30 12h49.58.197975 -0500,
,"[-0.3, 0]",None,,,,,,,,,0.0,14.0,14.0,14.0,1922.7751378000248,,,,,,,,,,,,,,,,,,,,,,,,,,,,,,,,,,,,,,,,,,,,,,,,,,,,,,,,,,,,,,,,,,1922.759303300176,1922.7751378000248,1922.7751378000248,1923.2752708001065,1923.2752708001065,1925.775243100012,1925.775243100012,1925.759524600115,None,1.0,,,,,,,nback75,1.0,2024-01-30_12h16.59.453,untitled,2023.2.3,60.13807701205524,2024-01-30 12h49.58.197975 -0500,
,"[0, 0.2]",None,,,,,,,,,0.0,15.0,15.0,15.0,1925.775243100012,,,,,,,,,,,,,,,,,,,,,,,,,,,,,,,,,,,,,,,,,,,,,,,,,,,,,,,,,,,,,,,,,,1925.7602844000796,1925.775243100012,1925.775243100012,1926.275396500016,1926.275396500016,1928.775225200225,1928.775225200225,1928.7592910001983,None,1.0,,,,,,,nback75,1.0,2024-01-30_12h16.59.453,untitled,2023.2.3,60.13807701205524,2024-01-30 12h49.58.197975 -0500,
,"[-0.3, 0]",space,,,,,,,,,0.0,16.0,16.0,16.0,1928.775225200225,,,,,,,,,,,,,,,,,,,,,,,,,,,,,,,,,,,,,,,,,,,,,,,,,,,,,,,,,,,,,,,,,,1928.7599508001003,1928.775225200225,1928.775225200225,1929.2754045000763,1929.2754045000763,1931.775203500176,1931.775203500176,1931.7597189000808,None,0.0,,,,,,,nback75,1.0,2024-01-30_12h16.59.453,untitled,2023.2.3,60.13807701205524,2024-01-30 12h49.58.197975 -0500,
,"[-0.64, -0.4]",None,,,,,,,,,0.0,17.0,17.0,17.0,1931.775203500176,,,,,,,,,,,,,,,,,,,,,,,,,,,,,,,,,,,,,,,,,,,,,,,,,,,,,,,,,,,,,,,,,,1931.76049110014,1931.775203500176,1931.775203500176,1932.2752724001184,1932.2752724001184,1934.7752474001609,1934.7752474001609,1934.7594254000576,None,1.0,,,,,,,nback75,1.0,2024-01-30_12h16.59.453,untitled,2023.2.3,60.13807701205524,2024-01-30 12h49.58.197975 -0500,
,"[-0.2, -0.1]",None,,,,,,,,,0.0,18.0,18.0,18.0,1934.7752474001609,,,,,,,,,,,,,,,,,,,,,,,,,,,,,,,,,,,,,,,,,,,,,,,,,,,,,,,,,,,,,,,,,,1934.7602554000916,1934.7752474001609,1934.7752474001609,1935.2751517000145,1935.2751517000145,1937.7751827000172,1937.7751827000172,1937.7592309000904,None,1.0,,,,,,,nback75,1.0,2024-01-30_12h16.59.453,untitled,2023.2.3,60.13807701205524,2024-01-30 12h49.58.197975 -0500,
,"[0.2, -0.1]",None,,,,,,,,,0.0,19.0,19.0,19.0,1937.7751827000172,,,,,,,,,,,,,,,,,,,,,,,,,,,,,,,,,,,,,,,,,,,,,,,,,,,,,,,,,,,,,,,,,,1937.7599120000375,1937.7751827000172,1937.7751827000172,1938.275244000135,1938.275244000135,1940.7751563000493,1940.7751563000493,1940.7594865001736,None,1.0,,,,,,,nback75,1.0,2024-01-30_12h16.59.453,untitled,2023.2.3,60.13807701205524,2024-01-30 12h49.58.197975 -0500,
,"[0.2, -0.1]",None,,,,,,,,,0.0,20.0,20.0,20.0,1940.7751563000493,,,,,,,,,,,,,,,,,,,,,,,,,,,,,,,,,,,,,,,,,,,,,,,,,,,,,,,,,,,,,,,,,,1940.7602832000705,1940.7751563000493,1940.7751563000493,1941.2751164000947,1941.2751164000947,1943.7750605000183,1943.7750605000183,1943.7593482001685,None,1.0,,,,,,,nback75,1.0,2024-01-30_12h16.59.453,untitled,2023.2.3,60.13807701205524,2024-01-30 12h49.58.197975 -0500,
,"[-0.64, 0.4]",None,,,,,,,,,0.0,21.0,21.0,21.0,1943.7750605000183,,,,,,,,,,,,,,,,,,,,,,,,,,,,,,,,,,,,,,,,,,,,,,,,,,,,,,,,,,,,,,,,,,1943.7601916000715,1943.7750605000183,1943.7750605000183,1944.275133000221,1944.275133000221,1946.7747568001505,1946.7747568001505,1946.7587401000785,None,1.0,,,,,,,nback75,1.0,2024-01-30_12h16.59.453,untitled,2023.2.3,60.13807701205524,2024-01-30 12h49.58.197975 -0500,
,"[0, 0.2]",None,,,,,,,,,0.0,22.0,22.0,22.0,1946.7747568001505,,,,,,,,,,,,,,,,,,,,,,,,,,,,,,,,,,,,,,,,,,,,,,,,,,,,,,,,,,,,,,,,,,1946.7590537001377,1946.7747568001505,1946.7747568001505,1947.2750480000395,1947.2750480000395,1949.77494370006,1949.77494370006,1949.75912780012,None,1.0,,,,,,,nback75,1.0,2024-01-30_12h16.59.453,untitled,2023.2.3,60.13807701205524,2024-01-30 12h49.58.197975 -0500,
,"[0.64, -0.4]",None,,,,,,,,,0.0,23.0,23.0,23.0,1949.77494370006,,,,,,,,,,,,,,,,,,,,,,,,,,,,,,,,,,,,,,,,,,,,,,,,,,,,,,,,,,,,,,,,,,1949.7598730002064,1949.77494370006,1949.77494370006,1950.274908900028,1950.274908900028,1952.7749206000008,1952.7749206000008,1952.759099600138,None,1.0,,,,,,,nback75,1.0,2024-01-30_12h16.59.453,untitled,2023.2.3,60.13807701205524,2024-01-30 12h49.58.197975 -0500,
,"[0, 0.2]",space,,,,,,,,,0.0,24.0,24.0,24.0,1952.7749206000008,,,,,,,,,,,,,,,,,,,,,,,,,,,,,,,,,,,,,,,,,,,,,,,,,,,,,,,,,,,,,,,,,,1952.7598280000968,1952.7749206000008,1952.7749206000008,1953.2747067001185,1953.2747067001185,1955.7747110000344,1955.7747110000344,1955.759242300177,space,1.0,0.4337243000045419,None,,,,,nback75,1.0,2024-01-30_12h16.59.453,untitled,2023.2.3,60.13807701205524,2024-01-30 12h49.58.197975 -0500,
,"[-0.2, 0.1]",None,,,,,,,,,0.0,25.0,25.0,25.0,1955.7747110000344,,,,,,,,,,,,,,,,,,,,,,,,,,,,,,,,,,,,,,,,,,,,,,,,,,,,,,,,,,,,,,,,,,1955.7600703001956,1955.7747110000344,1955.7747110000344,1956.2749336001,1956.2749336001,1958.7747220001183,1958.7747220001183,1958.758829400176,None,1.0,,,,,,,nback75,1.0,2024-01-30_12h16.59.453,untitled,2023.2.3,60.13807701205524,2024-01-30 12h49.58.197975 -0500,
,"[0.3, 0]",None,,,,,,,,,0.0,26.0,26.0,26.0,1958.7747220001183,,,,,,,,,,,,,,,,,,,,,,,,,,,,,,,,,,,,,,,,,,,,,,,,,,,,,,,,,,,,,,,,,,1958.7595358002,1958.7747220001183,1958.7747220001183,1959.2748059001751,1959.2748059001751,1961.7747751001732,1961.7747751001732,1961.7589253000915,None,1.0,,,,,,,nback75,1.0,2024-01-30_12h16.59.453,untitled,2023.2.3,60.13807701205524,2024-01-30 12h49.58.197975 -0500,
,"[-0.2, 0.1]",space,,,,,,,,,0.0,27.0,27.0,27.0,1961.7747751001732,,,,,,,,,,,,,,,,,,,,,,,,,,,,,,,,,,,,,,,,,,,,,,,,,,,,,,,,,,,,,,,,,,1961.759699800052,1961.7747751001732,1961.7747751001732,1962.2748897001147,1962.2748897001147,1964.7744817000348,1964.7744817000348,1964.759112900123,space,1.0,0.4135999998543411,None,,,,,nback75,1.0,2024-01-30_12h16.59.453,untitled,2023.2.3,60.13807701205524,2024-01-30 12h49.58.197975 -0500,
,"[-0.2, 0.1]",None,,,,,,,,,0.0,28.0,28.0,28.0,1964.7744817000348,,,,,,,,,,,,,,,,,,,,,,,,,,,,,,,,,,,,,,,,,,,,,,,,,,,,,,,,,,,,,,,,,,1964.760059300112,1964.7744817000348,1964.7744817000348,1965.2745522002224,1965.2745522002224,1967.774724900024,1967.774724900024,1967.759088700172,space,0.0,1.771089900052175,None,,,,,nback75,1.0,2024-01-30_12h16.59.453,untitled,2023.2.3,60.13807701205524,2024-01-30 12h49.58.197975 -0500,
,"[0.2, 0.1]",None,,,,,,,,,0.0,29.0,29.0,29.0,1967.774724900024,,,,,,,,,,,,,,,,,,,,,,,,,,,,,,,,,,,,,,,,,,,,,,,,,,,,,,,,,,,,,,,,,,1967.76008880022,1967.774724900024,1967.774724900024,1968.2744071001653,1968.2744071001653,1970.7745476001876,1970.7745476001876,1970.758746800013,None,1.0,,,,,,,nback75,1.0,2024-01-30_12h16.59.453,untitled,2023.2.3,60.13807701205524,2024-01-30 12h49.58.197975 -0500,
,"[-0.64, -0.4]",None,,,,,,,,,0.0,30.0,30.0,30.0,1970.7745476001876,,,,,,,,,,,,,,,,,,,,,,,,,,,,,,,,,,,,,,,,,,,,,,,,,,,,,,,,,,,,,,,,,,1970.759494400117,1970.7745476001876,1970.7745476001876,1971.2743390002288,1971.2743390002288,1973.77450470021,1973.77450470021,1973.758734300034,None,1.0,,,,,,,nback75,1.0,2024-01-30_12h16.59.453,untitled,2023.2.3,60.13807701205524,2024-01-30 12h49.58.197975 -0500,
,"[0, -0.2]",None,,,,,,,,,0.0,31.0,31.0,31.0,1973.77450470021,,,,,,,,,,,,,,,,,,,,,,,,,,,,,,,,,,,,,,,,,,,,,,,,,,,,,,,,,,,,,,,,,,1973.7596712000668,1973.77450470021,1973.77450470021,1974.2744788001287,1974.2744788001287,1976.7744335001332,1976.7744335001332,1976.7585289001,None,1.0,,,,,,,nback75,1.0,2024-01-30_12h16.59.453,untitled,2023.2.3,60.13807701205524,2024-01-30 12h49.58.197975 -0500,
,"[-0.64, -0.4]",space,,,,,,,,,0.0,32.0,32.0,32.0,1976.7744335001332,,,,,,,,,,,,,,,,,,,,,,,,,,,,,,,,,,,,,,,,,,,,,,,,,,,,,,,,,,,,,,,,,,1976.7592013000976,1976.7744335001332,1976.7744335001332,1977.2743564001285,1977.2743564001285,1979.774355300004,1979.774355300004,1979.7588523000013,space,1.0,0.4641560998279601,None,,,,,nback75,1.0,2024-01-30_12h16.59.453,untitled,2023.2.3,60.13807701205524,2024-01-30 12h49.58.197975 -0500,
,"[0.64, 0.4]",None,,,,,,,,,0.0,33.0,33.0,33.0,1979.774355300004,,,,,,,,,,,,,,,,,,,,,,,,,,,,,,,,,,,,,,,,,,,,,,,,,,,,,,,,,,,,,,,,,,1979.75989570003,1979.774355300004,1979.774355300004,1980.274590600049,1980.274590600049,1982.7744177000127,1982.7744177000127,1982.7586325001903,None,1.0,,,,,,,nback75,1.0,2024-01-30_12h16.59.453,untitled,2023.2.3,60.13807701205524,2024-01-30 12h49.58.197975 -0500,
,"[-0.3, 0]",None,,,,,,,,,0.0,34.0,34.0,34.0,1982.7744177000127,,,,,,,,,,,,,,,,,,,,,,,,,,,,,,,,,,,,,,,,,,,,,,,,,,,,,,,,,,,,,,,,,,1982.759398700204,1982.7744177000127,1982.7744177000127,1983.274222300155,1983.274222300155,1985.7741983002047,1985.7741983002047,1985.7584826000968,None,1.0,,,,,,,nback75,1.0,2024-01-30_12h16.59.453,untitled,2023.2.3,60.13807701205524,2024-01-30 12h49.58.197975 -0500,
,"[0.3, 0]",None,,,,,,,,,0.0,35.0,35.0,35.0,1985.7741983002047,,,,,,,,,,,,,,,,,,,,,,,,,,,,,,,,,,,,,,,,,,,,,,,,,,,,,,,,,,,,,,,,,,1985.7592861000448,1985.7741983002047,1985.7741983002047,1986.2741644000637,1986.2741644000637,1988.774197500199,1988.774197500199,1988.7585080000567,None,1.0,,,,,,,nback75,1.0,2024-01-30_12h16.59.453,untitled,2023.2.3,60.13807701205524,2024-01-30 12h49.58.197975 -0500,
,"[-0.3, 0]",space,,,,,,,,,0.0,36.0,36.0,36.0,1988.774197500199,,,,,,,,,,,,,,,,,,,,,,,,,,,,,,,,,,,,,,,,,,,,,,,,,,,,,,,,,,,,,,,,,,1988.7592647001147,1988.774197500199,1988.774197500199,1989.2742843001613,1989.2742843001613,1991.7740683001464,1991.7740683001464,1991.75823580008,space,1.0,0.5730111999437213,None,,,,,nback75,1.0,2024-01-30_12h16.59.453,untitled,2023.2.3,60.13807701205524,2024-01-30 12h49.58.197975 -0500,
,"[0, -0.2]",None,,,,,,,,,0.0,37.0,37.0,37.0,1991.7740683001464,,,,,,,,,,,,,,,,,,,,,,,,,,,,,,,,,,,,,,,,,,,,,,,,,,,,,,,,,,,,,,,,,,1991.7589863000903,1991.7740683001464,1991.7740683001464,1992.2740897000767,1992.2740897000767,1994.774216100108,1994.774216100108,1994.7582994000984,None,1.0,,,,,,,nback75,1.0,2024-01-30_12h16.59.453,untitled,2023.2.3,60.13807701205524,2024-01-30 12h49.58.197975 -0500,
,"[0.3, 0]",None,,,,,,,,,0.0,38.0,38.0,38.0,1994.774216100108,,,,,,,,,,,,,,,,,,,,,,,,,,,,,,,,,,,,,,,,,,,,,,,,,,,,,,,,,,,,,,,,,,1994.759140800219,1994.774216100108,1994.774216100108,1995.274147100048,1995.274147100048,1997.7740778001023,1997.7740778001023,1997.7583531001585,None,1.0,,,,,,,nback75,1.0,2024-01-30_12h16.59.453,untitled,2023.2.3,60.13807701205524,2024-01-30 12h49.58.197975 -0500,
,"[0.2, 0.1]",None,,,,,,,,,0.0,39.0,39.0,39.0,1997.7740778001023,,,,,,,,,,,,,,,,,,,,,,,,,,,,,,,,,,,,,,,,,,,,,,,,,,,,,,,,,,,,,,,,,,1997.759553600103,1997.7740778001023,1997.7740778001023,1998.2740202001296,1998.2740202001296,2000.774067900144,2000.774067900144,2000.7581426000688,None,1.0,,,,,,,nback75,1.0,2024-01-30_12h16.59.453,untitled,2023.2.3,60.13807701205524,2024-01-30 12h49.58.197975 -0500,
,,,,,,,,,,,,,,,,,,,,,,,,,,,,,,,,,,,,,,,,,,,,,,,,,,,,,,,,,,,,,,,,,,,,,,,,,,,,,,,,,,,,,,,,,,,,,2000.758519800147,2000.774067900144,2003.773954700213,2003.758294200059,,,,,,,,
