square,location,corrAns,trials_0.thisRepN,trials_0.thisTrialN,trials_0.thisN,trials_0.thisIndex,trials_1.thisRepN,trials_1.thisTrialN,trials_1.thisN,trials_1.thisIndex,trials_2.thisRepN,trials_2.thisTrialN,trials_2.thisN,trials_2.thisIndex,thisRow.t,notes,Instructions.started,instructions.started,key_resp.started,inst_sq11.started,Instructions.stopped,key_resp.keys,key_resp.rt,key_resp.duration,All.started,sq_1.started,sq_2.started,sq_3.started,sq_4.started,sq_5.started,sq_6.started,sq_7.started,sq_8.started,sq_9.started,sq_10.started,sq_11.started,sq_12.started,All.stopped,Fixation.started,fixation_3.started,fixation_3.stopped,Fixation.stopped,N_back_0_Trial.started,target_square_0.started,response_0.started,fixation_0.started,target_square_0.stopped,fixation_0.stopped,N_back_0_Trial.stopped,response_0.keys,response_0.corr,response_0.rt,response_0.duration,Instructions_1.started,instructions_1.started,key_resp_1.started,Instructions_1.stopped,key_resp_1.keys,key_resp_1.rt,key_resp_1.duration,N_back_1_Trial.started,target_square_1.started,response_1.started,fixation_1.started,target_square_1.stopped,fixation_1.stopped,N_back_1_Trial.stopped,response_1.keys,response_1.corr,response_1.rt,response_1.duration,Instructions_2.started,instructions_2.started,key_resp_2.started,Instructions_2.stopped,key_resp_2.keys,key_resp_2.rt,key_resp_2.duration,N_back_2_trials.started,target_square_2.started,response_2.started,fixation_2.started,target_square_2.stopped,fixation_2.stopped,N_back_2_trials.stopped,response_2.keys,response_2.corr,response_2.rt,response_2.duration,End.started,thank_you.started,End.stopped,participant,session,date,expName,psychopyVersion,frameRate,expStart,Unnamed: 100
,,,,,,,,,,,,,,,,,0.0015452000079676,0.0042553000093903,0.0042553000093903,0.0042553000093903,3192.763691900007,space,3192.753652899992,None,,,,,,,,,,,,,,,,,,,,,,,,,,,,,,,,,,,,,,,,,,,,,,,,,,,,,,,,,,,,,,,,,,,,,nback61,1.0,2024-01-19_09h53.51.036,untitled,2023.2.3,59.930193309526736,2024-01-19 09h54.45.882577 -0500,
6.0,"[-0.3, 0]",None,0.0,0.0,0.0,0.0,,,,,,,,,3194.783503600018,,,,,,,,,,3192.7637228000094,3192.779013899999,3192.779013899999,3192.779013899999,3192.779013899999,3192.779013899999,3192.779013899999,3192.779013899999,3192.779013899999,3192.779013899999,3192.779013899999,3192.779013899999,3192.779013899999,3193.76281700001,3193.762831,3193.778843200009,3194.783503600018,3194.7633891000005,3194.781066000025,3194.783503600018,3194.783503600018,3195.262441300001,3195.295705700002,3197.762421200023,3197.779344200011,None,1.0,,,,,,,,,,,,,,,,,,,,,,,,,,,,,,,,,,,,,,,,,,nback61,1.0,2024-01-19_09h53.51.036,untitled,2023.2.3,59.930193309526736,2024-01-19 09h54.45.882577 -0500,
10.0,"[0, -0.2]",None,0.0,1.0,1.0,1.0,,,,,,,,,3197.7956078000134,,,,,,,,,,,,,,,,,,,,,,,,,,,,3197.7803437000257,3197.7956078000134,3197.7956078000134,3198.262438000005,3198.295709500002,3200.7623305000016,3200.779264200013,None,1.0,,,,,,,,,,,,,,,,,,,,,,,,,,,,,,,,,,,,,,,,,,nback61,1.0,2024-01-19_09h53.51.036,untitled,2023.2.3,59.930193309526736,2024-01-19 09h54.45.882577 -0500,
11.0,"[-0.64, -0.4]",space,0.0,2.0,2.0,2.0,,,,,,,,,3200.795689300023,,,,,,,,,,,,,,,,,,,,,,,,,,,,3200.780031400005,3200.795689300023,3200.795689300023,3201.2623662000115,3201.2955622000154,3203.762375200022,3203.7791091000254,space,1.0,0.53570859998581,None,,,,,,,,,,,,,,,,,,,,,,,,,,,,,,,,,,,,,,,,nback61,1.0,2024-01-19_09h53.51.036,untitled,2023.2.3,59.930193309526736,2024-01-19 09h54.45.882577 -0500,
12.0,"[0.64, -0.4]",None,0.0,3.0,3.0,3.0,,,,,,,,,3203.795479000022,,,,,,,,,,,,,,,,,,,,,,,,,,,,3203.7804217000084,3203.795479000022,3203.795479000022,3204.2623666000145,3204.295453300001,3206.7622705000103,3206.779212900001,None,1.0,,,,,,,,,,,,,,,,,,,,,,,,,,,,,,,,,,,,,,,,,,nback61,1.0,2024-01-19_09h53.51.036,untitled,2023.2.3,59.930193309526736,2024-01-19 09h54.45.882577 -0500,
1.0,"[-0.64, 0.4]",None,0.0,4.0,4.0,4.0,,,,,,,,,3206.795472000027,,,,,,,,,,,,,,,,,,,,,,,,,,,,3206.780012400006,3206.795472000027,3206.795472000027,3207.262285200006,3207.2954079000046,3209.762075400009,3209.779030100006,None,1.0,,,,,,,,,,,,,,,,,,,,,,,,,,,,,,,,,,,,,,,,,,nback61,1.0,2024-01-19_09h53.51.036,untitled,2023.2.3,59.930193309526736,2024-01-19 09h54.45.882577 -0500,
1.0,"[-0.64, 0.4]",None,0.0,5.0,5.0,5.0,,,,,,,,,3209.795499500004,,,,,,,,,,,,,,,,,,,,,,,,,,,,3209.7798322000017,3209.795499500004,3209.795499500004,3210.262059600005,3210.2954304000014,3212.762165000022,3212.778944300022,None,1.0,,,,,,,,,,,,,,,,,,,,,,,,,,,,,,,,,,,,,,,,,,nback61,1.0,2024-01-19_09h53.51.036,untitled,2023.2.3,59.930193309526736,2024-01-19 09h54.45.882577 -0500,
4.0,"[-0.2, 0.1]",None,0.0,6.0,6.0,6.0,,,,,,,,,3212.7953641000204,,,,,,,,,,,,,,,,,,,,,,,,,,,,3212.7797618000186,3212.7953641000204,3212.7953641000204,3213.262094500009,3213.295353300025,3215.7621634000097,3215.779026000004,None,1.0,,,,,,,,,,,,,,,,,,,,,,,,,,,,,,,,,,,,,,,,,,nback61,1.0,2024-01-19_09h53.51.036,untitled,2023.2.3,59.930193309526736,2024-01-19 09h54.45.882577 -0500,
5.0,"[0.2, 0.1]",None,0.0,7.0,7.0,7.0,,,,,,,,,3215.795358200005,,,,,,,,,,,,,,,,,,,,,,,,,,,,3215.779856500012,3215.795358200005,3215.795358200005,3216.262221700017,3216.2953781000106,3218.762088700023,3218.7788205000106,None,1.0,,,,,,,,,,,,,,,,,,,,,,,,,,,,,,,,,,,,,,,,,,nback61,1.0,2024-01-19_09h53.51.036,untitled,2023.2.3,59.930193309526736,2024-01-19 09h54.45.882577 -0500,
11.0,"[-0.64, -0.4]",space,0.0,8.0,8.0,8.0,,,,,,,,,3218.795404400007,,,,,,,,,,,,,,,,,,,,,,,,,,,,3218.7795450000267,3218.795404400007,3218.795404400007,3219.2618933000194,3219.2950628000253,3221.761934000009,3221.778819600004,space,1.0,0.5107711000018753,None,,,,,,,,,,,,,,,,,,,,,,,,,,,,,,,,,,,,,,,,nback61,1.0,2024-01-19_09h53.51.036,untitled,2023.2.3,59.930193309526736,2024-01-19 09h54.45.882577 -0500,
9.0,"[0.2, -0.1]",None,0.0,9.0,9.0,9.0,,,,,,,,,3221.7951381000166,,,,,,,,,,,,,,,,,,,,,,,,,,,,3221.7796583000163,3221.7951381000166,3221.7951381000166,3222.261902700004,3222.2952787000104,3224.761882300023,3224.778775600018,None,1.0,,,,,,,,,,,,,,,,,,,,,,,,,,,,,,,,,,,,,,,,,,nback61,1.0,2024-01-19_09h53.51.036,untitled,2023.2.3,59.930193309526736,2024-01-19 09h54.45.882577 -0500,
8.0,"[-0.2, -0.1]",None,0.0,10.0,10.0,10.0,,,,,,,,,3224.7951663999997,,,,,,,,,,,,,,,,,,,,,,,,,,,,3224.7796031000034,3224.7951663999997,3224.7951663999997,3225.2787198000005,3225.295162400027,3227.7785193000163,3227.778725900018,None,1.0,,,,,,,,,,,,,,,,,,,,,,,,,,,,,,,,,,,,,,,,,,nback61,1.0,2024-01-19_09h53.51.036,untitled,2023.2.3,59.930193309526736,2024-01-19 09h54.45.882577 -0500,
9.0,"[0.2, -0.1]",None,0.0,11.0,11.0,11.0,,,,,,,,,3227.7950337000075,,,,,,,,,,,,,,,,,,,,,,,,,,,,3227.7795259999984,3227.7950337000075,3227.7950337000075,3228.278484000009,3228.2951004000206,3230.778326,3230.7785180000064,None,1.0,,,,,,,,,,,,,,,,,,,,,,,,,,,,,,,,,,,,,,,,,,nback61,1.0,2024-01-19_09h53.51.036,untitled,2023.2.3,59.930193309526736,2024-01-19 09h54.45.882577 -0500,
6.0,"[-0.3, 0]",None,0.0,12.0,12.0,12.0,,,,,,,,,3230.7950937999994,,,,,,,,,,,,,,,,,,,,,,,,,,,,3230.7792409000103,3230.7950937999994,3230.7950937999994,3231.2783372000267,3231.295129000005,3233.7784227000084,3233.7786182000127,None,1.0,,,,,,,,,,,,,,,,,,,,,,,,,,,,,,,,,,,,,,,,,,nback61,1.0,2024-01-19_09h53.51.036,untitled,2023.2.3,59.930193309526736,2024-01-19 09h54.45.882577 -0500,
9.0,"[0.2, -0.1]",None,0.0,13.0,13.0,13.0,,,,,,,,,3233.794983,,,,,,,,,,,,,,,,,,,,,,,,,,,,3233.779423,3233.794983,3233.794983,3234.278469300014,3234.295069100015,3236.7785207999987,3236.778734500025,None,1.0,,,,,,,,,,,,,,,,,,,,,,,,,,,,,,,,,,,,,,,,,,nback61,1.0,2024-01-19_09h53.51.036,untitled,2023.2.3,59.930193309526736,2024-01-19 09h54.45.882577 -0500,
7.0,"[0.3, 0]",None,0.0,14.0,14.0,14.0,,,,,,,,,3236.794917800027,,,,,,,,,,,,,,,,,,,,,,,,,,,,3236.77954790002,3236.794917800027,3236.794917800027,3237.2783049000136,3237.295094600005,3239.7783261000004,3239.7785081000184,None,1.0,,,,,,,,,,,,,,,,,,,,,,,,,,,,,,,,,,,,,,,,,,nback61,1.0,2024-01-19_09h53.51.036,untitled,2023.2.3,59.930193309526736,2024-01-19 09h54.45.882577 -0500,
2.0,"[0.64, 0.4]",None,0.0,15.0,15.0,15.0,,,,,,,,,3239.794859400019,,,,,,,,,,,,,,,,,,,,,,,,,,,,3239.7792122000246,3239.794859400019,3239.794859400019,3240.278325100022,3240.294946300012,3242.7784567000053,3242.778672300017,None,1.0,,,,,,,,,,,,,,,,,,,,,,,,,,,,,,,,,,,,,,,,,,nback61,1.0,2024-01-19_09h53.51.036,untitled,2023.2.3,59.930193309526736,2024-01-19 09h54.45.882577 -0500,
2.0,"[0.64, 0.4]",None,0.0,16.0,16.0,16.0,,,,,,,,,3242.794969300012,,,,,,,,,,,,,,,,,,,,,,,,,,,,3242.7794820000126,3242.794969300012,3242.794969300012,3243.278343100013,3243.2948670000187,3245.7783094000188,3245.7784936000244,None,1.0,,,,,,,,,,,,,,,,,,,,,,,,,,,,,,,,,,,,,,,,,,nback61,1.0,2024-01-19_09h53.51.036,untitled,2023.2.3,59.930193309526736,2024-01-19 09h54.45.882577 -0500,
11.0,"[-0.64, -0.4]",space,0.0,17.0,17.0,17.0,,,,,,,,,3245.794823700009,,,,,,,,,,,,,,,,,,,,,,,,,,,,3245.7791626000253,3245.794823700009,3245.794823700009,3246.278163300012,3246.2945584000263,3248.7779419000144,3248.778098400013,space,1.0,0.3614102000137791,None,,,,,,,,,,,,,,,,,,,,,,,,,,,,,,,,,,,,,,,,nback61,1.0,2024-01-19_09h53.51.036,untitled,2023.2.3,59.930193309526736,2024-01-19 09h54.45.882577 -0500,
11.0,"[-0.64, -0.4]",space,0.0,18.0,18.0,18.0,,,,,,,,,3248.7948351000086,,,,,,,,,,,,,,,,,,,,,,,,,,,,3248.779008900019,3248.7948351000086,3248.7948351000086,3249.2780740000017,3249.294737500022,3251.778214200021,3251.7783883000084,space,1.0,0.506129300018074,None,,,,,,,,,,,,,,,,,,,,,,,,,,,,,,,,,,,,,,,,nback61,1.0,2024-01-19_09h53.51.036,untitled,2023.2.3,59.930193309526736,2024-01-19 09h54.45.882577 -0500,
7.0,"[0.3, 0]",None,0.0,19.0,19.0,19.0,,,,,,,,,3251.7947808000026,,,,,,,,,,,,,,,,,,,,,,,,,,,,3251.7791645000107,3251.7947808000026,3251.7947808000026,3252.277918600012,3252.2946835000184,3254.778112900007,3254.778276900004,None,1.0,,,,,,,,,,,,,,,,,,,,,,,,,,,,,,,,,,,,,,,,,,nback61,1.0,2024-01-19_09h53.51.036,untitled,2023.2.3,59.930193309526736,2024-01-19 09h54.45.882577 -0500,
3.0,"[0, 0.2]",None,0.0,20.0,20.0,20.0,,,,,,,,,3254.794602400012,,,,,,,,,,,,,,,,,,,,,,,,,,,,3254.7788765000005,3254.794602400012,3254.794602400012,3255.277932500001,3255.2948456000013,3257.7780310000235,3257.778213200014,None,1.0,,,,,,,,,,,,,,,,,,,,,,,,,,,,,,,,,,,,,,,,,,nback61,1.0,2024-01-19_09h53.51.036,untitled,2023.2.3,59.930193309526736,2024-01-19 09h54.45.882577 -0500,
10.0,"[0, -0.2]",None,0.0,21.0,21.0,21.0,,,,,,,,,3257.794603200018,,,,,,,,,,,,,,,,,,,,,,,,,,,,3257.7788930000097,3257.794603200018,3257.794603200018,3258.278134799999,3258.294478900003,3260.77794260002,3260.77813240001,None,1.0,,,,,,,,,,,,,,,,,,,,,,,,,,,,,,,,,,,,,,,,,,nback61,1.0,2024-01-19_09h53.51.036,untitled,2023.2.3,59.930193309526736,2024-01-19 09h54.45.882577 -0500,
1.0,"[-0.64, 0.4]",None,0.0,22.0,22.0,22.0,,,,,,,,,3260.7946199,,,,,,,,,,,,,,,,,,,,,,,,,,,,3260.7789164000133,3260.7946199,3260.7946199,3261.277888700017,3261.2945626,3263.778016700002,3263.778222200024,None,1.0,,,,,,,,,,,,,,,,,,,,,,,,,,,,,,,,,,,,,,,,,,nback61,1.0,2024-01-19_09h53.51.036,untitled,2023.2.3,59.930193309526736,2024-01-19 09h54.45.882577 -0500,
2.0,"[0.64, 0.4]",None,0.0,23.0,23.0,23.0,,,,,,,,,3263.7945926000248,,,,,,,,,,,,,,,,,,,,,,,,,,,,3263.779008500016,3263.7945926000248,3263.7945926000248,3264.277758400014,3264.294374000019,3266.777826800011,3266.778013000003,None,1.0,,,,,,,,,,,,,,,,,,,,,,,,,,,,,,,,,,,,,,,,,,nback61,1.0,2024-01-19_09h53.51.036,untitled,2023.2.3,59.930193309526736,2024-01-19 09h54.45.882577 -0500,
6.0,"[-0.3, 0]",None,0.0,24.0,24.0,24.0,,,,,,,,,3266.7944621000206,,,,,,,,,,,,,,,,,,,,,,,,,,,,3266.7787214000127,3266.7944621000206,3266.7944621000206,3267.277724500018,3267.2945451000123,3269.777883700008,3269.778086800012,None,1.0,,,,,,,,,,,,,,,,,,,,,,,,,,,,,,,,,,,,,,,,,,nback61,1.0,2024-01-19_09h53.51.036,untitled,2023.2.3,59.930193309526736,2024-01-19 09h54.45.882577 -0500,
3.0,"[0, 0.2]",None,0.0,25.0,25.0,25.0,,,,,,,,,3269.794323900016,,,,,,,,,,,,,,,,,,,,,,,,,,,,3269.778838900005,3269.794323900016,3269.794323900016,3270.27776680002,3270.2944688000134,3272.777749300003,3272.777932100027,None,1.0,,,,,,,,,,,,,,,,,,,,,,,,,,,,,,,,,,,,,,,,,,nback61,1.0,2024-01-19_09h53.51.036,untitled,2023.2.3,59.930193309526736,2024-01-19 09h54.45.882577 -0500,
11.0,"[-0.64, -0.4]",space,0.0,26.0,26.0,26.0,,,,,,,,,3272.7943125000165,,,,,,,,,,,,,,,,,,,,,,,,,,,,3272.7786336000136,3272.7943125000165,3272.7943125000165,3273.2776464000053,3273.2945557000057,3275.7777177000244,3275.777884200012,space,1.0,0.4689178000262473,None,,,,,,,,,,,,,,,,,,,,,,,,,,,,,,,,,,,,,,,,nback61,1.0,2024-01-19_09h53.51.036,untitled,2023.2.3,59.930193309526736,2024-01-19 09h54.45.882577 -0500,
1.0,"[-0.64, 0.4]",None,0.0,27.0,27.0,27.0,,,,,,,,,3275.7941657000047,,,,,,,,,,,,,,,,,,,,,,,,,,,,3275.778662800003,3275.7941657000047,3275.7941657000047,3276.277626700001,3276.2943427000137,3278.777623700007,3278.7778089000203,None,1.0,,,,,,,,,,,,,,,,,,,,,,,,,,,,,,,,,,,,,,,,,,nback61,1.0,2024-01-19_09h53.51.036,untitled,2023.2.3,59.930193309526736,2024-01-19 09h54.45.882577 -0500,
3.0,"[0, 0.2]",None,0.0,28.0,28.0,28.0,,,,,,,,,3278.7941806000017,,,,,,,,,,,,,,,,,,,,,,,,,,,,3278.7785080000176,3278.7941806000017,3278.7941806000017,3279.2775332000165,3279.2941940000164,3281.777605200012,3281.7778209000244,None,1.0,,,,,,,,,,,,,,,,,,,,,,,,,,,,,,,,,,,,,,,,,,nback61,1.0,2024-01-19_09h53.51.036,untitled,2023.2.3,59.930193309526736,2024-01-19 09h54.45.882577 -0500,
9.0,"[0.2, -0.1]",None,0.0,29.0,29.0,29.0,,,,,,,,,3281.7941690000007,,,,,,,,,,,,,,,,,,,,,,,,,,,,3281.778591600014,3281.7941690000007,3281.7941690000007,3282.277452500013,3282.294175500021,3284.777711600007,3284.777927600022,None,1.0,,,,,,,,,,,,,,,,,,,,,,,,,,,,,,,,,,,,,,,,,,nback61,1.0,2024-01-19_09h53.51.036,untitled,2023.2.3,59.930193309526736,2024-01-19 09h54.45.882577 -0500,
8.0,"[-0.2, -0.1]",None,0.0,30.0,30.0,30.0,,,,,,,,,3284.794229400024,,,,,,,,,,,,,,,,,,,,,,,,,,,,3284.778762800008,3284.794229400024,3284.794229400024,3285.277487900021,3285.2941255000187,3287.777412300027,3287.7775896000094,None,1.0,,,,,,,,,,,,,,,,,,,,,,,,,,,,,,,,,,,,,,,,,,nback61,1.0,2024-01-19_09h53.51.036,untitled,2023.2.3,59.930193309526736,2024-01-19 09h54.45.882577 -0500,
12.0,"[0.64, -0.4]",None,0.0,31.0,31.0,31.0,,,,,,,,,3287.794164300023,,,,,,,,,,,,,,,,,,,,,,,,,,,,3287.7782303999998,3287.794164300023,3287.794164300023,3288.277446799999,3288.2941438000125,3290.777485800005,3290.7777065000264,None,1.0,,,,,,,,,,,,,,,,,,,,,,,,,,,,,,,,,,,,,,,,,,nback61,1.0,2024-01-19_09h53.51.036,untitled,2023.2.3,59.930193309526736,2024-01-19 09h54.45.882577 -0500,
9.0,"[0.2, -0.1]",None,0.0,32.0,32.0,32.0,,,,,,,,,3290.794139800011,,,,,,,,,,,,,,,,,,,,,,,,,,,,3290.7785533000133,3290.794139800011,3290.794139800011,3291.2772939999995,3291.2940766000247,3293.7774718000146,3293.777682800021,None,1.0,,,,,,,,,,,,,,,,,,,,,,,,,,,,,,,,,,,,,,,,,,nback61,1.0,2024-01-19_09h53.51.036,untitled,2023.2.3,59.930193309526736,2024-01-19 09h54.45.882577 -0500,
11.0,"[-0.64, -0.4]",space,0.0,33.0,33.0,33.0,,,,,,,,,3293.7940614000254,,,,,,,,,,,,,,,,,,,,,,,,,,,,3293.778433600004,3293.7940614000254,3293.7940614000254,3294.2774345000216,3294.2940861000097,3296.7773989000125,3296.777617200016,space,1.0,0.3539190999872517,None,,,,,,,,,,,,,,,,,,,,,,,,,,,,,,,,,,,,,,,,nback61,1.0,2024-01-19_09h53.51.036,untitled,2023.2.3,59.930193309526736,2024-01-19 09h54.45.882577 -0500,
7.0,"[0.3, 0]",None,0.0,34.0,34.0,34.0,,,,,,,,,3296.7940385000256,,,,,,,,,,,,,,,,,,,,,,,,,,,,3296.7785943000054,3296.7940385000256,3296.7940385000256,3297.277335100021,3297.293861800019,3299.777234900015,3299.777426400018,None,1.0,,,,,,,,,,,,,,,,,,,,,,,,,,,,,,,,,,,,,,,,,,nback61,1.0,2024-01-19_09h53.51.036,untitled,2023.2.3,59.930193309526736,2024-01-19 09h54.45.882577 -0500,
11.0,"[-0.64, -0.4]",space,0.0,35.0,35.0,35.0,,,,,,,,,3299.7940291000123,,,,,,,,,,,,,,,,,,,,,,,,,,,,3299.778182400012,3299.7940291000123,3299.7940291000123,3300.277218700008,3300.2939789000084,3302.777210700005,3302.7774143000133,space,1.0,0.4166153999976814,None,,,,,,,,,,,,,,,,,,,,,,,,,,,,,,,,,,,,,,,,nback61,1.0,2024-01-19_09h53.51.036,untitled,2023.2.3,59.930193309526736,2024-01-19 09h54.45.882577 -0500,
4.0,"[-0.2, 0.1]",None,0.0,36.0,36.0,36.0,,,,,,,,,3302.7937218000006,,,,,,,,,,,,,,,,,,,,,,,,,,,,3302.778320500016,3302.7937218000006,3302.7937218000006,3303.277213200025,3303.293835300021,3305.777109300019,3305.777279300004,None,1.0,,,,,,,,,,,,,,,,,,,,,,,,,,,,,,,,,,,,,,,,,,nback61,1.0,2024-01-19_09h53.51.036,untitled,2023.2.3,59.930193309526736,2024-01-19 09h54.45.882577 -0500,
5.0,"[0.2, 0.1]",None,0.0,37.0,37.0,37.0,,,,,,,,,3305.7937231000105,,,,,,,,,,,,,,,,,,,,,,,,,,,,3305.777935400023,3305.7937231000105,3305.7937231000105,3306.277273200016,3306.2938666000264,3308.7772927000187,3308.7775231999985,None,1.0,,,,,,,,,,,,,,,,,,,,,,,,,,,,,,,,,,,,,,,,,,nback61,1.0,2024-01-19_09h53.51.036,untitled,2023.2.3,59.930193309526736,2024-01-19 09h54.45.882577 -0500,
6.0,"[-0.3, 0]",None,0.0,38.0,38.0,38.0,,,,,,,,,3308.7937919000105,,,,,,,,,,,,,,,,,,,,,,,,,,,,3308.778365700011,3308.7937919000105,3308.7937919000105,3309.277157500008,3309.293798800005,3311.7769654000003,3311.777131400013,None,1.0,,,,,,,,,,,,,,,,,,,,,,,,,,,,,,,,,,,,,,,,,,nback61,1.0,2024-01-19_09h53.51.036,untitled,2023.2.3,59.930193309526736,2024-01-19 09h54.45.882577 -0500,
11.0,"[-0.64, -0.4]",space,0.0,39.0,39.0,39.0,,,,,,,,,3311.7935698000074,,,,,,,,,,,,,,,,,,,,,,,,,,,,3311.777761300007,3311.7935698000074,3311.7935698000074,3312.276845300017,3312.293538800004,3314.7771054000186,3314.777286000026,space,1.0,0.3694792999885976,None,,,,,,,,,,,,,,,,,,,,,,,,,,,,,,,,,,,,,,,,nback61,1.0,2024-01-19_09h53.51.036,untitled,2023.2.3,59.930193309526736,2024-01-19 09h54.45.882577 -0500,
,,,,,,,,,,,,,,,,,,,,,,,,,,,,,,,,,,,,,,,,,,,,,,,,,,,,,,3314.7779169999994,3314.793756400002,3314.793756400002,3336.2450700000045,space,21.447122399986256,None,,,,,,,,,,,,,,,,,,,,,,,,,,,,,,,,,nback61,1.0,2024-01-19_09h53.51.036,untitled,2023.2.3,59.930193309526736,2024-01-19 09h54.45.882577 -0500,
10.0,"[0, -0.2]",None,,,,,0.0,0.0,0.0,0.0,,,,,3337.265602600004,,,,,,,,,,,,,,,,,,,,,,,,3336.2451131000125,3336.259769200027,3337.265602600004,3337.2440504000115,,,,,,,,,,,,,,,,,,,3337.263678800024,3337.265602600004,3337.265602600004,3337.760021300026,3337.776504300011,3340.259882500017,3340.260100000014,None,1.0,,,,,,,,,,,,,,,,,,,,,,,,nback61,1.0,2024-01-19_09h53.51.036,untitled,2023.2.3,59.930193309526736,2024-01-19 09h54.45.882577 -0500,
5.0,"[0.2, 0.1]",None,,,,,0.0,1.0,1.0,1.0,,,,,3340.276657000009,,,,,,,,,,,,,,,,,,,,,,,,,,,,,,,,,,,,,,,,,,,,,,3340.26110980002,3340.276657000009,3340.276657000009,3340.760123100016,3340.776661000011,3343.260001800023,3343.260225300008,None,1.0,,,,,,,,,,,,,,,,,,,,,,,,nback61,1.0,2024-01-19_09h53.51.036,untitled,2023.2.3,59.930193309526736,2024-01-19 09h54.45.882577 -0500,
6.0,"[-0.3, 0]",None,,,,,0.0,2.0,2.0,2.0,,,,,3343.276538800012,,,,,,,,,,,,,,,,,,,,,,,,,,,,,,,,,,,,,,,,,,,,,,3343.2610328000155,3343.276538800012,3343.276538800012,3343.7598074999987,3343.77637040001,3346.2598251000163,3346.260005500022,None,1.0,,,,,,,,,,,,,,,,,,,,,,,,nback61,1.0,2024-01-19_09h53.51.036,untitled,2023.2.3,59.930193309526736,2024-01-19 09h54.45.882577 -0500,
6.0,"[-0.3, 0]",space,,,,,0.0,3.0,3.0,3.0,,,,,3346.276465900009,,,,,,,,,,,,,,,,,,,,,,,,,,,,,,,,,,,,,,,,,,,,,,3346.260810200009,3346.276465900009,3346.276465900009,3346.759726600023,3346.776427100005,3349.259654300025,3349.259842700005,space,1.0,0.5177281999785919,None,,,,,,,,,,,,,,,,,,,,,,nback61,1.0,2024-01-19_09h53.51.036,untitled,2023.2.3,59.930193309526736,2024-01-19 09h54.45.882577 -0500,
12.0,"[0.64, -0.4]",None,,,,,0.0,4.0,4.0,4.0,,,,,3349.2763267000264,,,,,,,,,,,,,,,,,,,,,,,,,,,,,,,,,,,,,,,,,,,,,,3349.260827500024,3349.2763267000264,3349.2763267000264,3349.7596009000263,3349.7763893000083,3352.259722800023,3352.2599109,None,1.0,,,,,,,,,,,,,,,,,,,,,,,,nback61,1.0,2024-01-19_09h53.51.036,untitled,2023.2.3,59.930193309526736,2024-01-19 09h54.45.882577 -0500,
10.0,"[0, -0.2]",None,,,,,0.0,5.0,5.0,5.0,,,,,3352.276464100025,,,,,,,,,,,,,,,,,,,,,,,,,,,,,,,,,,,,,,,,,,,,,,3352.2606295000005,3352.276464100025,3352.276464100025,3352.759548700007,3352.7762230000226,3355.2596161000256,3355.2598317000084,None,1.0,,,,,,,,,,,,,,,,,,,,,,,,nback61,1.0,2024-01-19_09h53.51.036,untitled,2023.2.3,59.930193309526736,2024-01-19 09h54.45.882577 -0500,
2.0,"[0.64, 0.4]",None,,,,,0.0,6.0,6.0,6.0,,,,,3355.276362900011,,,,,,,,,,,,,,,,,,,,,,,,,,,,,,,,,,,,,,,,,,,,,,3355.2606868000003,3355.276362900011,3355.276362900011,3355.759684400022,3355.7763573000266,3358.2595199000207,3358.259672200016,None,1.0,,,,,,,,,,,,,,,,,,,,,,,,nback61,1.0,2024-01-19_09h53.51.036,untitled,2023.2.3,59.930193309526736,2024-01-19 09h54.45.882577 -0500,
9.0,"[0.2, -0.1]",None,,,,,0.0,7.0,7.0,7.0,,,,,3358.2760954000114,,,,,,,,,,,,,,,,,,,,,,,,,,,,,,,,,,,,,,,,,,,,,,3358.2602701,3358.2760954000114,3358.2760954000114,3358.759729500016,3358.7762450000155,3361.259431000013,3361.259519200016,None,1.0,,,,,,,,,,,,,,,,,,,,,,,,nback61,1.0,2024-01-19_09h53.51.036,untitled,2023.2.3,59.930193309526736,2024-01-19 09h54.45.882577 -0500,
9.0,"[0.2, -0.1]",space,,,,,0.0,8.0,8.0,8.0,,,,,3361.276012200018,,,,,,,,,,,,,,,,,,,,,,,,,,,,,,,,,,,,,,,,,,,,,,3361.2598734000057,3361.276012200018,3361.276012200018,3361.7595101000043,3361.776118300011,3364.259824200009,3364.26003960002,space,1.0,0.6090842999983579,None,,,,,,,,,,,,,,,,,,,,,,nback61,1.0,2024-01-19_09h53.51.036,untitled,2023.2.3,59.930193309526736,2024-01-19 09h54.45.882577 -0500,
6.0,"[-0.3, 0]",None,,,,,0.0,9.0,9.0,9.0,,,,,3364.27629910002,,,,,,,,,,,,,,,,,,,,,,,,,,,,,,,,,,,,,,,,,,,,,,3364.2610341000254,3364.27629910002,3364.27629910002,3364.759291200025,3364.7761969999992,3367.259320200013,3367.2595154000155,None,1.0,,,,,,,,,,,,,,,,,,,,,,,,nback61,1.0,2024-01-19_09h53.51.036,untitled,2023.2.3,59.930193309526736,2024-01-19 09h54.45.882577 -0500,
11.0,"[-0.64, -0.4]",None,,,,,0.0,10.0,10.0,10.0,,,,,3367.2760957000137,,,,,,,,,,,,,,,,,,,,,,,,,,,,,,,,,,,,,,,,,,,,,,3367.260251300002,3367.2760957000137,3367.2760957000137,3367.759181100002,3367.7758155000047,3370.259408600017,3370.259613500006,None,1.0,,,,,,,,,,,,,,,,,,,,,,,,nback61,1.0,2024-01-19_09h53.51.036,untitled,2023.2.3,59.930193309526736,2024-01-19 09h54.45.882577 -0500,
11.0,"[-0.64, -0.4]",space,,,,,0.0,11.0,11.0,11.0,,,,,3370.276131700026,,,,,,,,,,,,,,,,,,,,,,,,,,,,,,,,,,,,,,,,,,,,,,3370.260376500024,3370.276131700026,3370.276131700026,3370.759402100026,3370.7761083000223,3373.2592907000217,3373.2594827,space,1.0,0.6615460999892093,None,,,,,,,,,,,,,,,,,,,,,,nback61,1.0,2024-01-19_09h53.51.036,untitled,2023.2.3,59.930193309526736,2024-01-19 09h54.45.882577 -0500,
4.0,"[-0.2, 0.1]",None,,,,,0.0,12.0,12.0,12.0,,,,,3373.27586720002,,,,,,,,,,,,,,,,,,,,,,,,,,,,,,,,,,,,,,,,,,,,,,3373.260392700002,3373.27586720002,3373.27586720002,3373.7592729000025,3373.7759810000134,3376.25914520002,3376.259292800009,None,1.0,,,,,,,,,,,,,,,,,,,,,,,,nback61,1.0,2024-01-19_09h53.51.036,untitled,2023.2.3,59.930193309526736,2024-01-19 09h54.45.882577 -0500,
3.0,"[0, 0.2]",None,,,,,0.0,13.0,13.0,13.0,,,,,3376.275714200019,,,,,,,,,,,,,,,,,,,,,,,,,,,,,,,,,,,,,,,,,,,,,,3376.259933000023,3376.275714200019,3376.275714200019,3376.759201500012,3376.775883400027,3379.2593530000013,3379.25955290001,None,1.0,,,,,,,,,,,,,,,,,,,,,,,,nback61,1.0,2024-01-19_09h53.51.036,untitled,2023.2.3,59.930193309526736,2024-01-19 09h54.45.882577 -0500,
3.0,"[0, 0.2]",space,,,,,0.0,14.0,14.0,14.0,,,,,3379.275959400024,,,,,,,,,,,,,,,,,,,,,,,,,,,,,,,,,,,,,,,,,,,,,,3379.260306600016,3379.275959400024,3379.275959400024,3379.759106100013,3379.775769300002,3382.2591195999994,3382.259289800015,space,1.0,0.5510604000010062,None,,,,,,,,,,,,,,,,,,,,,,nback61,1.0,2024-01-19_09h53.51.036,untitled,2023.2.3,59.930193309526736,2024-01-19 09h54.45.882577 -0500,
8.0,"[-0.2, -0.1]",None,,,,,0.0,15.0,15.0,15.0,,,,,3382.2759138000256,,,,,,,,,,,,,,,,,,,,,,,,,,,,,,,,,,,,,,,,,,,,,,3382.2601868000056,3382.2759138000256,3382.2759138000256,3382.758985799999,3382.7758209000167,3385.259178200009,3385.259386700025,None,1.0,,,,,,,,,,,,,,,,,,,,,,,,nback61,1.0,2024-01-19_09h53.51.036,untitled,2023.2.3,59.930193309526736,2024-01-19 09h54.45.882577 -0500,
1.0,"[-0.64, 0.4]",None,,,,,0.0,16.0,16.0,16.0,,,,,3385.2758434000134,,,,,,,,,,,,,,,,,,,,,,,,,,,,,,,,,,,,,,,,,,,,,,3385.2602676000097,3385.2758434000134,3385.2758434000134,3385.7591698000037,3385.7758994000037,3388.2588310000137,3388.2589559000044,None,1.0,,,,,,,,,,,,,,,,,,,,,,,,nback61,1.0,2024-01-19_09h53.51.036,untitled,2023.2.3,59.930193309526736,2024-01-19 09h54.45.882577 -0500,
2.0,"[0.64, 0.4]",None,,,,,0.0,17.0,17.0,17.0,,,,,3388.2754039000138,,,,,,,,,,,,,,,,,,,,,,,,,,,,,,,,,,,,,,,,,,,,,,3388.2594238000165,3388.2754039000138,3388.2754039000138,3388.7588834000053,3388.775737400021,3391.259085000027,3391.259286400018,None,1.0,,,,,,,,,,,,,,,,,,,,,,,,nback61,1.0,2024-01-19_09h53.51.036,untitled,2023.2.3,59.930193309526736,2024-01-19 09h54.45.882577 -0500,
4.0,"[-0.2, 0.1]",None,,,,,0.0,18.0,18.0,18.0,,,,,3391.27559450001,,,,,,,,,,,,,,,,,,,,,,,,,,,,,,,,,,,,,,,,,,,,,,3391.260150200018,3391.27559450001,3391.27559450001,3391.7590723000176,3391.7755088000267,3394.2590114000195,3394.25921270001,None,1.0,,,,,,,,,,,,,,,,,,,,,,,,nback61,1.0,2024-01-19_09h53.51.036,untitled,2023.2.3,59.930193309526736,2024-01-19 09h54.45.882577 -0500,
4.0,"[-0.2, 0.1]",space,,,,,0.0,19.0,19.0,19.0,,,,,3394.275723400002,,,,,,,,,,,,,,,,,,,,,,,,,,,,,,,,,,,,,,,,,,,,,,3394.260016400018,3394.275723400002,3394.275723400002,3394.758977300022,3394.7755272000213,3397.2589757000096,3397.259179400018,space,1.0,0.5136062999954447,None,,,,,,,,,,,,,,,,,,,,,,nback61,1.0,2024-01-19_09h53.51.036,untitled,2023.2.3,59.930193309526736,2024-01-19 09h54.45.882577 -0500,
8.0,"[-0.2, -0.1]",None,,,,,0.0,20.0,20.0,20.0,,,,,3397.275573400024,,,,,,,,,,,,,,,,,,,,,,,,,,,,,,,,,,,,,,,,,,,,,,3397.260119100014,3397.275573400024,3397.275573400024,3397.7587897000194,3397.775518800016,3400.258892700018,3400.2591047000024,None,1.0,,,,,,,,,,,,,,,,,,,,,,,,nback61,1.0,2024-01-19_09h53.51.036,untitled,2023.2.3,59.930193309526736,2024-01-19 09h54.45.882577 -0500,
5.0,"[0.2, 0.1]",None,,,,,0.0,21.0,21.0,21.0,,,,,3400.2754244000243,,,,,,,,,,,,,,,,,,,,,,,,,,,,,,,,,,,,,,,,,,,,,,3400.259946700011,3400.2754244000243,3400.2754244000243,3400.758885600022,3400.7755397,3403.25867000001,3403.25884710002,None,1.0,,,,,,,,,,,,,,,,,,,,,,,,nback61,1.0,2024-01-19_09h53.51.036,untitled,2023.2.3,59.930193309526736,2024-01-19 09h54.45.882577 -0500,
5.0,"[0.2, 0.1]",space,,,,,0.0,22.0,22.0,22.0,,,,,3403.2754853000224,,,,,,,,,,,,,,,,,,,,,,,,,,,,,,,,,,,,,,,,,,,,,,3403.25955290001,3403.2754853000224,3403.2754853000224,3403.75886490001,3403.775358700019,3406.258827600017,3406.259046800027,space,1.0,0.8095863999915309,None,,,,,,,,,,,,,,,,,,,,,,nback61,1.0,2024-01-19_09h53.51.036,untitled,2023.2.3,59.930193309526736,2024-01-19 09h54.45.882577 -0500,
1.0,"[-0.64, 0.4]",None,,,,,0.0,23.0,23.0,23.0,,,,,3406.275431600021,,,,,,,,,,,,,,,,,,,,,,,,,,,,,,,,,,,,,,,,,,,,,,3406.2600367999985,3406.275431600021,3406.275431600021,3406.758694100019,3406.7752043000078,3409.258563500014,3409.258744300023,None,1.0,,,,,,,,,,,,,,,,,,,,,,,,nback61,1.0,2024-01-19_09h53.51.036,untitled,2023.2.3,59.930193309526736,2024-01-19 09h54.45.882577 -0500,
3.0,"[0, 0.2]",None,,,,,0.0,24.0,24.0,24.0,,,,,3409.275457300013,,,,,,,,,,,,,,,,,,,,,,,,,,,,,,,,,,,,,,,,,,,,,,3409.259479500004,3409.275457300013,3409.275457300013,3409.758762100013,3409.7753320000197,3412.258680400002,3412.258851700026,None,1.0,,,,,,,,,,,,,,,,,,,,,,,,nback61,1.0,2024-01-19_09h53.51.036,untitled,2023.2.3,59.930193309526736,2024-01-19 09h54.45.882577 -0500,
6.0,"[-0.3, 0]",None,,,,,0.0,25.0,25.0,25.0,,,,,3412.275249700004,,,,,,,,,,,,,,,,,,,,,,,,,,,,,,,,,,,,,,,,,,,,,,3412.259590600006,3412.275249700004,3412.275249700004,3412.7585882999992,3412.7753281000187,3415.2586243000114,3415.258825100027,None,1.0,,,,,,,,,,,,,,,,,,,,,,,,nback61,1.0,2024-01-19_09h53.51.036,untitled,2023.2.3,59.930193309526736,2024-01-19 09h54.45.882577 -0500,
1.0,"[-0.64, 0.4]",None,,,,,0.0,26.0,26.0,26.0,,,,,3415.2751239000063,,,,,,,,,,,,,,,,,,,,,,,,,,,,,,,,,,,,,,,,,,,,,,3415.259629100008,3415.2751239000063,3415.2751239000063,3415.758638500003,3415.7752503000083,3418.2586140000203,3418.258830100007,None,1.0,,,,,,,,,,,,,,,,,,,,,,,,nback61,1.0,2024-01-19_09h53.51.036,untitled,2023.2.3,59.930193309526736,2024-01-19 09h54.45.882577 -0500,
1.0,"[-0.64, 0.4]",space,,,,,0.0,27.0,27.0,27.0,,,,,3418.2752801000024,,,,,,,,,,,,,,,,,,,,,,,,,,,,,,,,,,,,,,,,,,,,,,3418.259645700018,3418.2752801000024,3418.2752801000024,3418.7584814,3418.775473400019,3421.2582927000185,3421.258464000013,space,1.0,0.5009644999809097,None,,,,,,,,,,,,,,,,,,,,,,nback61,1.0,2024-01-19_09h53.51.036,untitled,2023.2.3,59.930193309526736,2024-01-19 09h54.45.882577 -0500,
1.0,"[-0.64, 0.4]",space,,,,,0.0,28.0,28.0,28.0,,,,,3421.274986200005,,,,,,,,,,,,,,,,,,,,,,,,,,,,,,,,,,,,,,,,,,,,,,3421.2590301000164,3421.274986200005,3421.274986200005,3421.75847120001,3421.775119000027,3424.258577700006,3424.2587921000086,space,1.0,0.9376627000165172,None,,,,,,,,,,,,,,,,,,,,,,nback61,1.0,2024-01-19_09h53.51.036,untitled,2023.2.3,59.930193309526736,2024-01-19 09h54.45.882577 -0500,
3.0,"[0, 0.2]",None,,,,,0.0,29.0,29.0,29.0,,,,,3424.2751010000065,,,,,,,,,,,,,,,,,,,,,,,,,,,,,,,,,,,,,,,,,,,,,,3424.259887400025,3424.2751010000065,3424.2751010000065,3424.75858340002,3424.775051900011,3427.258411000017,3427.258573500003,None,1.0,,,,,,,,,,,,,,,,,,,,,,,,nback61,1.0,2024-01-19_09h53.51.036,untitled,2023.2.3,59.930193309526736,2024-01-19 09h54.45.882577 -0500,
12.0,"[0.64, -0.4]",None,,,,,0.0,30.0,30.0,30.0,,,,,3427.274986900011,,,,,,,,,,,,,,,,,,,,,,,,,,,,,,,,,,,,,,,,,,,,,,3427.2592049000086,3427.274986900011,3427.274986900011,3427.758263399999,3427.774919200019,3430.258344200003,3430.258546900004,None,1.0,,,,,,,,,,,,,,,,,,,,,,,,nback61,1.0,2024-01-19_09h53.51.036,untitled,2023.2.3,59.930193309526736,2024-01-19 09h54.45.882577 -0500,
12.0,"[0.64, -0.4]",space,,,,,0.0,31.0,31.0,31.0,,,,,3430.274870100024,,,,,,,,,,,,,,,,,,,,,,,,,,,,,,,,,,,,,,,,,,,,,,3430.2594034000067,3430.274870100024,3430.274870100024,3430.758306200005,3430.774951500003,3433.258173800016,3433.2583562000077,space,1.0,0.5377468999940902,None,,,,,,,,,,,,,,,,,,,,,,nback61,1.0,2024-01-19_09h53.51.036,untitled,2023.2.3,59.930193309526736,2024-01-19 09h54.45.882577 -0500,
2.0,"[0.64, 0.4]",None,,,,,0.0,32.0,32.0,32.0,,,,,3433.274959900009,,,,,,,,,,,,,,,,,,,,,,,,,,,,,,,,,,,,,,,,,,,,,,3433.2593451,3433.274959900009,3433.274959900009,3433.7584532000183,3433.774934300018,3436.258209200023,3436.2584352000267,None,1.0,,,,,,,,,,,,,,,,,,,,,,,,nback61,1.0,2024-01-19_09h53.51.036,untitled,2023.2.3,59.930193309526736,2024-01-19 09h54.45.882577 -0500,
1.0,"[-0.64, 0.4]",None,,,,,0.0,33.0,33.0,33.0,,,,,3436.2750811000005,,,,,,,,,,,,,,,,,,,,,,,,,,,,,,,,,,,,,,,,,,,,,,3436.259286400018,3436.2750811000005,3436.2750811000005,3436.758163100021,3436.77480330001,3439.258228700026,3439.2584448000125,None,1.0,,,,,,,,,,,,,,,,,,,,,,,,nback61,1.0,2024-01-19_09h53.51.036,untitled,2023.2.3,59.930193309526736,2024-01-19 09h54.45.882577 -0500,
7.0,"[0.3, 0]",None,,,,,0.0,34.0,34.0,34.0,,,,,3439.2748938000004,,,,,,,,,,,,,,,,,,,,,,,,,,,,,,,,,,,,,,,,,,,,,,3439.2593099000223,3439.2748938000004,3439.2748938000004,3439.758209600026,3439.774798700004,3442.2581440000213,3442.2583305000157,None,1.0,,,,,,,,,,,,,,,,,,,,,,,,nback61,1.0,2024-01-19_09h53.51.036,untitled,2023.2.3,59.930193309526736,2024-01-19 09h54.45.882577 -0500,
7.0,"[0.3, 0]",space,,,,,0.0,35.0,35.0,35.0,,,,,3442.274820999999,,,,,,,,,,,,,,,,,,,,,,,,,,,,,,,,,,,,,,,,,,,,,,3442.259159500012,3442.274820999999,3442.274820999999,3442.75796290001,3442.774591500027,3445.258018100023,3445.258195900009,space,1.0,0.6159273999801371,None,,,,,,,,,,,,,,,,,,,,,,nback61,1.0,2024-01-19_09h53.51.036,untitled,2023.2.3,59.930193309526736,2024-01-19 09h54.45.882577 -0500,
11.0,"[-0.64, -0.4]",None,,,,,0.0,36.0,36.0,36.0,,,,,3445.2746547000133,,,,,,,,,,,,,,,,,,,,,,,,,,,,,,,,,,,,,,,,,,,,,,3445.2592679000227,3445.2746547000133,3445.2746547000133,3445.758150300011,3445.7747280000185,3448.258166000014,3448.2583790000062,None,1.0,,,,,,,,,,,,,,,,,,,,,,,,nback61,1.0,2024-01-19_09h53.51.036,untitled,2023.2.3,59.930193309526736,2024-01-19 09h54.45.882577 -0500,
2.0,"[0.64, 0.4]",None,,,,,0.0,37.0,37.0,37.0,,,,,3448.2748093000264,,,,,,,,,,,,,,,,,,,,,,,,,,,,,,,,,,,,,,,,,,,,,,3448.2592062000185,3448.2748093000264,3448.2748093000264,3448.7580928000098,3448.774633300025,3451.2579665000085,3451.2581808000105,None,1.0,,,,,,,,,,,,,,,,,,,,,,,,nback61,1.0,2024-01-19_09h53.51.036,untitled,2023.2.3,59.930193309526736,2024-01-19 09h54.45.882577 -0500,
6.0,"[-0.3, 0]",None,,,,,0.0,38.0,38.0,38.0,,,,,3451.2746529,,,,,,,,,,,,,,,,,,,,,,,,,,,,,,,,,,,,,,,,,,,,,,3451.2590318,3451.2746529,3451.2746529,3451.757855200005,3451.7745216000185,3454.2579614999995,3454.2581800000044,None,1.0,,,,,,,,,,,,,,,,,,,,,,,,nback61,1.0,2024-01-19_09h53.51.036,untitled,2023.2.3,59.930193309526736,2024-01-19 09h54.45.882577 -0500,
10.0,"[0, -0.2]",None,,,,,0.0,39.0,39.0,39.0,,,,,3454.2746149000013,,,,,,,,,,,,,,,,,,,,,,,,,,,,,,,,,,,,,,,,,,,,,,3454.259029400011,3454.2746149000013,3454.2746149000013,3454.7580336000246,3454.7747441000247,3457.2578275999986,3457.2580071999982,None,1.0,,,,,,,,,,,,,,,,,,,,,,,,nback61,1.0,2024-01-19_09h53.51.036,untitled,2023.2.3,59.930193309526736,2024-01-19 09h54.45.882577 -0500,
,,,,,,,,,,,,,,,,,,,,,,,,,,,,,,,,,,,,,,,,,,,,,,,,,,,,,,,,,,,,,,,,,,,,,,,,3457.2585562000168,3457.2745941000176,3457.2745941000176,3473.742353900016,space,16.456538700003875,None,,,,,,,,,,,,,,,nback61,1.0,2024-01-19_09h53.51.036,untitled,2023.2.3,59.930193309526736,2024-01-19 09h54.45.882577 -0500,
,"[0.2, 0.1]",None,,,,,,,,,0.0,0.0,0.0,0.0,3474.760304700001,,,,,,,,,,,,,,,,,,,,,,,,3473.7423992000117,3473.7574688000022,3474.760304700001,3474.7418906000094,,,,,,,,,,,,,,,,,,,,,,,,,,,,,,,,,,,,,3474.7584269000217,3474.760304700001,3474.760304700001,3475.257418300025,3475.2740623000136,3477.757440300018,3477.7576253000007,None,1.0,,,,,,nback61,1.0,2024-01-19_09h53.51.036,untitled,2023.2.3,59.930193309526736,2024-01-19 09h54.45.882577 -0500,
,"[0.64, 0.4]",None,,,,,,,,,0.0,1.0,1.0,1.0,3477.7741221000038,,,,,,,,,,,,,,,,,,,,,,,,,,,,,,,,,,,,,,,,,,,,,,,,,,,,,,,,,,,,,,,,3477.758493900008,3477.7741221000038,3477.7741221000038,3478.257349600026,3478.2741531000065,3480.7574679000245,3480.757659200026,None,1.0,,,,,,nback61,1.0,2024-01-19_09h53.51.036,untitled,2023.2.3,59.930193309526736,2024-01-19 09h54.45.882577 -0500,
,"[-0.3, 0]",None,,,,,,,,,0.0,2.0,2.0,2.0,3480.774249500013,,,,,,,,,,,,,,,,,,,,,,,,,,,,,,,,,,,,,,,,,,,,,,,,,,,,,,,,,,,,,,,,3480.758371500008,3480.774249500013,3480.774249500013,3481.2572830000136,3481.2740425000084,3483.757486900024,3483.7576942000014,None,1.0,,,,,,nback61,1.0,2024-01-19_09h53.51.036,untitled,2023.2.3,59.930193309526736,2024-01-19 09h54.45.882577 -0500,
,"[0.2, -0.1]",None,,,,,,,,,0.0,3.0,3.0,3.0,3483.7740599000244,,,,,,,,,,,,,,,,,,,,,,,,,,,,,,,,,,,,,,,,,,,,,,,,,,,,,,,,,,,,,,,,3483.7585243000067,3483.7740599000244,3483.7740599000244,3484.257382700016,3484.274004900013,3486.7574538000044,3486.7576545000197,None,1.0,,,,,,nback61,1.0,2024-01-19_09h53.51.036,untitled,2023.2.3,59.930193309526736,2024-01-19 09h54.45.882577 -0500,
,"[0, 0.2]",None,,,,,,,,,0.0,4.0,4.0,4.0,3486.774018600001,,,,,,,,,,,,,,,,,,,,,,,,,,,,,,,,,,,,,,,,,,,,,,,,,,,,,,,,,,,,,,,,3486.7584161999985,3486.774018600001,3486.774018600001,3487.257187900017,3487.273943600012,3489.7571885000216,3489.757363600016,None,1.0,,,,,,nback61,1.0,2024-01-19_09h53.51.036,untitled,2023.2.3,59.930193309526736,2024-01-19 09h54.45.882577 -0500,
,"[0.2, -0.1]",space,,,,,,,,,0.0,5.0,5.0,5.0,3489.774015700008,,,,,,,,,,,,,,,,,,,,,,,,,,,,,,,,,,,,,,,,,,,,,,,,,,,,,,,,,,,,,,,,3489.7580473000125,3489.774015700008,3489.774015700008,3490.2572390999994,3490.2738473000063,3492.757393800013,3492.7576211999985,space,1.0,0.5903430000180379,None,,,,nback61,1.0,2024-01-19_09h53.51.036,untitled,2023.2.3,59.930193309526736,2024-01-19 09h54.45.882577 -0500,
,"[0, -0.2]",None,,,,,,,,,0.0,6.0,6.0,6.0,3492.773819300026,,,,,,,,,,,,,,,,,,,,,,,,,,,,,,,,,,,,,,,,,,,,,,,,,,,,,,,,,,,,,,,,3492.758892000013,3492.773819300026,3492.773819300026,3493.257117100002,3493.2739745000144,3495.7571433000267,3495.757300199999,None,1.0,,,,,,nback61,1.0,2024-01-19_09h53.51.036,untitled,2023.2.3,59.930193309526736,2024-01-19 09h54.45.882577 -0500,
,"[0.64, -0.4]",None,,,,,,,,,0.0,7.0,7.0,7.0,3495.773809900013,,,,,,,,,,,,,,,,,,,,,,,,,,,,,,,,,,,,,,,,,,,,,,,,,,,,,,,,,,,,,,,,3495.7578591000056,3495.773809900013,3495.773809900013,3496.257231800002,3496.273852400016,3498.757044400001,3498.7572428999997,None,1.0,,,,,,nback61,1.0,2024-01-19_09h53.51.036,untitled,2023.2.3,59.930193309526736,2024-01-19 09h54.45.882577 -0500,
,"[0.3, 0]",None,,,,,,,,,0.0,8.0,8.0,8.0,3498.773717000004,,,,,,,,,,,,,,,,,,,,,,,,,,,,,,,,,,,,,,,,,,,,,,,,,,,,,,,,,,,,,,,,3498.7580307000026,3498.773717000004,3498.773717000004,3499.2569834000024,3499.273652200005,3501.756972100004,3501.7571529000124,None,1.0,,,,,,nback61,1.0,2024-01-19_09h53.51.036,untitled,2023.2.3,59.930193309526736,2024-01-19 09h54.45.882577 -0500,
,"[0.64, -0.4]",space,,,,,,,,,0.0,9.0,9.0,9.0,3501.773830900027,,,,,,,,,,,,,,,,,,,,,,,,,,,,,,,,,,,,,,,,,,,,,,,,,,,,,,,,,,,,,,,,3501.7577888000237,3501.773830900027,3501.773830900027,3502.256997600023,3502.273688700021,3504.757052000001,3504.7572329000104,space,1.0,0.7789369999954943,None,,,,nback61,1.0,2024-01-19_09h53.51.036,untitled,2023.2.3,59.930193309526736,2024-01-19 09h54.45.882577 -0500,
,"[-0.64, 0.4]",None,,,,,,,,,0.0,10.0,10.0,10.0,3504.773753300018,,,,,,,,,,,,,,,,,,,,,,,,,,,,,,,,,,,,,,,,,,,,,,,,,,,,,,,,,,,,,,,,3504.7580431000097,3504.773753300018,3504.773753300018,3505.257110800012,3505.2735835000058,3507.7570779000234,3507.7572814000014,None,1.0,,,,,,nback61,1.0,2024-01-19_09h53.51.036,untitled,2023.2.3,59.930193309526736,2024-01-19 09h54.45.882577 -0500,
,"[0.2, 0.1]",None,,,,,,,,,0.0,11.0,11.0,11.0,3507.7736690000165,,,,,,,,,,,,,,,,,,,,,,,,,,,,,,,,,,,,,,,,,,,,,,,,,,,,,,,,,,,,,,,,3507.758064500027,3507.7736690000165,3507.7736690000165,3508.257071,3508.2737346000213,3510.7569731000112,3510.757157200016,None,1.0,,,,,,nback61,1.0,2024-01-19_09h53.51.036,untitled,2023.2.3,59.930193309526736,2024-01-19 09h54.45.882577 -0500,
,"[0.3, 0]",None,,,,,,,,,0.0,12.0,12.0,12.0,3510.7736669000005,,,,,,,,,,,,,,,,,,,,,,,,,,,,,,,,,,,,,,,,,,,,,,,,,,,,,,,,,,,,,,,,3510.757916100003,3510.7736669000005,3510.7736669000005,3511.2569258000003,3511.273542400013,3513.7567346,3513.7569045000128,None,1.0,,,,,,nback61,1.0,2024-01-19_09h53.51.036,untitled,2023.2.3,59.930193309526736,2024-01-19 09h54.45.882577 -0500,
,"[0.2, 0.1]",space,,,,,,,,,0.0,13.0,13.0,13.0,3513.7734874000016,,,,,,,,,,,,,,,,,,,,,,,,,,,,,,,,,,,,,,,,,,,,,,,,,,,,,,,,,,,,,,,,3513.757544700027,3513.7734874000016,3513.7734874000016,3514.2569443000248,3514.2736168000265,3516.7567860000127,3516.7570443000004,space,1.0,0.535033599997405,None,,,,nback61,1.0,2024-01-19_09h53.51.036,untitled,2023.2.3,59.930193309526736,2024-01-19 09h54.45.882577 -0500,
,"[-0.3, 0]",None,,,,,,,,,0.0,14.0,14.0,14.0,3516.7734310000087,,,,,,,,,,,,,,,,,,,,,,,,,,,,,,,,,,,,,,,,,,,,,,,,,,,,,,,,,,,,,,,,3516.7582138,3516.7734310000087,3516.7734310000087,3517.2568545000104,3517.273350000003,3519.756911100005,3519.757111700019,None,1.0,,,,,,nback61,1.0,2024-01-19_09h53.51.036,untitled,2023.2.3,59.930193309526736,2024-01-19 09h54.45.882577 -0500,
,"[0, 0.2]",None,,,,,,,,,0.0,15.0,15.0,15.0,3519.773268900026,,,,,,,,,,,,,,,,,,,,,,,,,,,,,,,,,,,,,,,,,,,,,,,,,,,,,,,,,,,,,,,,3519.7578674000106,3519.773268900026,3519.773268900026,3520.2567844000005,3520.2733130000124,3522.756465200014,3522.7565714000084,None,1.0,,,,,,nback61,1.0,2024-01-19_09h53.51.036,untitled,2023.2.3,59.930193309526736,2024-01-19 09h54.45.882577 -0500,
,"[-0.3, 0]",space,,,,,,,,,0.0,16.0,16.0,16.0,3522.7731725000194,,,,,,,,,,,,,,,,,,,,,,,,,,,,,,,,,,,,,,,,,,,,,,,,,,,,,,,,,,,,,,,,3522.756935900019,3522.7731725000194,3522.7731725000194,3523.256733600021,3523.273342200002,3525.756620900007,3525.756834100001,space,1.0,0.872008399979677,None,,,,nback61,1.0,2024-01-19_09h53.51.036,untitled,2023.2.3,59.930193309526736,2024-01-19 09h54.45.882577 -0500,
,"[-0.64, -0.4]",None,,,,,,,,,0.0,17.0,17.0,17.0,3525.773184200021,,,,,,,,,,,,,,,,,,,,,,,,,,,,,,,,,,,,,,,,,,,,,,,,,,,,,,,,,,,,,,,,3525.757741300011,3525.773184200021,3525.773184200021,3526.2565932,3526.273301900015,3528.756675800017,3528.7568873000278,None,1.0,,,,,,nback61,1.0,2024-01-19_09h53.51.036,untitled,2023.2.3,59.930193309526736,2024-01-19 09h54.45.882577 -0500,
,"[-0.2, -0.1]",None,,,,,,,,,0.0,18.0,18.0,18.0,3528.773157000018,,,,,,,,,,,,,,,,,,,,,,,,,,,,,,,,,,,,,,,,,,,,,,,,,,,,,,,,,,,,,,,,3528.7576369000017,3528.773157000018,3528.773157000018,3529.256441800011,3529.273187600018,3531.756429900008,3531.75658690001,None,1.0,,,,,,nback61,1.0,2024-01-19_09h53.51.036,untitled,2023.2.3,59.930193309526736,2024-01-19 09h54.45.882577 -0500,
,"[0.2, -0.1]",None,,,,,,,,,0.0,19.0,19.0,19.0,3531.773106500012,,,,,,,,,,,,,,,,,,,,,,,,,,,,,,,,,,,,,,,,,,,,,,,,,,,,,,,,,,,,,,,,3531.7571704,3531.773106500012,3531.773106500012,3532.2564901000005,3532.2731833000144,3534.756565700023,3534.756754300004,None,1.0,,,,,,nback61,1.0,2024-01-19_09h53.51.036,untitled,2023.2.3,59.930193309526736,2024-01-19 09h54.45.882577 -0500,
,"[0.2, -0.1]",None,,,,,,,,,0.0,20.0,20.0,20.0,3534.7730912000115,,,,,,,,,,,,,,,,,,,,,,,,,,,,,,,,,,,,,,,,,,,,,,,,,,,,,,,,,,,,,,,,3534.7574825000197,3534.7730912000115,3534.7730912000115,3535.256453000009,3535.273142100021,3537.756442400016,3537.756632000004,None,1.0,,,,,,nback61,1.0,2024-01-19_09h53.51.036,untitled,2023.2.3,59.930193309526736,2024-01-19 09h54.45.882577 -0500,
,"[-0.64, 0.4]",None,,,,,,,,,0.0,21.0,21.0,21.0,3537.773066599999,,,,,,,,,,,,,,,,,,,,,,,,,,,,,,,,,,,,,,,,,,,,,,,,,,,,,,,,,,,,,,,,3537.757483400026,3537.773066599999,3537.773066599999,3538.256502300006,3538.273154100025,3540.7564246000256,3540.756623699999,None,1.0,,,,,,nback61,1.0,2024-01-19_09h53.51.036,untitled,2023.2.3,59.930193309526736,2024-01-19 09h54.45.882577 -0500,
,"[0, 0.2]",None,,,,,,,,,0.0,22.0,22.0,22.0,3540.773086300004,,,,,,,,,,,,,,,,,,,,,,,,,,,,,,,,,,,,,,,,,,,,,,,,,,,,,,,,,,,,,,,,3540.7573722000234,3540.773086300004,3540.773086300004,3541.256068000017,3541.272890400025,3543.7565117000195,3543.7567302000243,None,1.0,,,,,,nback61,1.0,2024-01-19_09h53.51.036,untitled,2023.2.3,59.930193309526736,2024-01-19 09h54.45.882577 -0500,
,"[0.64, -0.4]",None,,,,,,,,,0.0,23.0,23.0,23.0,3543.7728541000106,,,,,,,,,,,,,,,,,,,,,,,,,,,,,,,,,,,,,,,,,,,,,,,,,,,,,,,,,,,,,,,,3543.7575749000243,3543.7728541000106,3543.7728541000106,3544.256315700012,3544.2731079000223,3546.7561312000034,3546.7563057000225,None,1.0,,,,,,nback61,1.0,2024-01-19_09h53.51.036,untitled,2023.2.3,59.930193309526736,2024-01-19 09h54.45.882577 -0500,
,"[0, 0.2]",space,,,,,,,,,0.0,24.0,24.0,24.0,3546.7728334999997,,,,,,,,,,,,,,,,,,,,,,,,,,,,,,,,,,,,,,,,,,,,,,,,,,,,,,,,,,,,,,,,3546.757001800026,3546.7728334999997,3546.7728334999997,3547.2562701000134,3547.272861300007,3549.7562563000247,3549.7564565000066,space,1.0,0.5254491000087,None,,,,nback61,1.0,2024-01-19_09h53.51.036,untitled,2023.2.3,59.930193309526736,2024-01-19 09h54.45.882577 -0500,
,"[-0.2, 0.1]",None,,,,,,,,,0.0,25.0,25.0,25.0,3549.772982000024,,,,,,,,,,,,,,,,,,,,,,,,,,,,,,,,,,,,,,,,,,,,,,,,,,,,,,,,,,,,,,,,3549.7574032000266,3549.772982000024,3549.772982000024,3550.256146,3550.272892400011,3552.756093200005,3552.756292800012,None,1.0,,,,,,nback61,1.0,2024-01-19_09h53.51.036,untitled,2023.2.3,59.930193309526736,2024-01-19 09h54.45.882577 -0500,
,"[0.3, 0]",None,,,,,,,,,0.0,26.0,26.0,26.0,3552.7729723000084,,,,,,,,,,,,,,,,,,,,,,,,,,,,,,,,,,,,,,,,,,,,,,,,,,,,,,,,,,,,,,,,3552.757096300018,3552.7729723000084,3552.7729723000084,3553.256087800022,3553.2726469000045,3555.756235000008,3555.7564512000245,None,1.0,,,,,,nback61,1.0,2024-01-19_09h53.51.036,untitled,2023.2.3,59.930193309526736,2024-01-19 09h54.45.882577 -0500,
,"[-0.2, 0.1]",space,,,,,,,,,0.0,27.0,27.0,27.0,3555.772905300022,,,,,,,,,,,,,,,,,,,,,,,,,,,,,,,,,,,,,,,,,,,,,,,,,,,,,,,,,,,,,,,,3555.7572659,3555.772905300022,3555.772905300022,3556.256182800018,3556.272890400025,3558.756098400016,3558.756271600025,space,1.0,0.7242780999804381,None,,,,nback61,1.0,2024-01-19_09h53.51.036,untitled,2023.2.3,59.930193309526736,2024-01-19 09h54.45.882577 -0500,
,"[-0.2, 0.1]",None,,,,,,,,,0.0,28.0,28.0,28.0,3558.772738200001,,,,,,,,,,,,,,,,,,,,,,,,,,,,,,,,,,,,,,,,,,,,,,,,,,,,,,,,,,,,,,,,3558.757087100006,3558.772738200001,3558.772738200001,3559.256225000019,3559.272637200018,3561.756043500005,3561.7562454,None,1.0,,,,,,nback61,1.0,2024-01-19_09h53.51.036,untitled,2023.2.3,59.930193309526736,2024-01-19 09h54.45.882577 -0500,
,"[0.2, 0.1]",None,,,,,,,,,0.0,29.0,29.0,29.0,3561.77271260001,,,,,,,,,,,,,,,,,,,,,,,,,,,,,,,,,,,,,,,,,,,,,,,,,,,,,,,,,,,,,,,,3561.7570062000013,3561.77271260001,3561.77271260001,3562.2559591000027,3562.2725722000177,3564.756046000024,3564.7562419000024,None,1.0,,,,,,nback61,1.0,2024-01-19_09h53.51.036,untitled,2023.2.3,59.930193309526736,2024-01-19 09h54.45.882577 -0500,
,"[-0.64, -0.4]",None,,,,,,,,,0.0,30.0,30.0,30.0,3564.772628000006,,,,,,,,,,,,,,,,,,,,,,,,,,,,,,,,,,,,,,,,,,,,,,,,,,,,,,,,,,,,,,,,3564.7571484000077,3564.772628000006,3564.772628000006,3565.2562021000194,3565.2727293000207,3567.7560055000067,3567.7562079000054,None,1.0,,,,,,nback61,1.0,2024-01-19_09h53.51.036,untitled,2023.2.3,59.930193309526736,2024-01-19 09h54.45.882577 -0500,
,"[0, -0.2]",None,,,,,,,,,0.0,31.0,31.0,31.0,3567.7726750000147,,,,,,,,,,,,,,,,,,,,,,,,,,,,,,,,,,,,,,,,,,,,,,,,,,,,,,,,,,,,,,,,3567.7569800000056,3567.7726750000147,3567.7726750000147,3568.2559065000096,3568.272596300026,3570.755892200017,3570.756080100022,None,1.0,,,,,,nback61,1.0,2024-01-19_09h53.51.036,untitled,2023.2.3,59.930193309526736,2024-01-19 09h54.45.882577 -0500,
,"[-0.64, -0.4]",space,,,,,,,,,0.0,32.0,32.0,32.0,3570.7726121000014,,,,,,,,,,,,,,,,,,,,,,,,,,,,,,,,,,,,,,,,,,,,,,,,,,,,,,,,,,,,,,,,3570.756789700012,3570.7726121000014,3570.7726121000014,3571.256047700008,3571.272440600005,3573.755903900019,3573.756090800016,space,1.0,0.8508505999925546,None,,,,nback61,1.0,2024-01-19_09h53.51.036,untitled,2023.2.3,59.930193309526736,2024-01-19 09h54.45.882577 -0500,
,"[0.64, 0.4]",None,,,,,,,,,0.0,33.0,33.0,33.0,3573.772381100018,,,,,,,,,,,,,,,,,,,,,,,,,,,,,,,,,,,,,,,,,,,,,,,,,,,,,,,,,,,,,,,,3573.756875000021,3573.772381100018,3573.772381100018,3574.25595750002,3574.272315200011,3576.755819300015,3576.756021900015,None,1.0,,,,,,nback61,1.0,2024-01-19_09h53.51.036,untitled,2023.2.3,59.930193309526736,2024-01-19 09h54.45.882577 -0500,
,"[-0.3, 0]",None,,,,,,,,,0.0,34.0,34.0,34.0,3576.772456100007,,,,,,,,,,,,,,,,,,,,,,,,,,,,,,,,,,,,,,,,,,,,,,,,,,,,,,,,,,,,,,,,3576.756826500001,3576.772456100007,3576.772456100007,3577.2557432000176,3577.272525700013,3579.7557253999985,3579.75592950001,None,1.0,,,,,,nback61,1.0,2024-01-19_09h53.51.036,untitled,2023.2.3,59.930193309526736,2024-01-19 09h54.45.882577 -0500,
,"[0.3, 0]",None,,,,,,,,,0.0,35.0,35.0,35.0,3579.772325900005,,,,,,,,,,,,,,,,,,,,,,,,,,,,,,,,,,,,,,,,,,,,,,,,,,,,,,,,,,,,,,,,3579.756729000015,3579.772325900005,3579.772325900005,3580.25586580002,3580.2724375000107,3582.755624400015,3582.755781400017,None,1.0,,,,,,nback61,1.0,2024-01-19_09h53.51.036,untitled,2023.2.3,59.930193309526736,2024-01-19 09h54.45.882577 -0500,
,"[-0.3, 0]",space,,,,,,,,,0.0,36.0,36.0,36.0,3582.772204000008,,,,,,,,,,,,,,,,,,,,,,,,,,,,,,,,,,,,,,,,,,,,,,,,,,,,,,,,,,,,,,,,3582.7564313000184,3582.772204000008,3582.772204000008,3583.2555220000213,3583.272315500013,3585.755683000025,3585.755894800008,space,1.0,0.55108640002436,None,,,,nback61,1.0,2024-01-19_09h53.51.036,untitled,2023.2.3,59.930193309526736,2024-01-19 09h54.45.882577 -0500,
,"[0, -0.2]",None,,,,,,,,,0.0,37.0,37.0,37.0,3585.7721653000044,,,,,,,,,,,,,,,,,,,,,,,,,,,,,,,,,,,,,,,,,,,,,,,,,,,,,,,,,,,,,,,,3585.756807900005,3585.7721653000044,3585.7721653000044,3586.255521700019,3586.272301400022,3588.7555717000214,3588.7557756000024,None,1.0,,,,,,nback61,1.0,2024-01-19_09h53.51.036,untitled,2023.2.3,59.930193309526736,2024-01-19 09h54.45.882577 -0500,
,"[0.3, 0]",None,,,,,,,,,0.0,38.0,38.0,38.0,3588.77226290002,,,,,,,,,,,,,,,,,,,,,,,,,,,,,,,,,,,,,,,,,,,,,,,,,,,,,,,,,,,,,,,,3588.756573200022,3588.77226290002,3588.77226290002,3589.2555514000123,3589.2723128000216,3591.755347700004,3591.755506800022,space,0.0,1.2980998999846634,None,,,,nback61,1.0,2024-01-19_09h53.51.036,untitled,2023.2.3,59.930193309526736,2024-01-19 09h54.45.882577 -0500,
,"[0.2, 0.1]",None,,,,,,,,,0.0,39.0,39.0,39.0,3591.771974300005,,,,,,,,,,,,,,,,,,,,,,,,,,,,,,,,,,,,,,,,,,,,,,,,,,,,,,,,,,,,,,,,3591.7564384000143,3591.771974300005,3591.771974300005,3592.2554001000244,3592.272023700003,3594.7553701,3594.755581800011,None,1.0,,,,,,nback61,1.0,2024-01-19_09h53.51.036,untitled,2023.2.3,59.930193309526736,2024-01-19 09h54.45.882577 -0500,
,,,,,,,,,,,,,,,,,,,,,,,,,,,,,,,,,,,,,,,,,,,,,,,,,,,,,,,,,,,,,,,,,,,,,,,,,,,,,,,,,,,,,,,,,,3594.756163100013,3594.772184900008,3597.7555621000065,,,,,,,,
