square,location,corrAns,trials_0.thisRepN,trials_0.thisTrialN,trials_0.thisN,trials_0.thisIndex,trials_1.thisRepN,trials_1.thisTrialN,trials_1.thisN,trials_1.thisIndex,trials_2.thisRepN,trials_2.thisTrialN,trials_2.thisN,trials_2.thisIndex,thisRow.t,notes,Instructions.started,instructions.started,key_resp.started,inst_sq11.started,Instructions.stopped,key_resp.keys,key_resp.rt,key_resp.duration,All.started,sq_1.started,sq_2.started,sq_3.started,sq_4.started,sq_5.started,sq_6.started,sq_7.started,sq_8.started,sq_9.started,sq_10.started,sq_11.started,sq_12.started,All.stopped,Fixation.started,fixation_3.started,fixation_3.stopped,Fixation.stopped,N_back_0_Trial.started,target_square_0.started,response_0.started,fixation_0.started,target_square_0.stopped,fixation_0.stopped,N_back_0_Trial.stopped,response_0.keys,response_0.corr,response_0.rt,response_0.duration,Instructions_1.started,instructions_1.started,key_resp_1.started,Instructions_1.stopped,key_resp_1.keys,key_resp_1.rt,key_resp_1.duration,N_back_1_Trial.started,target_square_1.started,response_1.started,target_square_1.stopped,fixation_1.started,fixation_1.stopped,response_1.stopped,N_back_1_Trial.stopped,response_1.keys,response_1.corr,response_1.rt,response_1.duration,Instructions_2.started,instructions_2.started,key_resp_2.started,Instructions_2.stopped,key_resp_2.keys,key_resp_2.rt,key_resp_2.duration,N_back_2_trials.started,target_square_2.started,response_2.started,target_square_2.stopped,fixation_2.started,fixation_2.stopped,response_2.stopped,N_back_2_trials.stopped,response_2.keys,response_2.corr,response_2.rt,response_2.duration,End.started,thank_you.started,thank_you.stopped,End.stopped,participant,session,date,expName,psychopyVersion,frameRate,expStart,
,,,,,,,,,,,,,,,,,0.0014228000000002794,0.00409559999980047,0.00409559999980047,0.00409559999980047,44.171769199999744,space,44.160352500000045,None,,,,,,,,,,,,,,,,,,,,,,,,,,,,,,,,,,,,,,,,,,,,,,,,,,,,,,,,,,,,,,,,,,,,,,,,nback21,001,2023-12-12_11h18.41.563,untitled,2023.2.3,60.03035134558554,2023-12-12 11h59.00.409282 -0500,
6,"[-0.3, 0]",None,0,0,0,0,,,,,,,,,46.19093269999985,,,,,,,,,,44.17181660000006,44.18636680000009,44.18636680000009,44.18636680000009,44.18636680000009,44.18636680000009,44.18636680000009,44.18636680000009,44.18636680000009,44.18636680000009,44.18636680000009,44.18636680000009,44.18636680000009,45.170392999999876,45.17040989999987,45.186360199999854,46.19093269999985,46.17092240000011,46.18896670000004,46.19093269999985,46.19093269999985,46.669833500000095,46.703229199999896,49.16984279999997,49.18677200000002,None,1,,,,,,,,,,,,,,,,,,,,,,,,,,,,,,,,,,,,,,,,,,,,,nback21,001,2023-12-12_11h18.41.563,untitled,2023.2.3,60.03035134558554,2023-12-12 11h59.00.409282 -0500,
10,"[0, -0.2]",None,0,1,1,1,,,,,,,,,49.20309980000002,,,,,,,,,,,,,,,,,,,,,,,,,,,,49.18792110000004,49.20309980000002,49.20309980000002,49.669873199999984,49.70326720000003,52.169824999999946,52.18666949999988,None,1,,,,,,,,,,,,,,,,,,,,,,,,,,,,,,,,,,,,,,,,,,,,,nback21,001,2023-12-12_11h18.41.563,untitled,2023.2.3,60.03035134558554,2023-12-12 11h59.00.409282 -0500,
11,"[-0.64, -0.4]",space,0,2,2,2,,,,,,,,,52.20325169999978,,,,,,,,,,,,,,,,,,,,,,,,,,,,52.187599299999874,52.20325169999978,52.20325169999978,52.66981749999968,52.703133799999705,55.16984779999984,55.18664510000008,space,1,0.5786007000001518,None,,,,,,,,,,,,,,,,,,,,,,,,,,,,,,,,,,,,,,,,,,,nback21,001,2023-12-12_11h18.41.563,untitled,2023.2.3,60.03035134558554,2023-12-12 11h59.00.409282 -0500,
12,"[0.64, -0.4]",None,0,3,3,3,,,,,,,,,55.202906299999995,,,,,,,,,,,,,,,,,,,,,,,,,,,,55.18793689999984,55.202906299999995,55.202906299999995,55.66979439999977,55.70312879999983,58.16963149999992,58.186462599999686,None,1,,,,,,,,,,,,,,,,,,,,,,,,,,,,,,,,,,,,,,,,,,,,,nback21,001,2023-12-12_11h18.41.563,untitled,2023.2.3,60.03035134558554,2023-12-12 11h59.00.409282 -0500,
1,"[-0.64, 0.4]",None,0,4,4,4,,,,,,,,,58.202987799999846,,,,,,,,,,,,,,,,,,,,,,,,,,,,58.18740559999969,58.202987799999846,58.202987799999846,58.66964999999982,58.70301299999983,61.169561299999714,61.18647519999968,None,1,,,,,,,,,,,,,,,,,,,,,,,,,,,,,,,,,,,,,,,,,,,,,nback21,001,2023-12-12_11h18.41.563,untitled,2023.2.3,60.03035134558554,2023-12-12 11h59.00.409282 -0500,
1,"[-0.64, 0.4]",None,0,5,5,5,,,,,,,,,61.20298839999987,,,,,,,,,,,,,,,,,,,,,,,,,,,,61.18724380000003,61.20298839999987,61.20298839999987,61.6695021999999,61.702857100000074,64.1694677999999,64.1865942999998,None,1,,,,,,,,,,,,,,,,,,,,,,,,,,,,,,,,,,,,,,,,,,,,,nback21,001,2023-12-12_11h18.41.563,untitled,2023.2.3,60.03035134558554,2023-12-12 11h59.00.409282 -0500,
4,"[-0.2, 0.1]",None,0,6,6,6,,,,,,,,,64.2029462999999,,,,,,,,,,,,,,,,,,,,,,,,,,,,64.18745540000009,64.2029462999999,64.2029462999999,64.66964359999974,64.70273689999976,67.16944909999984,67.18620609999971,None,1,,,,,,,,,,,,,,,,,,,,,,,,,,,,,,,,,,,,,,,,,,,,,nback21,001,2023-12-12_11h18.41.563,untitled,2023.2.3,60.03035134558554,2023-12-12 11h59.00.409282 -0500,
5,"[0.2, 0.1]",None,0,7,7,7,,,,,,,,,67.20271349999985,,,,,,,,,,,,,,,,,,,,,,,,,,,,67.18692959999998,67.20271349999985,67.20271349999985,67.66934709999987,67.70310149999978,70.16952169999968,70.1863202999998,None,1,,,,,,,,,,,,,,,,,,,,,,,,,,,,,,,,,,,,,,,,,,,,,nback21,001,2023-12-12_11h18.41.563,untitled,2023.2.3,60.03035134558554,2023-12-12 11h59.00.409282 -0500,
11,"[-0.64, -0.4]",space,0,8,8,8,,,,,,,,,70.20275670000001,,,,,,,,,,,,,,,,,,,,,,,,,,,,70.18719389999978,70.20275670000001,70.20275670000001,70.6693808,70.70280619999994,73.16929600000003,73.1861973,space,1,0.47441699999990306,None,,,,,,,,,,,,,,,,,,,,,,,,,,,,,,,,,,,,,,,,,,,nback21,001,2023-12-12_11h18.41.563,untitled,2023.2.3,60.03035134558554,2023-12-12 11h59.00.409282 -0500,
9,"[0.2, -0.1]",None,0,9,9,9,,,,,,,,,73.20287259999986,,,,,,,,,,,,,,,,,,,,,,,,,,,,73.18699770000012,73.20287259999986,73.20287259999986,73.66938140000002,73.70282829999996,76.16937250000001,76.18622989999994,None,1,,,,,,,,,,,,,,,,,,,,,,,,,,,,,,,,,,,,,,,,,,,,,nback21,001,2023-12-12_11h18.41.563,untitled,2023.2.3,60.03035134558554,2023-12-12 11h59.00.409282 -0500,
8,"[-0.2, -0.1]",None,0,10,10,10,,,,,,,,,76.20283919999974,,,,,,,,,,,,,,,,,,,,,,,,,,,,76.18707670000003,76.20283919999974,76.20283919999974,76.68595189999996,76.70266099999981,79.18600909999986,79.18621540000004,None,1,,,,,,,,,,,,,,,,,,,,,,,,,,,,,,,,,,,,,,,,,,,,,nback21,001,2023-12-12_11h18.41.563,untitled,2023.2.3,60.03035134558554,2023-12-12 11h59.00.409282 -0500,
9,"[0.2, -0.1]",None,0,11,11,11,,,,,,,,,79.2026550999999,,,,,,,,,,,,,,,,,,,,,,,,,,,,79.18702600000006,79.2026550999999,79.2026550999999,79.68596849999994,79.7025934999997,82.1858514999999,82.18599659999973,None,1,,,,,,,,,,,,,,,,,,,,,,,,,,,,,,,,,,,,,,,,,,,,,nback21,001,2023-12-12_11h18.41.563,untitled,2023.2.3,60.03035134558554,2023-12-12 11h59.00.409282 -0500,
6,"[-0.3, 0]",None,0,12,12,12,,,,,,,,,82.20241749999968,,,,,,,,,,,,,,,,,,,,,,,,,,,,82.18651939999972,82.20241749999968,82.20241749999968,82.68583189999981,82.70258990000002,85.18592459999991,85.18612209999992,None,1,,,,,,,,,,,,,,,,,,,,,,,,,,,,,,,,,,,,,,,,,,,,,nback21,001,2023-12-12_11h18.41.563,untitled,2023.2.3,60.03035134558554,2023-12-12 11h59.00.409282 -0500,
9,"[0.2, -0.1]",None,0,13,13,13,,,,,,,,,85.20251439999993,,,,,,,,,,,,,,,,,,,,,,,,,,,,85.18691279999985,85.20251439999993,85.20251439999993,85.68584199999987,85.7026206999999,88.18575089999968,88.18591560000004,None,1,,,,,,,,,,,,,,,,,,,,,,,,,,,,,,,,,,,,,,,,,,,,,nback21,001,2023-12-12_11h18.41.563,untitled,2023.2.3,60.03035134558554,2023-12-12 11h59.00.409282 -0500,
7,"[0.3, 0]",None,0,14,14,14,,,,,,,,,88.20228309999993,,,,,,,,,,,,,,,,,,,,,,,,,,,,88.1864728999999,88.20228309999993,88.20228309999993,88.6858385999999,88.70245419999992,91.18585690000009,91.18603839999969,None,1,,,,,,,,,,,,,,,,,,,,,,,,,,,,,,,,,,,,,,,,,,,,,nback21,001,2023-12-12_11h18.41.563,untitled,2023.2.3,60.03035134558554,2023-12-12 11h59.00.409282 -0500,
2,"[0.64, 0.4]",None,0,15,15,15,,,,,,,,,91.20236309999973,,,,,,,,,,,,,,,,,,,,,,,,,,,,91.18675480000002,91.20236309999973,91.20236309999973,91.68573340000012,91.7024323999999,94.18582979999974,94.18603839999969,None,1,,,,,,,,,,,,,,,,,,,,,,,,,,,,,,,,,,,,,,,,,,,,,nback21,001,2023-12-12_11h18.41.563,untitled,2023.2.3,60.03035134558554,2023-12-12 11h59.00.409282 -0500,
2,"[0.64, 0.4]",None,0,16,16,16,,,,,,,,,94.2024123000001,,,,,,,,,,,,,,,,,,,,,,,,,,,,94.18685879999975,94.2024123000001,94.2024123000001,94.68563210000002,94.70220680000011,97.18555669999978,97.1857528999999,None,1,,,,,,,,,,,,,,,,,,,,,,,,,,,,,,,,,,,,,,,,,,,,,nback21,001,2023-12-12_11h18.41.563,untitled,2023.2.3,60.03035134558554,2023-12-12 11h59.00.409282 -0500,
11,"[-0.64, -0.4]",space,0,17,17,17,,,,,,,,,97.20235019999973,,,,,,,,,,,,,,,,,,,,,,,,,,,,97.18652079999993,97.20235019999973,97.20235019999973,97.68571909999991,97.70214799999985,100.18562599999996,100.18580119999979,space,1,0.4056571000000986,None,,,,,,,,,,,,,,,,,,,,,,,,,,,,,,,,,,,,,,,,,,,nback21,001,2023-12-12_11h18.41.563,untitled,2023.2.3,60.03035134558554,2023-12-12 11h59.00.409282 -0500,
11,"[-0.64, -0.4]",space,0,18,18,18,,,,,,,,,100.20218859999977,,,,,,,,,,,,,,,,,,,,,,,,,,,,100.1866473,100.20218859999977,100.20218859999977,100.68560639999987,100.70226409999987,103.18555289999995,103.1857372999998,space,1,0.48343130000012025,None,,,,,,,,,,,,,,,,,,,,,,,,,,,,,,,,,,,,,,,,,,,nback21,001,2023-12-12_11h18.41.563,untitled,2023.2.3,60.03035134558554,2023-12-12 11h59.00.409282 -0500,
7,"[0.3, 0]",None,0,19,19,19,,,,,,,,,103.20212719999972,,,,,,,,,,,,,,,,,,,,,,,,,,,,103.1866344,103.20212719999972,103.20212719999972,103.68557220000002,103.70219249999991,106.18558559999974,106.18575809999993,None,1,,,,,,,,,,,,,,,,,,,,,,,,,,,,,,,,,,,,,,,,,,,,,nback21,001,2023-12-12_11h18.41.563,untitled,2023.2.3,60.03035134558554,2023-12-12 11h59.00.409282 -0500,
3,"[0, 0.2]",None,0,20,20,20,,,,,,,,,106.20202749999999,,,,,,,,,,,,,,,,,,,,,,,,,,,,106.18648489999987,106.20202749999999,106.20202749999999,106.68554649999987,106.70212979999997,109.18540669999993,109.18556499999977,None,1,,,,,,,,,,,,,,,,,,,,,,,,,,,,,,,,,,,,,,,,,,,,,nback21,001,2023-12-12_11h18.41.563,untitled,2023.2.3,60.03035134558554,2023-12-12 11h59.00.409282 -0500,
10,"[0, -0.2]",None,0,21,21,21,,,,,,,,,109.20210270000007,,,,,,,,,,,,,,,,,,,,,,,,,,,,109.18632069999967,109.20210270000007,109.20210270000007,109.68542799999977,109.70208219999995,112.18534529999988,112.18551489999982,None,1,,,,,,,,,,,,,,,,,,,,,,,,,,,,,,,,,,,,,,,,,,,,,nback21,001,2023-12-12_11h18.41.563,untitled,2023.2.3,60.03035134558554,2023-12-12 11h59.00.409282 -0500,
1,"[-0.64, 0.4]",None,0,22,22,22,,,,,,,,,112.20200440000008,,,,,,,,,,,,,,,,,,,,,,,,,,,,112.18615760000012,112.20200440000008,112.20200440000008,112.68551819999993,112.70217700000012,115.18539650000002,115.18560249999973,None,1,,,,,,,,,,,,,,,,,,,,,,,,,,,,,,,,,,,,,,,,,,,,,nback21,001,2023-12-12_11h18.41.563,untitled,2023.2.3,60.03035134558554,2023-12-12 11h59.00.409282 -0500,
2,"[0.64, 0.4]",None,0,23,23,23,,,,,,,,,115.20192229999975,,,,,,,,,,,,,,,,,,,,,,,,,,,,115.18637489999992,115.20192229999975,115.20192229999975,115.6852845999997,115.70206529999996,118.18524829999978,118.18542690000004,None,1,,,,,,,,,,,,,,,,,,,,,,,,,,,,,,,,,,,,,,,,,,,,,nback21,001,2023-12-12_11h18.41.563,untitled,2023.2.3,60.03035134558554,2023-12-12 11h59.00.409282 -0500,
6,"[-0.3, 0]",None,0,24,24,24,,,,,,,,,118.2018635999998,,,,,,,,,,,,,,,,,,,,,,,,,,,,118.18612789999997,118.2018635999998,118.2018635999998,118.6852702000001,118.70177629999989,121.18521770000007,121.18538940000008,None,1,,,,,,,,,,,,,,,,,,,,,,,,,,,,,,,,,,,,,,,,,,,,,nback21,001,2023-12-12_11h18.41.563,untitled,2023.2.3,60.03035134558554,2023-12-12 11h59.00.409282 -0500,
3,"[0, 0.2]",None,0,25,25,25,,,,,,,,,121.20195400000011,,,,,,,,,,,,,,,,,,,,,,,,,,,,121.18612159999975,121.20195400000011,121.20195400000011,121.68521549999969,121.70186680000006,124.18525709999994,124.1854585000001,None,1,,,,,,,,,,,,,,,,,,,,,,,,,,,,,,,,,,,,,,,,,,,,,nback21,001,2023-12-12_11h18.41.563,untitled,2023.2.3,60.03035134558554,2023-12-12 11h59.00.409282 -0500,
11,"[-0.64, -0.4]",space,0,26,26,26,,,,,,,,,124.20188120000012,,,,,,,,,,,,,,,,,,,,,,,,,,,,124.18622759999971,124.20188120000012,124.20188120000012,124.68517440000005,124.70175139999992,127.1852159,127.18539920000012,space,1,0.42643120000002455,None,,,,,,,,,,,,,,,,,,,,,,,,,,,,,,,,,,,,,,,,,,,nback21,001,2023-12-12_11h18.41.563,untitled,2023.2.3,60.03035134558554,2023-12-12 11h59.00.409282 -0500,
1,"[-0.64, 0.4]",None,0,27,27,27,,,,,,,,,127.20197289999987,,,,,,,,,,,,,,,,,,,,,,,,,,,,127.1861871000001,127.20197289999987,127.20197289999987,127.68508010000005,127.70164329999989,130.18518249999988,130.18539229999988,None,1,,,,,,,,,,,,,,,,,,,,,,,,,,,,,,,,,,,,,,,,,,,,,nback21,001,2023-12-12_11h18.41.563,untitled,2023.2.3,60.03035134558554,2023-12-12 11h59.00.409282 -0500,
3,"[0, 0.2]",None,0,28,28,28,,,,,,,,,130.2018533999999,,,,,,,,,,,,,,,,,,,,,,,,,,,,130.1862627999999,130.2018533999999,130.2018533999999,130.68501590000005,130.70163729999967,133.18499729999985,133.18514679999998,None,1,,,,,,,,,,,,,,,,,,,,,,,,,,,,,,,,,,,,,,,,,,,,,nback21,001,2023-12-12_11h18.41.563,untitled,2023.2.3,60.03035134558554,2023-12-12 11h59.00.409282 -0500,
9,"[0.2, -0.1]",None,0,29,29,29,,,,,,,,,133.20165180000004,,,,,,,,,,,,,,,,,,,,,,,,,,,,133.18573190000006,133.20165180000004,133.20165180000004,133.68513910000001,133.7017879,136.1849299999999,136.18511279999984,None,1,,,,,,,,,,,,,,,,,,,,,,,,,,,,,,,,,,,,,,,,,,,,,nback21,001,2023-12-12_11h18.41.563,untitled,2023.2.3,60.03035134558554,2023-12-12 11h59.00.409282 -0500,
8,"[-0.2, -0.1]",None,0,30,30,30,,,,,,,,,136.2015381000001,,,,,,,,,,,,,,,,,,,,,,,,,,,,136.18580699999984,136.2015381000001,136.2015381000001,136.68489739999995,136.7017568000001,139.18509319999976,139.18530490000012,None,1,,,,,,,,,,,,,,,,,,,,,,,,,,,,,,,,,,,,,,,,,,,,,nback21,001,2023-12-12_11h18.41.563,untitled,2023.2.3,60.03035134558554,2023-12-12 11h59.00.409282 -0500,
12,"[0.64, -0.4]",None,0,31,31,31,,,,,,,,,139.2016862999999,,,,,,,,,,,,,,,,,,,,,,,,,,,,139.18613349999987,139.2016862999999,139.2016862999999,139.68482249999988,139.70157579999977,142.18505209999967,142.1852276999998,None,1,,,,,,,,,,,,,,,,,,,,,,,,,,,,,,,,,,,,,,,,,,,,,nback21,001,2023-12-12_11h18.41.563,untitled,2023.2.3,60.03035134558554,2023-12-12 11h59.00.409282 -0500,
9,"[0.2, -0.1]",None,0,32,32,32,,,,,,,,,142.20142159999978,,,,,,,,,,,,,,,,,,,,,,,,,,,,142.18591239999978,142.20142159999978,142.20142159999978,142.68477570000005,142.70144989999972,145.18481780000002,145.1849883,None,1,,,,,,,,,,,,,,,,,,,,,,,,,,,,,,,,,,,,,,,,,,,,,nback21,001,2023-12-12_11h18.41.563,untitled,2023.2.3,60.03035134558554,2023-12-12 11h59.00.409282 -0500,
11,"[-0.64, -0.4]",space,0,33,33,33,,,,,,,,,145.20135589999973,,,,,,,,,,,,,,,,,,,,,,,,,,,,145.18568109999978,145.20135589999973,145.20135589999973,145.68483389999983,145.70151559999977,148.1848347,148.18500949999998,space,1,0.4596587000000909,None,,,,,,,,,,,,,,,,,,,,,,,,,,,,,,,,,,,,,,,,,,,nback21,001,2023-12-12_11h18.41.563,untitled,2023.2.3,60.03035134558554,2023-12-12 11h59.00.409282 -0500,
7,"[0.3, 0]",None,0,34,34,34,,,,,,,,,148.2013291999997,,,,,,,,,,,,,,,,,,,,,,,,,,,,148.1858540999997,148.2013291999997,148.2013291999997,148.6847441,148.70140469999978,151.18477499999972,151.1849718999997,None,1,,,,,,,,,,,,,,,,,,,,,,,,,,,,,,,,,,,,,,,,,,,,,nback21,001,2023-12-12_11h18.41.563,untitled,2023.2.3,60.03035134558554,2023-12-12 11h59.00.409282 -0500,
11,"[-0.64, -0.4]",space,0,35,35,35,,,,,,,,,151.2014654999998,,,,,,,,,,,,,,,,,,,,,,,,,,,,151.1858102000001,151.2014654999998,151.2014654999998,151.68467509999982,151.7015607999997,154.18477660000008,154.18500210000002,space,1,0.48916170000029524,None,,,,,,,,,,,,,,,,,,,,,,,,,,,,,,,,,,,,,,,,,,,nback21,001,2023-12-12_11h18.41.563,untitled,2023.2.3,60.03035134558554,2023-12-12 11h59.00.409282 -0500,
4,"[-0.2, 0.1]",None,0,36,36,36,,,,,,,,,154.20130489999974,,,,,,,,,,,,,,,,,,,,,,,,,,,,154.18603940000003,154.20130489999974,154.20130489999974,154.6846055000001,154.7013010999999,157.18461279999974,157.1848043,None,1,,,,,,,,,,,,,,,,,,,,,,,,,,,,,,,,,,,,,,,,,,,,,nback21,001,2023-12-12_11h18.41.563,untitled,2023.2.3,60.03035134558554,2023-12-12 11h59.00.409282 -0500,
5,"[0.2, 0.1]",None,0,37,37,37,,,,,,,,,157.2013036999997,,,,,,,,,,,,,,,,,,,,,,,,,,,,157.18552009999985,157.2013036999997,157.2013036999997,157.68472870000005,157.7011496,160.1846574000001,160.18485299999975,None,1,,,,,,,,,,,,,,,,,,,,,,,,,,,,,,,,,,,,,,,,,,,,,nback21,001,2023-12-12_11h18.41.563,untitled,2023.2.3,60.03035134558554,2023-12-12 11h59.00.409282 -0500,
6,"[-0.3, 0]",None,0,38,38,38,,,,,,,,,160.20124600000008,,,,,,,,,,,,,,,,,,,,,,,,,,,,160.1856370999999,160.20124600000008,160.20124600000008,160.68459940000002,160.7012549000001,163.18432489999987,163.18445509999992,None,1,,,,,,,,,,,,,,,,,,,,,,,,,,,,,,,,,,,,,,,,,,,,,nback21,001,2023-12-12_11h18.41.563,untitled,2023.2.3,60.03035134558554,2023-12-12 11h59.00.409282 -0500,
11,"[-0.64, -0.4]",space,0,39,39,39,,,,,,,,,163.2010881000001,,,,,,,,,,,,,,,,,,,,,,,,,,,,163.18496109999978,163.2010881000001,163.2010881000001,163.6845433999997,163.70110619999969,166.1845186999999,166.1847276999997,space,1,0.4200697000001128,None,,,,,,,,,,,,,,,,,,,,,,,,,,,,,,,,,,,,,,,,,,,nback21,001,2023-12-12_11h18.41.563,untitled,2023.2.3,60.03035134558554,2023-12-12 11h59.00.409282 -0500,
,,,,,,,,,,,,,,,,,,,,,,,,,,,,,,,,,,,,,,,,,,,,,,,,,,,,,,166.18551769999976,166.2013536999998,166.2013536999998,215.48522409999987,space,49.27024500000016,None,,,,,,,,,,,,,,,,,,,,,,,,,,,,,,,,,,,,nback21,001,2023-12-12_11h18.41.563,untitled,2023.2.3,60.03035134558554,2023-12-12 11h59.00.409282 -0500,
10,"[0, -0.2]",None,,,,,0,0,0,0,,,,,216.5000387,,,,,,,,,,,,,,,,,,,,,,,,215.48526970000012,215.5003902999997,216.5000387,216.4841739999997,,,,,,,,,,,,,,,,,,,216.49436879999985,216.5000387,216.5000387,217.0002655999997,217.0002655999997,219.5001059000001,219.5001059000001,219.48428609999974,None,1,,,,,,,,,,,,,,,,,,,,,,,,,,nback21,001,2023-12-12_11h18.41.563,untitled,2023.2.3,60.03035134558554,2023-12-12 11h59.00.409282 -0500,
5,"[0.2, 0.1]",None,,,,,0,1,1,1,,,,,219.5001059000001,,,,,,,,,,,,,,,,,,,,,,,,,,,,,,,,,,,,,,,,,,,,,,219.48503299999993,219.5001059000001,219.5001059000001,220.0002311999997,220.0002311999997,222.5001653999998,222.5001653999998,222.48421259999986,None,1,,,,,,,,,,,,,,,,,,,,,,,,,,nback21,001,2023-12-12_11h18.41.563,untitled,2023.2.3,60.03035134558554,2023-12-12 11h59.00.409282 -0500,
6,"[-0.3, 0]",None,,,,,0,2,2,2,,,,,222.5001653999998,,,,,,,,,,,,,,,,,,,,,,,,,,,,,,,,,,,,,,,,,,,,,,222.48482990000002,222.5001653999998,222.5001653999998,223.0002239999999,223.0002239999999,225.49996680000004,225.49996680000004,225.48381879999988,None,1,,,,,,,,,,,,,,,,,,,,,,,,,,nback21,001,2023-12-12_11h18.41.563,untitled,2023.2.3,60.03035134558554,2023-12-12 11h59.00.409282 -0500,
6,"[-0.3, 0]",space,,,,,0,3,3,3,,,,,225.49996680000004,,,,,,,,,,,,,,,,,,,,,,,,,,,,,,,,,,,,,,,,,,,,,,225.48418110000011,225.49996680000004,225.49996680000004,226.0002654,226.0002654,228.50005819999978,228.50005819999978,228.48412589999998,space,1,0.337922200000321,None,,,,,,,,,,,,,,,,,,,,,,,,nback21,001,2023-12-12_11h18.41.563,untitled,2023.2.3,60.03035134558554,2023-12-12 11h59.00.409282 -0500,
12,"[0.64, -0.4]",None,,,,,0,4,4,4,,,,,228.50005819999978,,,,,,,,,,,,,,,,,,,,,,,,,,,,,,,,,,,,,,,,,,,,,,228.48506670000006,228.50005819999978,228.50005819999978,229.00029790000008,229.00029790000008,231.49993859999995,231.49993859999995,231.4840749,None,1,,,,,,,,,,,,,,,,,,,,,,,,,,nback21,001,2023-12-12_11h18.41.563,untitled,2023.2.3,60.03035134558554,2023-12-12 11h59.00.409282 -0500,
10,"[0, -0.2]",None,,,,,0,5,5,5,,,,,231.49993859999995,,,,,,,,,,,,,,,,,,,,,,,,,,,,,,,,,,,,,,,,,,,,,,231.4846776999998,231.49993859999995,231.49993859999995,231.99997649999978,231.99997649999978,234.4999444,234.4999444,234.48388269999987,None,1,,,,,,,,,,,,,,,,,,,,,,,,,,nback21,001,2023-12-12_11h18.41.563,untitled,2023.2.3,60.03035134558554,2023-12-12 11h59.00.409282 -0500,
2,"[0.64, 0.4]",None,,,,,0,6,6,6,,,,,234.4999444,,,,,,,,,,,,,,,,,,,,,,,,,,,,,,,,,,,,,,,,,,,,,,234.48448839999992,234.4999444,234.4999444,235.00008819999994,235.00008819999994,237.4998198999997,237.4998198999997,237.48401220000005,None,1,,,,,,,,,,,,,,,,,,,,,,,,,,nback21,001,2023-12-12_11h18.41.563,untitled,2023.2.3,60.03035134558554,2023-12-12 11h59.00.409282 -0500,
9,"[0.2, -0.1]",None,,,,,0,7,7,7,,,,,237.4998198999997,,,,,,,,,,,,,,,,,,,,,,,,,,,,,,,,,,,,,,,,,,,,,,237.48460029999978,237.4998198999997,237.4998198999997,237.9998572999998,237.9998572999998,240.4999355,240.4999355,240.48401620000004,None,1,,,,,,,,,,,,,,,,,,,,,,,,,,nback21,001,2023-12-12_11h18.41.563,untitled,2023.2.3,60.03035134558554,2023-12-12 11h59.00.409282 -0500,
9,"[0.2, -0.1]",space,,,,,0,8,8,8,,,,,240.4999355,,,,,,,,,,,,,,,,,,,,,,,,,,,,,,,,,,,,,,,,,,,,,,240.48464839999997,240.4999355,240.4999355,240.99998289999985,240.99998289999985,243.49978239999973,243.49978239999973,243.48376819999976,space,1,0.33410189999995055,None,,,,,,,,,,,,,,,,,,,,,,,,nback21,001,2023-12-12_11h18.41.563,untitled,2023.2.3,60.03035134558554,2023-12-12 11h59.00.409282 -0500,
6,"[-0.3, 0]",None,,,,,0,9,9,9,,,,,243.49978239999973,,,,,,,,,,,,,,,,,,,,,,,,,,,,,,,,,,,,,,,,,,,,,,243.4846005999998,243.49978239999973,243.49978239999973,243.9998344999999,243.9998344999999,246.4996688000001,246.4996688000001,246.48382709999987,None,1,,,,,,,,,,,,,,,,,,,,,,,,,,nback21,001,2023-12-12_11h18.41.563,untitled,2023.2.3,60.03035134558554,2023-12-12 11h59.00.409282 -0500,
11,"[-0.64, -0.4]",None,,,,,0,10,10,10,,,,,246.4996688000001,,,,,,,,,,,,,,,,,,,,,,,,,,,,,,,,,,,,,,,,,,,,,,246.48442339999974,246.4996688000001,246.4996688000001,246.99967259999994,246.99967259999994,249.4997470999997,249.4997470999997,249.4836749000001,None,1,,,,,,,,,,,,,,,,,,,,,,,,,,nback21,001,2023-12-12_11h18.41.563,untitled,2023.2.3,60.03035134558554,2023-12-12 11h59.00.409282 -0500,
11,"[-0.64, -0.4]",space,,,,,0,11,11,11,,,,,249.4997470999997,,,,,,,,,,,,,,,,,,,,,,,,,,,,,,,,,,,,,,,,,,,,,,249.4843324999997,249.4997470999997,249.4997470999997,249.99974500000008,249.99974500000008,252.4997930999998,252.4997930999998,252.48395559999972,space,1,0.4086505999998735,None,,,,,,,,,,,,,,,,,,,,,,,,nback21,001,2023-12-12_11h18.41.563,untitled,2023.2.3,60.03035134558554,2023-12-12 11h59.00.409282 -0500,
4,"[-0.2, 0.1]",None,,,,,0,12,12,12,,,,,252.4997930999998,,,,,,,,,,,,,,,,,,,,,,,,,,,,,,,,,,,,,,,,,,,,,,252.48495060000005,252.4997930999998,252.4997930999998,252.99971860000005,252.99971860000005,255.4996317,255.4996317,255.4837966,None,1,,,,,,,,,,,,,,,,,,,,,,,,,,nback21,001,2023-12-12_11h18.41.563,untitled,2023.2.3,60.03035134558554,2023-12-12 11h59.00.409282 -0500,
3,"[0, 0.2]",None,,,,,0,13,13,13,,,,,255.4996317,,,,,,,,,,,,,,,,,,,,,,,,,,,,,,,,,,,,,,,,,,,,,,255.4845304999999,255.4996317,255.4996317,255.9993771999998,255.9993771999998,258.49963279999974,258.49963279999974,258.4838414999999,None,1,,,,,,,,,,,,,,,,,,,,,,,,,,nback21,001,2023-12-12_11h18.41.563,untitled,2023.2.3,60.03035134558554,2023-12-12 11h59.00.409282 -0500,
3,"[0, 0.2]",space,,,,,0,14,14,14,,,,,258.49963279999974,,,,,,,,,,,,,,,,,,,,,,,,,,,,,,,,,,,,,,,,,,,,,,258.4845436999999,258.49963279999974,258.49963279999974,258.9997128,258.9997128,261.4994714999998,261.4994714999998,261.4835736,space,1,0.3551700999996683,None,,,,,,,,,,,,,,,,,,,,,,,,nback21,001,2023-12-12_11h18.41.563,untitled,2023.2.3,60.03035134558554,2023-12-12 11h59.00.409282 -0500,
8,"[-0.2, -0.1]",None,,,,,0,15,15,15,,,,,261.4994714999998,,,,,,,,,,,,,,,,,,,,,,,,,,,,,,,,,,,,,,,,,,,,,,261.4844103999999,261.4994714999998,261.4994714999998,261.9994477,261.9994477,264.49942839999994,264.49942839999994,264.4835444,None,1,,,,,,,,,,,,,,,,,,,,,,,,,,nback21,001,2023-12-12_11h18.41.563,untitled,2023.2.3,60.03035134558554,2023-12-12 11h59.00.409282 -0500,
1,"[-0.64, 0.4]",None,,,,,0,16,16,16,,,,,264.49942839999994,,,,,,,,,,,,,,,,,,,,,,,,,,,,,,,,,,,,,,,,,,,,,,264.4842312999999,264.49942839999994,264.49942839999994,264.9993913999997,264.9993913999997,267.499272,267.499272,267.48353240000006,None,1,,,,,,,,,,,,,,,,,,,,,,,,,,nback21,001,2023-12-12_11h18.41.563,untitled,2023.2.3,60.03035134558554,2023-12-12 11h59.00.409282 -0500,
2,"[0.64, 0.4]",None,,,,,0,17,17,17,,,,,267.499272,,,,,,,,,,,,,,,,,,,,,,,,,,,,,,,,,,,,,,,,,,,,,,267.4840730000001,267.499272,267.499272,267.9992739999998,267.9992739999998,270.49928769999997,270.49928769999997,270.48337349999974,None,1,,,,,,,,,,,,,,,,,,,,,,,,,,nback21,001,2023-12-12_11h18.41.563,untitled,2023.2.3,60.03035134558554,2023-12-12 11h59.00.409282 -0500,
4,"[-0.2, 0.1]",None,,,,,0,18,18,18,,,,,270.49928769999997,,,,,,,,,,,,,,,,,,,,,,,,,,,,,,,,,,,,,,,,,,,,,,270.4839358999998,270.49928769999997,270.49928769999997,270.9993684000001,270.9993684000001,273.49953449999975,273.49953449999975,273.4837846999999,None,1,,,,,,,,,,,,,,,,,,,,,,,,,,nback21,001,2023-12-12_11h18.41.563,untitled,2023.2.3,60.03035134558554,2023-12-12 11h59.00.409282 -0500,
4,"[-0.2, 0.1]",space,,,,,0,19,19,19,,,,,273.49953449999975,,,,,,,,,,,,,,,,,,,,,,,,,,,,,,,,,,,,,,,,,,,,,,273.48455269999977,273.49953449999975,273.49953449999975,273.99927690000004,273.99927690000004,276.4993897999998,276.4993897999998,276.48334320000004,space,1,0.3995686999996906,None,,,,,,,,,,,,,,,,,,,,,,,,nback21,001,2023-12-12_11h18.41.563,untitled,2023.2.3,60.03035134558554,2023-12-12 11h59.00.409282 -0500,
8,"[-0.2, -0.1]",None,,,,,0,20,20,20,,,,,276.4993897999998,,,,,,,,,,,,,,,,,,,,,,,,,,,,,,,,,,,,,,,,,,,,,,276.48412469999994,276.4993897999998,276.4993897999998,276.9992116999997,276.9992116999997,279.4990909999997,279.4990909999997,279.4833668000001,None,1,,,,,,,,,,,,,,,,,,,,,,,,,,nback21,001,2023-12-12_11h18.41.563,untitled,2023.2.3,60.03035134558554,2023-12-12 11h59.00.409282 -0500,
5,"[0.2, 0.1]",None,,,,,0,21,21,21,,,,,279.4990909999997,,,,,,,,,,,,,,,,,,,,,,,,,,,,,,,,,,,,,,,,,,,,,,279.48415969999996,279.4990909999997,279.4990909999997,279.9994066999998,279.9994066999998,282.4990651999997,282.4990651999997,282.4832815999998,None,1,,,,,,,,,,,,,,,,,,,,,,,,,,nback21,001,2023-12-12_11h18.41.563,untitled,2023.2.3,60.03035134558554,2023-12-12 11h59.00.409282 -0500,
5,"[0.2, 0.1]",space,,,,,0,22,22,22,,,,,282.4990651999997,,,,,,,,,,,,,,,,,,,,,,,,,,,,,,,,,,,,,,,,,,,,,,282.48395619999974,282.4990651999997,282.4990651999997,282.9990192999999,282.9990192999999,285.49908049999976,285.49908049999976,285.4831890999999,space,1,0.34636260000024777,None,,,,,,,,,,,,,,,,,,,,,,,,nback21,001,2023-12-12_11h18.41.563,untitled,2023.2.3,60.03035134558554,2023-12-12 11h59.00.409282 -0500,
1,"[-0.64, 0.4]",None,,,,,0,23,23,23,,,,,285.49908049999976,,,,,,,,,,,,,,,,,,,,,,,,,,,,,,,,,,,,,,,,,,,,,,285.48396520000006,285.49908049999976,285.49908049999976,285.9990809000001,285.9990809000001,288.49908259999984,288.49908259999984,288.4832114999999,None,1,,,,,,,,,,,,,,,,,,,,,,,,,,nback21,001,2023-12-12_11h18.41.563,untitled,2023.2.3,60.03035134558554,2023-12-12 11h59.00.409282 -0500,
3,"[0, 0.2]",None,,,,,0,24,24,24,,,,,288.49908259999984,,,,,,,,,,,,,,,,,,,,,,,,,,,,,,,,,,,,,,,,,,,,,,288.4838568,288.49908259999984,288.49908259999984,288.99906059999967,288.99906059999967,291.4991769999997,291.4991769999997,291.4834434999998,None,1,,,,,,,,,,,,,,,,,,,,,,,,,,nback21,001,2023-12-12_11h18.41.563,untitled,2023.2.3,60.03035134558554,2023-12-12 11h59.00.409282 -0500,
6,"[-0.3, 0]",None,,,,,0,25,25,25,,,,,291.4991769999997,,,,,,,,,,,,,,,,,,,,,,,,,,,,,,,,,,,,,,,,,,,,,,291.48426919999974,291.4991769999997,291.4991769999997,291.99906569999985,291.99906569999985,294.4990866999997,294.4990866999997,294.483017,None,1,,,,,,,,,,,,,,,,,,,,,,,,,,nback21,001,2023-12-12_11h18.41.563,untitled,2023.2.3,60.03035134558554,2023-12-12 11h59.00.409282 -0500,
1,"[-0.64, 0.4]",None,,,,,0,26,26,26,,,,,294.4990866999997,,,,,,,,,,,,,,,,,,,,,,,,,,,,,,,,,,,,,,,,,,,,,,294.48366559999977,294.4990866999997,294.4990866999997,294.99911399999974,294.99911399999974,297.49878209999997,297.49878209999997,297.4833725999997,None,1,,,,,,,,,,,,,,,,,,,,,,,,,,nback21,001,2023-12-12_11h18.41.563,untitled,2023.2.3,60.03035134558554,2023-12-12 11h59.00.409282 -0500,
1,"[-0.64, 0.4]",space,,,,,0,27,27,27,,,,,297.49878209999997,,,,,,,,,,,,,,,,,,,,,,,,,,,,,,,,,,,,,,,,,,,,,,297.4841931000001,297.49878209999997,297.49878209999997,297.9988556999997,297.9988556999997,300.4988847999998,300.4988847999998,300.48272039999983,space,1,0.46034199999985503,None,,,,,,,,,,,,,,,,,,,,,,,,nback21,001,2023-12-12_11h18.41.563,untitled,2023.2.3,60.03035134558554,2023-12-12 11h59.00.409282 -0500,
1,"[-0.64, 0.4]",space,,,,,0,28,28,28,,,,,300.4988847999998,,,,,,,,,,,,,,,,,,,,,,,,,,,,,,,,,,,,,,,,,,,,,,300.48343609999984,300.4988847999998,300.4988847999998,300.9988374999998,300.9988374999998,303.49878579999995,303.49878579999995,303.4829712999999,None,0,,,,,,,,,,,,,,,,,,,,,,,,,,nback21,001,2023-12-12_11h18.41.563,untitled,2023.2.3,60.03035134558554,2023-12-12 11h59.00.409282 -0500,
3,"[0, 0.2]",None,,,,,0,29,29,29,,,,,303.49878579999995,,,,,,,,,,,,,,,,,,,,,,,,,,,,,,,,,,,,,,,,,,,,,,303.48369,303.49878579999995,303.49878579999995,303.9988946999997,303.9988946999997,306.4987283999999,306.4987283999999,306.48321450000003,None,1,,,,,,,,,,,,,,,,,,,,,,,,,,nback21,001,2023-12-12_11h18.41.563,untitled,2023.2.3,60.03035134558554,2023-12-12 11h59.00.409282 -0500,
12,"[0.64, -0.4]",None,,,,,0,30,30,30,,,,,306.4987283999999,,,,,,,,,,,,,,,,,,,,,,,,,,,,,,,,,,,,,,,,,,,,,,306.48403929999995,306.4987283999999,306.4987283999999,306.9986329999997,306.9986329999997,309.4988085,309.4988085,309.4829961999999,None,1,,,,,,,,,,,,,,,,,,,,,,,,,,nback21,001,2023-12-12_11h18.41.563,untitled,2023.2.3,60.03035134558554,2023-12-12 11h59.00.409282 -0500,
12,"[0.64, -0.4]",space,,,,,0,31,31,31,,,,,309.4988085,,,,,,,,,,,,,,,,,,,,,,,,,,,,,,,,,,,,,,,,,,,,,,309.4838222999997,309.4988085,309.4988085,309.99868849999984,309.99868849999984,312.49888269999974,312.49888269999974,312.4830944999999,space,1,0.37600499999962267,None,,,,,,,,,,,,,,,,,,,,,,,,nback21,001,2023-12-12_11h18.41.563,untitled,2023.2.3,60.03035134558554,2023-12-12 11h59.00.409282 -0500,
2,"[0.64, 0.4]",None,,,,,0,32,32,32,,,,,312.49888269999974,,,,,,,,,,,,,,,,,,,,,,,,,,,,,,,,,,,,,,,,,,,,,,312.48403929999995,312.49888269999974,312.49888269999974,312.998693,312.998693,315.4985501000001,315.4985501000001,315.4826164000001,None,1,,,,,,,,,,,,,,,,,,,,,,,,,,nback21,001,2023-12-12_11h18.41.563,untitled,2023.2.3,60.03035134558554,2023-12-12 11h59.00.409282 -0500,
1,"[-0.64, 0.4]",None,,,,,0,33,33,33,,,,,315.4985501000001,,,,,,,,,,,,,,,,,,,,,,,,,,,,,,,,,,,,,,,,,,,,,,315.4832524999997,315.4985501000001,315.4985501000001,315.99863749999986,315.99863749999986,318.4986380999999,318.4986380999999,318.4828072,None,1,,,,,,,,,,,,,,,,,,,,,,,,,,nback21,001,2023-12-12_11h18.41.563,untitled,2023.2.3,60.03035134558554,2023-12-12 11h59.00.409282 -0500,
7,"[0.3, 0]",None,,,,,0,34,34,34,,,,,318.4986380999999,,,,,,,,,,,,,,,,,,,,,,,,,,,,,,,,,,,,,,,,,,,,,,318.4835229,318.4986380999999,318.4986380999999,318.9986567000001,318.9986567000001,321.4983632999997,321.4983632999997,321.4825191,None,1,,,,,,,,,,,,,,,,,,,,,,,,,,nback21,001,2023-12-12_11h18.41.563,untitled,2023.2.3,60.03035134558554,2023-12-12 11h59.00.409282 -0500,
7,"[0.3, 0]",space,,,,,0,35,35,35,,,,,321.4983632999997,,,,,,,,,,,,,,,,,,,,,,,,,,,,,,,,,,,,,,,,,,,,,,321.4830939999997,321.4983632999997,321.4983632999997,321.9984910999997,321.9984910999997,324.49856039999986,324.49856039999986,324.4825883999997,space,1,0.38405150000016874,None,,,,,,,,,,,,,,,,,,,,,,,,nback21,001,2023-12-12_11h18.41.563,untitled,2023.2.3,60.03035134558554,2023-12-12 11h59.00.409282 -0500,
11,"[-0.64, -0.4]",None,,,,,0,36,36,36,,,,,324.49856039999986,,,,,,,,,,,,,,,,,,,,,,,,,,,,,,,,,,,,,,,,,,,,,,324.4834756999999,324.49856039999986,324.49856039999986,324.9984574,324.9984574,327.4982172,327.4982172,327.4822973999999,None,1,,,,,,,,,,,,,,,,,,,,,,,,,,nback21,001,2023-12-12_11h18.41.563,untitled,2023.2.3,60.03035134558554,2023-12-12 11h59.00.409282 -0500,
2,"[0.64, 0.4]",None,,,,,0,37,37,37,,,,,327.4982172,,,,,,,,,,,,,,,,,,,,,,,,,,,,,,,,,,,,,,,,,,,,,,327.4827055999999,327.4982172,327.4982172,327.9984349000001,327.9984349000001,330.4984039000001,330.4984039000001,330.48235109999996,None,1,,,,,,,,,,,,,,,,,,,,,,,,,,nback21,001,2023-12-12_11h18.41.563,untitled,2023.2.3,60.03035134558554,2023-12-12 11h59.00.409282 -0500,
6,"[-0.3, 0]",None,,,,,0,38,38,38,,,,,330.4984039000001,,,,,,,,,,,,,,,,,,,,,,,,,,,,,,,,,,,,,,,,,,,,,,330.4828887999997,330.4984039000001,330.4984039000001,330.9984853000001,330.9984853000001,333.4982663999999,333.4982663999999,333.4829827999997,None,1,,,,,,,,,,,,,,,,,,,,,,,,,,nback21,001,2023-12-12_11h18.41.563,untitled,2023.2.3,60.03035134558554,2023-12-12 11h59.00.409282 -0500,
10,"[0, -0.2]",None,,,,,0,39,39,39,,,,,333.4982663999999,,,,,,,,,,,,,,,,,,,,,,,,,,,,,,,,,,,,,,,,,,,,,,333.48350519999985,333.4982663999999,333.4982663999999,333.998337,333.998337,336.49845619999996,336.49845619999996,336.48226769999974,None,1,,,,,,,,,,,,,,,,,,,,,,,,,,nback21,001,2023-12-12_11h18.41.563,untitled,2023.2.3,60.03035134558554,2023-12-12 11h59.00.409282 -0500,
,,,,,,,,,,,,,,,,,,,,,,,,,,,,,,,,,,,,,,,,,,,,,,,,,,,,,,,,,,,,,,,,,,,,,,,,,336.4827812999997,336.49845619999996,336.49845619999996,410.3322954,space,73.82789969999976,None,,,,,,,,,,,,,,,,,nback21,001,2023-12-12_11h18.41.563,untitled,2023.2.3,60.03035134558554,2023-12-12 11h59.00.409282 -0500,
,"[0.2, 0.1]",None,,,,,,,,,0,0,0,0,411.3468205999998,,,,,,,,,,,,,,,,,,,,,,,,410.3323513,410.3469892999997,411.3468205999998,411.3314505999997,,,,,,,,,,,,,,,,,,,,,,,,,,,,,,,,,,,,,,411.3426792,411.3468205999998,411.3468205999998,411.84689149999986,411.84689149999986,414.3470398999998,414.3470398999998,414.3314227000001,None,1,,,,,,,nback21,001,2023-12-12_11h18.41.563,untitled,2023.2.3,60.03035134558554,2023-12-12 11h59.00.409282 -0500,
,"[0.64, 0.4]",None,,,,,,,,,0,1,1,1,414.3470398999998,,,,,,,,,,,,,,,,,,,,,,,,,,,,,,,,,,,,,,,,,,,,,,,,,,,,,,,,,,,,,,,,,414.3324539,414.3470398999998,414.3470398999998,414.8468809000001,414.8468809000001,417.3468251999998,417.3468251999998,417.33095909999975,None,1,,,,,,,nback21,001,2023-12-12_11h18.41.563,untitled,2023.2.3,60.03035134558554,2023-12-12 11h59.00.409282 -0500,
,"[-0.3, 0]",None,,,,,,,,,0,2,2,2,417.3468251999998,,,,,,,,,,,,,,,,,,,,,,,,,,,,,,,,,,,,,,,,,,,,,,,,,,,,,,,,,,,,,,,,,417.33158619999995,417.3468251999998,417.3468251999998,417.84681009999986,417.84681009999986,420.3467178000001,420.3467178000001,420.3311512999999,None,1,,,,,,,nback21,001,2023-12-12_11h18.41.563,untitled,2023.2.3,60.03035134558554,2023-12-12 11h59.00.409282 -0500,
,"[0.2, -0.1]",None,,,,,,,,,0,3,3,3,420.3467178000001,,,,,,,,,,,,,,,,,,,,,,,,,,,,,,,,,,,,,,,,,,,,,,,,,,,,,,,,,,,,,,,,,420.33209910000005,420.3467178000001,420.3467178000001,420.8468445999997,420.8468445999997,423.3466917999999,423.3466917999999,423.3307998,None,1,,,,,,,nback21,001,2023-12-12_11h18.41.563,untitled,2023.2.3,60.03035134558554,2023-12-12 11h59.00.409282 -0500,
,"[0, 0.2]",None,,,,,,,,,0,4,4,4,423.3466917999999,,,,,,,,,,,,,,,,,,,,,,,,,,,,,,,,,,,,,,,,,,,,,,,,,,,,,,,,,,,,,,,,,423.33145590000004,423.3466917999999,423.3466917999999,423.8468792999997,423.8468792999997,426.34665859999996,426.34665859999996,426.3308698999999,None,1,,,,,,,nback21,001,2023-12-12_11h18.41.563,untitled,2023.2.3,60.03035134558554,2023-12-12 11h59.00.409282 -0500,
,"[0.2, -0.1]",space,,,,,,,,,0,5,5,5,426.34665859999996,,,,,,,,,,,,,,,,,,,,,,,,,,,,,,,,,,,,,,,,,,,,,,,,,,,,,,,,,,,,,,,,,426.3315972999999,426.34665859999996,426.34665859999996,426.8468850999998,426.8468850999998,429.3468316999997,429.3468316999997,429.3309543999999,space,1,0.6378395000001547,None,,,,,nback21,001,2023-12-12_11h18.41.563,untitled,2023.2.3,60.03035134558554,2023-12-12 11h59.00.409282 -0500,
,"[0, -0.2]",None,,,,,,,,,0,6,6,6,429.3468316999997,,,,,,,,,,,,,,,,,,,,,,,,,,,,,,,,,,,,,,,,,,,,,,,,,,,,,,,,,,,,,,,,,429.3322078000001,429.3468316999997,429.3468316999997,429.8467169999999,429.8467169999999,432.3464194999997,432.3464194999997,432.3308839000001,None,1,,,,,,,nback21,001,2023-12-12_11h18.41.563,untitled,2023.2.3,60.03035134558554,2023-12-12 11h59.00.409282 -0500,
,"[0.64, -0.4]",None,,,,,,,,,0,7,7,7,432.3464194999997,,,,,,,,,,,,,,,,,,,,,,,,,,,,,,,,,,,,,,,,,,,,,,,,,,,,,,,,,,,,,,,,,432.33161759999984,432.3464194999997,432.3464194999997,432.84669329999997,432.84669329999997,435.3464565999998,435.3464565999998,435.33071530000007,None,1,,,,,,,nback21,001,2023-12-12_11h18.41.563,untitled,2023.2.3,60.03035134558554,2023-12-12 11h59.00.409282 -0500,
,"[0.3, 0]",None,,,,,,,,,0,8,8,8,435.3464565999998,,,,,,,,,,,,,,,,,,,,,,,,,,,,,,,,,,,,,,,,,,,,,,,,,,,,,,,,,,,,,,,,,435.3314299999997,435.3464565999998,435.3464565999998,435.8466893,435.8466893,438.34636439999986,438.34636439999986,438.33047259999967,None,1,,,,,,,nback21,001,2023-12-12_11h18.41.563,untitled,2023.2.3,60.03035134558554,2023-12-12 11h59.00.409282 -0500,
,"[0.64, -0.4]",space,,,,,,,,,0,9,9,9,438.34636439999986,,,,,,,,,,,,,,,,,,,,,,,,,,,,,,,,,,,,,,,,,,,,,,,,,,,,,,,,,,,,,,,,,438.3311199999998,438.34636439999986,438.34636439999986,438.84657339999967,438.84657339999967,441.34642299999996,441.34642299999996,441.33061009999983,space,1,0.48692430000028253,None,,,,,nback21,001,2023-12-12_11h18.41.563,untitled,2023.2.3,60.03035134558554,2023-12-12 11h59.00.409282 -0500,
,"[-0.64, 0.4]",None,,,,,,,,,0,10,10,10,441.34642299999996,,,,,,,,,,,,,,,,,,,,,,,,,,,,,,,,,,,,,,,,,,,,,,,,,,,,,,,,,,,,,,,,,441.3313979999998,441.34642299999996,441.34642299999996,441.8464785000001,441.8464785000001,444.34650759999977,444.34650759999977,444.3308154000001,None,1,,,,,,,nback21,001,2023-12-12_11h18.41.563,untitled,2023.2.3,60.03035134558554,2023-12-12 11h59.00.409282 -0500,
,"[0.2, 0.1]",None,,,,,,,,,0,11,11,11,444.34650759999977,,,,,,,,,,,,,,,,,,,,,,,,,,,,,,,,,,,,,,,,,,,,,,,,,,,,,,,,,,,,,,,,,444.3317198999998,444.34650759999977,444.34650759999977,444.8463729,444.8463729,447.3464237999997,447.3464237999997,447.3307030000001,None,1,,,,,,,nback21,001,2023-12-12_11h18.41.563,untitled,2023.2.3,60.03035134558554,2023-12-12 11h59.00.409282 -0500,
,"[0.3, 0]",None,,,,,,,,,0,12,12,12,447.3464237999997,,,,,,,,,,,,,,,,,,,,,,,,,,,,,,,,,,,,,,,,,,,,,,,,,,,,,,,,,,,,,,,,,447.3316092,447.3464237999997,447.3464237999997,447.8464292999997,447.8464292999997,450.3463176,450.3463176,450.3303206999999,None,1,,,,,,,nback21,001,2023-12-12_11h18.41.563,untitled,2023.2.3,60.03035134558554,2023-12-12 11h59.00.409282 -0500,
,"[0.2, 0.1]",space,,,,,,,,,0,13,13,13,450.3463176,,,,,,,,,,,,,,,,,,,,,,,,,,,,,,,,,,,,,,,,,,,,,,,,,,,,,,,,,,,,,,,,,450.3310455000001,450.3463176,450.3463176,450.8464667999997,450.8464667999997,453.3462937999998,453.3462937999998,453.33053229999996,space,1,0.6615523999998913,None,,,,,nback21,001,2023-12-12_11h18.41.563,untitled,2023.2.3,60.03035134558554,2023-12-12 11h59.00.409282 -0500,
,"[-0.3, 0]",None,,,,,,,,,0,14,14,14,453.3462937999998,,,,,,,,,,,,,,,,,,,,,,,,,,,,,,,,,,,,,,,,,,,,,,,,,,,,,,,,,,,,,,,,,453.3314043999999,453.3462937999998,453.3462937999998,453.8462998,453.8462998,456.34635609999987,456.34635609999987,456.33057659999986,None,1,,,,,,,nback21,001,2023-12-12_11h18.41.563,untitled,2023.2.3,60.03035134558554,2023-12-12 11h59.00.409282 -0500,
,"[0, 0.2]",None,,,,,,,,,0,15,15,15,456.34635609999987,,,,,,,,,,,,,,,,,,,,,,,,,,,,,,,,,,,,,,,,,,,,,,,,,,,,,,,,,,,,,,,,,456.3314252,456.34635609999987,456.34635609999987,456.8461570999998,456.8461570999998,459.34621549999974,459.34621549999974,459.3303851999999,None,1,,,,,,,nback21,001,2023-12-12_11h18.41.563,untitled,2023.2.3,60.03035134558554,2023-12-12 11h59.00.409282 -0500,
,"[-0.3, 0]",space,,,,,,,,,0,16,16,16,459.34621549999974,,,,,,,,,,,,,,,,,,,,,,,,,,,,,,,,,,,,,,,,,,,,,,,,,,,,,,,,,,,,,,,,,459.33100509999986,459.34621549999974,459.34621549999974,459.8460494000001,459.8460494000001,462.3461505999999,462.3461505999999,462.33020739999984,space,1,0.31739769999967393,None,,,,,nback21,001,2023-12-12_11h18.41.563,untitled,2023.2.3,60.03035134558554,2023-12-12 11h59.00.409282 -0500,
,"[-0.64, -0.4]",None,,,,,,,,,0,17,17,17,462.3461505999999,,,,,,,,,,,,,,,,,,,,,,,,,,,,,,,,,,,,,,,,,,,,,,,,,,,,,,,,,,,,,,,,,462.3310713999999,462.3461505999999,462.3461505999999,462.8460710999998,462.8460710999998,465.3461170999999,465.3461170999999,465.3302367000001,None,1,,,,,,,nback21,001,2023-12-12_11h18.41.563,untitled,2023.2.3,60.03035134558554,2023-12-12 11h59.00.409282 -0500,
,"[-0.2, -0.1]",None,,,,,,,,,0,18,18,18,465.3461170999999,,,,,,,,,,,,,,,,,,,,,,,,,,,,,,,,,,,,,,,,,,,,,,,,,,,,,,,,,,,,,,,,,465.33091399999967,465.3461170999999,465.3461170999999,465.8462058,465.8462058,468.3460504999998,468.3460504999998,468.33026070000005,None,1,,,,,,,nback21,001,2023-12-12_11h18.41.563,untitled,2023.2.3,60.03035134558554,2023-12-12 11h59.00.409282 -0500,
,"[0.2, -0.1]",None,,,,,,,,,0,19,19,19,468.3460504999998,,,,,,,,,,,,,,,,,,,,,,,,,,,,,,,,,,,,,,,,,,,,,,,,,,,,,,,,,,,,,,,,,468.33106259999977,468.3460504999998,468.3460504999998,468.8459834,468.8459834,471.3460009999999,471.3460009999999,471.3303585999997,None,1,,,,,,,nback21,001,2023-12-12_11h18.41.563,untitled,2023.2.3,60.03035134558554,2023-12-12 11h59.00.409282 -0500,
,"[0.2, -0.1]",None,,,,,,,,,0,20,20,20,471.3460009999999,,,,,,,,,,,,,,,,,,,,,,,,,,,,,,,,,,,,,,,,,,,,,,,,,,,,,,,,,,,,,,,,,471.33124640000005,471.3460009999999,471.3460009999999,471.8459982999998,471.8459982999998,474.34597029999986,474.34597029999986,474.3303572,None,1,,,,,,,nback21,001,2023-12-12_11h18.41.563,untitled,2023.2.3,60.03035134558554,2023-12-12 11h59.00.409282 -0500,
,"[-0.64, 0.4]",None,,,,,,,,,0,21,21,21,474.34597029999986,,,,,,,,,,,,,,,,,,,,,,,,,,,,,,,,,,,,,,,,,,,,,,,,,,,,,,,,,,,,,,,,,474.3312037999999,474.34597029999986,474.34597029999986,474.8458572999998,474.8458572999998,477.3458187000001,477.3458187000001,477.3300657,None,1,,,,,,,nback21,001,2023-12-12_11h18.41.563,untitled,2023.2.3,60.03035134558554,2023-12-12 11h59.00.409282 -0500,
,"[0, 0.2]",None,,,,,,,,,0,22,22,22,477.3458187000001,,,,,,,,,,,,,,,,,,,,,,,,,,,,,,,,,,,,,,,,,,,,,,,,,,,,,,,,,,,,,,,,,477.33082829999967,477.3458187000001,477.3458187000001,477.8458372,477.8458372,480.3458791999997,480.3458791999997,480.3299047999999,None,1,,,,,,,nback21,001,2023-12-12_11h18.41.563,untitled,2023.2.3,60.03035134558554,2023-12-12 11h59.00.409282 -0500,
,"[0.64, -0.4]",None,,,,,,,,,0,23,23,23,480.3458791999997,,,,,,,,,,,,,,,,,,,,,,,,,,,,,,,,,,,,,,,,,,,,,,,,,,,,,,,,,,,,,,,,,480.3305227000001,480.3458791999997,480.3458791999997,480.8458582999997,480.8458582999997,483.3459264999997,483.3459264999997,483.32998469999984,None,1,,,,,,,nback21,001,2023-12-12_11h18.41.563,untitled,2023.2.3,60.03035134558554,2023-12-12 11h59.00.409282 -0500,
,"[0, 0.2]",space,,,,,,,,,0,24,24,24,483.3459264999997,,,,,,,,,,,,,,,,,,,,,,,,,,,,,,,,,,,,,,,,,,,,,,,,,,,,,,,,,,,,,,,,,483.33075819999976,483.3459264999997,483.3459264999997,483.8457352999999,483.8457352999999,486.34568149999996,486.34568149999996,486.3300409999997,space,1,0.35264839999990727,None,,,,,nback21,001,2023-12-12_11h18.41.563,untitled,2023.2.3,60.03035134558554,2023-12-12 11h59.00.409282 -0500,
,"[-0.2, 0.1]",None,,,,,,,,,0,25,25,25,486.34568149999996,,,,,,,,,,,,,,,,,,,,,,,,,,,,,,,,,,,,,,,,,,,,,,,,,,,,,,,,,,,,,,,,,486.33115069999985,486.34568149999996,486.34568149999996,486.84572249999974,486.84572249999974,489.3456148999999,489.3456148999999,489.3297776999998,None,1,,,,,,,nback21,001,2023-12-12_11h18.41.563,untitled,2023.2.3,60.03035134558554,2023-12-12 11h59.00.409282 -0500,
,"[0.3, 0]",None,,,,,,,,,0,26,26,26,489.3456148999999,,,,,,,,,,,,,,,,,,,,,,,,,,,,,,,,,,,,,,,,,,,,,,,,,,,,,,,,,,,,,,,,,489.3304828999999,489.3456148999999,489.3456148999999,489.84576319999996,489.84576319999996,492.34545660000003,492.34545660000003,492.32963870000003,None,1,,,,,,,nback21,001,2023-12-12_11h18.41.563,untitled,2023.2.3,60.03035134558554,2023-12-12 11h59.00.409282 -0500,
,"[-0.2, 0.1]",space,,,,,,,,,0,27,27,27,492.34545660000003,,,,,,,,,,,,,,,,,,,,,,,,,,,,,,,,,,,,,,,,,,,,,,,,,,,,,,,,,,,,,,,,,492.3302587999997,492.34545660000003,492.34545660000003,492.8455458999997,492.8455458999997,495.3456563999998,495.3456563999998,495.32968630000005,space,1,0.41732379999984914,None,,,,,nback21,001,2023-12-12_11h18.41.563,untitled,2023.2.3,60.03035134558554,2023-12-12 11h59.00.409282 -0500,
,"[-0.2, 0.1]",None,,,,,,,,,0,28,28,28,495.3456563999998,,,,,,,,,,,,,,,,,,,,,,,,,,,,,,,,,,,,,,,,,,,,,,,,,,,,,,,,,,,,,,,,,495.33046779999995,495.3456563999998,495.3456563999998,495.8454968000001,495.8454968000001,498.3453982000001,498.3453982000001,498.3291562999998,space,0,0.537406600000395,None,,,,,nback21,001,2023-12-12_11h18.41.563,untitled,2023.2.3,60.03035134558554,2023-12-12 11h59.00.409282 -0500,
,"[0.2, 0.1]",None,,,,,,,,,0,29,29,29,498.3453982000001,,,,,,,,,,,,,,,,,,,,,,,,,,,,,,,,,,,,,,,,,,,,,,,,,,,,,,,,,,,,,,,,,498.3295414999998,498.3453982000001,498.3453982000001,498.84557099999984,498.84557099999984,501.34549389999984,501.34549389999984,501.3296666000001,None,1,,,,,,,nback21,001,2023-12-12_11h18.41.563,untitled,2023.2.3,60.03035134558554,2023-12-12 11h59.00.409282 -0500,
,"[-0.64, -0.4]",None,,,,,,,,,0,30,30,30,501.34549389999984,,,,,,,,,,,,,,,,,,,,,,,,,,,,,,,,,,,,,,,,,,,,,,,,,,,,,,,,,,,,,,,,,501.3303519000001,501.34549389999984,501.34549389999984,501.8453500999999,501.8453500999999,504.3453006,504.3453006,504.32963889999974,None,1,,,,,,,nback21,001,2023-12-12_11h18.41.563,untitled,2023.2.3,60.03035134558554,2023-12-12 11h59.00.409282 -0500,
,"[0, -0.2]",None,,,,,,,,,0,31,31,31,504.3453006,,,,,,,,,,,,,,,,,,,,,,,,,,,,,,,,,,,,,,,,,,,,,,,,,,,,,,,,,,,,,,,,,504.3304773,504.3453006,504.3453006,504.84535159999996,504.84535159999996,507.3454320000001,507.3454320000001,507.32961939999996,None,1,,,,,,,nback21,001,2023-12-12_11h18.41.563,untitled,2023.2.3,60.03035134558554,2023-12-12 11h59.00.409282 -0500,
,"[-0.64, -0.4]",space,,,,,,,,,0,32,32,32,507.3454320000001,,,,,,,,,,,,,,,,,,,,,,,,,,,,,,,,,,,,,,,,,,,,,,,,,,,,,,,,,,,,,,,,,507.3304298999997,507.3454320000001,507.3454320000001,507.845464,507.845464,510.34515939999983,510.34515939999983,510.3294793,space,1,0.4686706000002232,None,,,,,nback21,001,2023-12-12_11h18.41.563,untitled,2023.2.3,60.03035134558554,2023-12-12 11h59.00.409282 -0500,
,"[0.64, 0.4]",None,,,,,,,,,0,33,33,33,510.34515939999983,,,,,,,,,,,,,,,,,,,,,,,,,,,,,,,,,,,,,,,,,,,,,,,,,,,,,,,,,,,,,,,,,510.33034009999983,510.34515939999983,510.34515939999983,510.8453218999998,510.8453218999998,513.3451528999999,513.3451528999999,513.3288631,None,1,,,,,,,nback21,001,2023-12-12_11h18.41.563,untitled,2023.2.3,60.03035134558554,2023-12-12 11h59.00.409282 -0500,
,"[-0.3, 0]",None,,,,,,,,,0,34,34,34,513.3451528999999,,,,,,,,,,,,,,,,,,,,,,,,,,,,,,,,,,,,,,,,,,,,,,,,,,,,,,,,,,,,,,,,,513.3291709999999,513.3451528999999,513.3451528999999,513.8453411999999,513.8453411999999,516.3453743,516.3453743,516.3291937999998,None,1,,,,,,,nback21,001,2023-12-12_11h18.41.563,untitled,2023.2.3,60.03035134558554,2023-12-12 11h59.00.409282 -0500,
,"[0.3, 0]",None,,,,,,,,,0,35,35,35,516.3453743,,,,,,,,,,,,,,,,,,,,,,,,,,,,,,,,,,,,,,,,,,,,,,,,,,,,,,,,,,,,,,,,,516.3299727999997,516.3453743,516.3453743,516.8450248999998,516.8450248999998,519.3450201,519.3450201,519.3293045,None,1,,,,,,,nback21,001,2023-12-12_11h18.41.563,untitled,2023.2.3,60.03035134558554,2023-12-12 11h59.00.409282 -0500,
,"[-0.3, 0]",space,,,,,,,,,0,36,36,36,519.3450201,,,,,,,,,,,,,,,,,,,,,,,,,,,,,,,,,,,,,,,,,,,,,,,,,,,,,,,,,,,,,,,,,519.3299318999998,519.3450201,519.3450201,519.8450904000001,519.8450904000001,522.3450665999999,522.3450665999999,522.3294499999997,space,1,0.5653111000001445,None,,,,,nback21,001,2023-12-12_11h18.41.563,untitled,2023.2.3,60.03035134558554,2023-12-12 11h59.00.409282 -0500,
,"[0, -0.2]",None,,,,,,,,,0,37,37,37,522.3450665999999,,,,,,,,,,,,,,,,,,,,,,,,,,,,,,,,,,,,,,,,,,,,,,,,,,,,,,,,,,,,,,,,,522.3303960999997,522.3450665999999,522.3450665999999,522.8449298,522.8449298,525.3451679999998,525.3451679999998,525.3292425999998,None,1,,,,,,,nback21,001,2023-12-12_11h18.41.563,untitled,2023.2.3,60.03035134558554,2023-12-12 11h59.00.409282 -0500,
,"[0.3, 0]",None,,,,,,,,,0,38,38,38,525.3451679999998,,,,,,,,,,,,,,,,,,,,,,,,,,,,,,,,,,,,,,,,,,,,,,,,,,,,,,,,,,,,,,,,,525.3300142999997,525.3451679999998,525.3451679999998,525.8450133000001,525.8450133000001,528.3450616,528.3450616,528.3292127,space,0,0.3503298000000541,None,,,,,nback21,001,2023-12-12_11h18.41.563,untitled,2023.2.3,60.03035134558554,2023-12-12 11h59.00.409282 -0500,
,"[0.2, 0.1]",None,,,,,,,,,0,39,39,39,528.3450616,,,,,,,,,,,,,,,,,,,,,,,,,,,,,,,,,,,,,,,,,,,,,,,,,,,,,,,,,,,,,,,,,528.3300882999997,528.3450616,528.3450616,528.8449440999998,528.8449440999998,531.3451252,531.3451252,531.3289071999998,None,1,,,,,,,nback21,001,2023-12-12_11h18.41.563,untitled,2023.2.3,60.03035134558554,2023-12-12 11h59.00.409282 -0500,
,,,,,,,,,,,,,,,,,,,,,,,,,,,,,,,,,,,,,,,,,,,,,,,,,,,,,,,,,,,,,,,,,,,,,,,,,,,,,,,,,,,,,,,,,,,,531.3293682999997,531.3451252,534.3449209,534.3289930999999,,,,,,,,
