square,location,corrAns,trials_0.thisRepN,trials_0.thisTrialN,trials_0.thisN,trials_0.thisIndex,trials_1.thisRepN,trials_1.thisTrialN,trials_1.thisN,trials_1.thisIndex,trials_2.thisRepN,trials_2.thisTrialN,trials_2.thisN,trials_2.thisIndex,thisRow.t,notes,Instructions.started,instructions.started,key_resp.started,inst_sq11.started,Instructions.stopped,key_resp.keys,key_resp.rt,key_resp.duration,All.started,sq_1.started,sq_2.started,sq_3.started,sq_4.started,sq_5.started,sq_6.started,sq_7.started,sq_8.started,sq_9.started,sq_10.started,sq_11.started,sq_12.started,All.stopped,Fixation.started,fixation_3.started,fixation_3.stopped,Fixation.stopped,N_back_0_Trial.started,target_square_0.started,response_0.started,fixation_0.started,target_square_0.stopped,fixation_0.stopped,response_0.stopped,N_back_0_Trial.stopped,response_0.keys,response_0.corr,response_0.rt,response_0.duration,Instructions_1.started,instructions_1.started,key_resp_1.started,Instructions_1.stopped,key_resp_1.keys,key_resp_1.rt,key_resp_1.duration,N_back_1_Trial.started,target_square_1.started,response_1.started,target_square_1.stopped,fixation_1.started,fixation_1.stopped,response_1.stopped,N_back_1_Trial.stopped,response_1.keys,response_1.corr,response_1.rt,response_1.duration,Instructions_2.started,instructions_2.started,key_resp_2.started,Instructions_2.stopped,key_resp_2.keys,key_resp_2.rt,key_resp_2.duration,N_back_2_trials.started,target_square_2.started,response_2.started,target_square_2.stopped,fixation_2.started,fixation_2.stopped,response_2.stopped,N_back_2_trials.stopped,response_2.keys,response_2.corr,response_2.rt,response_2.duration,End.started,thank_you.started,thank_you.stopped,End.stopped,participant,session,date,expName,psychopyVersion,frameRate,expStart,
,,,,,,,,,,,,,,,,,0.00151400000004287,0.004429999999956635,0.004429999999956635,0.004429999999956635,900.3394398999999,space,900.3195700000001,None,,,,,,,,,,,,,,,,,,,,,,,,,,,,,,,,,,,,,,,,,,,,,,,,,,,,,,,,,,,,,,,,,,,,,,,,,nback31,001,2023-12-15_15h56.47.539,untitled,2023.2.3,59.98199340556101,2023-12-15 16h27.19.532779 -0500,
6,"[-0.3, 0]",None,0,0,0,0,,,,,,,,,902.3549277000002,,,,,,,,,,900.3394818000002,900.3549584000002,900.3549584000002,900.3549584000002,900.3549584000002,900.3549584000002,900.3549584000002,900.3549584000002,900.3549584000002,900.3549584000002,900.3549584000002,900.3549584000002,900.3549584000002,901.3388463000001,901.3388629000001,901.3549558,902.3549277000002,902.3390346000001,902.3518525999998,902.3549277000002,902.3549277000002,902.8383954000001,902.8549656,905.3381949999998,905.3550765999998,905.3390537,None,1,,,,,,,,,,,,,,,,,,,,,,,,,,,,,,,,,,,,,,,,,,,,,nback31,001,2023-12-15_15h56.47.539,untitled,2023.2.3,59.98199340556101,2023-12-15 16h27.19.532779 -0500,
10,"[0, -0.2]",None,0,1,1,1,,,,,,,,,905.3550765999998,,,,,,,,,,,,,,,,,,,,,,,,,,,,905.3399969000002,905.3550765999998,905.3550765999998,905.8383672999998,905.8549584000002,908.3379776000002,908.3548099,908.3384326,None,1,,,,,,,,,,,,,,,,,,,,,,,,,,,,,,,,,,,,,,,,,,,,,nback31,001,2023-12-15_15h56.47.539,untitled,2023.2.3,59.98199340556101,2023-12-15 16h27.19.532779 -0500,
11,"[-0.64, -0.4]",space,0,2,2,2,,,,,,,,,908.3548099,,,,,,,,,,,,,,,,,,,,,,,,,,,,908.3387969,908.3548099,908.3548099,908.8382351,908.8549174,911.3383251,911.3547057999999,911.3393265999998,space,1,0.43320500000027096,None,,,,,,,,,,,,,,,,,,,,,,,,,,,,,,,,,,,,,,,,,,,nback31,001,2023-12-15_15h56.47.539,untitled,2023.2.3,59.98199340556101,2023-12-15 16h27.19.532779 -0500,
12,"[0.64, -0.4]",None,0,3,3,3,,,,,,,,,911.3547057999999,,,,,,,,,,,,,,,,,,,,,,,,,,,,911.3405548999999,911.3547057999999,911.3547057999999,911.838197,911.8547881,914.3380302,914.3546646,914.3389523999999,None,1,,,,,,,,,,,,,,,,,,,,,,,,,,,,,,,,,,,,,,,,,,,,,nback31,001,2023-12-15_15h56.47.539,untitled,2023.2.3,59.98199340556101,2023-12-15 16h27.19.532779 -0500,
1,"[-0.64, 0.4]",None,0,4,4,4,,,,,,,,,914.3546646,,,,,,,,,,,,,,,,,,,,,,,,,,,,914.3396891000002,914.3546646,914.3546646,914.8380846,914.8547403000002,917.3381568,917.3547407000001,917.3389545,None,1,,,,,,,,,,,,,,,,,,,,,,,,,,,,,,,,,,,,,,,,,,,,,nback31,001,2023-12-15_15h56.47.539,untitled,2023.2.3,59.98199340556101,2023-12-15 16h27.19.532779 -0500,
1,"[-0.64, 0.4]",None,0,5,5,5,,,,,,,,,917.3547407000001,,,,,,,,,,,,,,,,,,,,,,,,,,,,917.3396029999999,917.3547407000001,917.3547407000001,917.8379645,917.8546443,920.3380553000002,920.3547607,920.3388616000002,None,1,,,,,,,,,,,,,,,,,,,,,,,,,,,,,,,,,,,,,,,,,,,,,nback31,001,2023-12-15_15h56.47.539,untitled,2023.2.3,59.98199340556101,2023-12-15 16h27.19.532779 -0500,
4,"[-0.2, 0.1]",None,0,6,6,6,,,,,,,,,920.3547607,,,,,,,,,,,,,,,,,,,,,,,,,,,,920.3395739000002,920.3547607,920.3547607,920.8381113,920.8546643,923.3379301,923.3547146000001,923.3386384999999,None,1,,,,,,,,,,,,,,,,,,,,,,,,,,,,,,,,,,,,,,,,,,,,,nback31,001,2023-12-15_15h56.47.539,untitled,2023.2.3,59.98199340556101,2023-12-15 16h27.19.532779 -0500,
5,"[0.2, 0.1]",None,0,7,7,7,,,,,,,,,923.3547146000001,,,,,,,,,,,,,,,,,,,,,,,,,,,,923.339352,923.3547146000001,923.3547146000001,923.8379005000002,923.8545128000001,926.3379490000002,926.3544225,926.3387121999999,None,1,,,,,,,,,,,,,,,,,,,,,,,,,,,,,,,,,,,,,,,,,,,,,nback31,001,2023-12-15_15h56.47.539,untitled,2023.2.3,59.98199340556101,2023-12-15 16h27.19.532779 -0500,
11,"[-0.64, -0.4]",space,0,8,8,8,,,,,,,,,926.3544225,,,,,,,,,,,,,,,,,,,,,,,,,,,,926.3394257,926.3544225,926.3544225,926.8378272999998,926.8545085000001,929.3378739999998,929.3545011000001,929.3386264000001,space,1,0.4345704000002115,None,,,,,,,,,,,,,,,,,,,,,,,,,,,,,,,,,,,,,,,,,,,nback31,001,2023-12-15_15h56.47.539,untitled,2023.2.3,59.98199340556101,2023-12-15 16h27.19.532779 -0500,
9,"[0.2, -0.1]",None,0,9,9,9,,,,,,,,,929.3545011000001,,,,,,,,,,,,,,,,,,,,,,,,,,,,929.3393397999998,929.3545011000001,929.3545011000001,929.8377841000001,929.8544621000001,932.3378014,932.3543639999998,932.3387576,None,1,,,,,,,,,,,,,,,,,,,,,,,,,,,,,,,,,,,,,,,,,,,,,nback31,001,2023-12-15_15h56.47.539,untitled,2023.2.3,59.98199340556101,2023-12-15 16h27.19.532779 -0500,
8,"[-0.2, -0.1]",None,0,10,10,10,,,,,,,,,932.3543639999998,,,,,,,,,,,,,,,,,,,,,,,,,,,,932.3394945,932.3543639999998,932.3543639999998,932.8545629999999,932.8545629999999,935.3544041999999,935.3544041999999,935.3386492999998,None,1,,,,,,,,,,,,,,,,,,,,,,,,,,,,,,,,,,,,,,,,,,,,,nback31,001,2023-12-15_15h56.47.539,untitled,2023.2.3,59.98199340556101,2023-12-15 16h27.19.532779 -0500,
9,"[0.2, -0.1]",None,0,11,11,11,,,,,,,,,935.3544041999999,,,,,,,,,,,,,,,,,,,,,,,,,,,,935.3392557000002,935.3544041999999,935.3544041999999,935.8544519000002,935.8544519000002,938.3543755000001,938.3543755000001,938.3382815,None,1,,,,,,,,,,,,,,,,,,,,,,,,,,,,,,,,,,,,,,,,,,,,,nback31,001,2023-12-15_15h56.47.539,untitled,2023.2.3,59.98199340556101,2023-12-15 16h27.19.532779 -0500,
6,"[-0.3, 0]",None,0,12,12,12,,,,,,,,,938.3543755000001,,,,,,,,,,,,,,,,,,,,,,,,,,,,938.3387462999999,938.3543755000001,938.3543755000001,938.8543801999999,938.8543801999999,941.3541495,941.3541495,941.3385042,None,1,,,,,,,,,,,,,,,,,,,,,,,,,,,,,,,,,,,,,,,,,,,,,nback31,001,2023-12-15_15h56.47.539,untitled,2023.2.3,59.98199340556101,2023-12-15 16h27.19.532779 -0500,
9,"[0.2, -0.1]",None,0,13,13,13,,,,,,,,,941.3541495,,,,,,,,,,,,,,,,,,,,,,,,,,,,941.3392186000001,941.3541495,941.3541495,941.8543918,941.8543918,944.3541679,944.3541679,944.3382858,None,1,,,,,,,,,,,,,,,,,,,,,,,,,,,,,,,,,,,,,,,,,,,,,nback31,001,2023-12-15_15h56.47.539,untitled,2023.2.3,59.98199340556101,2023-12-15 16h27.19.532779 -0500,
7,"[0.3, 0]",None,0,14,14,14,,,,,,,,,944.3541679,,,,,,,,,,,,,,,,,,,,,,,,,,,,944.3388998999999,944.3541679,944.3541679,944.8541918000001,944.8541918000001,947.3542100999998,947.3542100999998,947.3382925999999,None,1,,,,,,,,,,,,,,,,,,,,,,,,,,,,,,,,,,,,,,,,,,,,,nback31,001,2023-12-15_15h56.47.539,untitled,2023.2.3,59.98199340556101,2023-12-15 16h27.19.532779 -0500,
2,"[0.64, 0.4]",None,0,15,15,15,,,,,,,,,947.3542100999998,,,,,,,,,,,,,,,,,,,,,,,,,,,,947.3389465,947.3542100999998,947.3542100999998,947.8541012999999,947.8541012999999,950.3540641999998,950.3540641999998,950.3382680999998,None,1,,,,,,,,,,,,,,,,,,,,,,,,,,,,,,,,,,,,,,,,,,,,,nback31,001,2023-12-15_15h56.47.539,untitled,2023.2.3,59.98199340556101,2023-12-15 16h27.19.532779 -0500,
2,"[0.64, 0.4]",None,0,16,16,16,,,,,,,,,950.3540641999998,,,,,,,,,,,,,,,,,,,,,,,,,,,,950.3389258000002,950.3540641999998,950.3540641999998,950.8539593,950.8539593,953.3540416000001,953.3540416000001,953.3383656999999,None,1,,,,,,,,,,,,,,,,,,,,,,,,,,,,,,,,,,,,,,,,,,,,,nback31,001,2023-12-15_15h56.47.539,untitled,2023.2.3,59.98199340556101,2023-12-15 16h27.19.532779 -0500,
11,"[-0.64, -0.4]",space,0,17,17,17,,,,,,,,,953.3540416000001,,,,,,,,,,,,,,,,,,,,,,,,,,,,953.3390253000002,953.3540416000001,953.3540416000001,953.8540711,953.8540711,956.3539451000001,956.3539451000001,956.3381331,space,1,0.3724211000003379,None,,,,,,,,,,,,,,,,,,,,,,,,,,,,,,,,,,,,,,,,,,,nback31,001,2023-12-15_15h56.47.539,untitled,2023.2.3,59.98199340556101,2023-12-15 16h27.19.532779 -0500,
11,"[-0.64, -0.4]",space,0,18,18,18,,,,,,,,,956.3539451000001,,,,,,,,,,,,,,,,,,,,,,,,,,,,956.3389734000002,956.3539451000001,956.3539451000001,956.8539286,956.8539286,959.3540025000002,959.3540025000002,959.3382216,space,1,0.4879995000001145,None,,,,,,,,,,,,,,,,,,,,,,,,,,,,,,,,,,,,,,,,,,,nback31,001,2023-12-15_15h56.47.539,untitled,2023.2.3,59.98199340556101,2023-12-15 16h27.19.532779 -0500,
7,"[0.3, 0]",None,0,19,19,19,,,,,,,,,959.3540025000002,,,,,,,,,,,,,,,,,,,,,,,,,,,,959.3390591000002,959.3540025000002,959.3540025000002,959.8539867,959.8539867,962.3540379000001,962.3540379000001,962.3379023000002,None,1,,,,,,,,,,,,,,,,,,,,,,,,,,,,,,,,,,,,,,,,,,,,,nback31,001,2023-12-15_15h56.47.539,untitled,2023.2.3,59.98199340556101,2023-12-15 16h27.19.532779 -0500,
3,"[0, 0.2]",None,0,20,20,20,,,,,,,,,962.3540379000001,,,,,,,,,,,,,,,,,,,,,,,,,,,,962.3384658999998,962.3540379000001,962.3540379000001,962.8538954,962.8538954,965.3538460999998,965.3538460999998,965.3378604999998,None,1,,,,,,,,,,,,,,,,,,,,,,,,,,,,,,,,,,,,,,,,,,,,,nback31,001,2023-12-15_15h56.47.539,untitled,2023.2.3,59.98199340556101,2023-12-15 16h27.19.532779 -0500,
10,"[0, -0.2]",None,0,21,21,21,,,,,,,,,965.3538460999998,,,,,,,,,,,,,,,,,,,,,,,,,,,,965.3384728000001,965.3538460999998,965.3538460999998,965.8537989000001,965.8537989000001,968.3535993,968.3535993,968.3376114000002,None,1,,,,,,,,,,,,,,,,,,,,,,,,,,,,,,,,,,,,,,,,,,,,,nback31,001,2023-12-15_15h56.47.539,untitled,2023.2.3,59.98199340556101,2023-12-15 16h27.19.532779 -0500,
1,"[-0.64, 0.4]",None,0,22,22,22,,,,,,,,,968.3535993,,,,,,,,,,,,,,,,,,,,,,,,,,,,968.3380504000002,968.3535993,968.3535993,968.8537268999999,968.8537268999999,971.3537253,971.3537253,971.3377395000002,None,1,,,,,,,,,,,,,,,,,,,,,,,,,,,,,,,,,,,,,,,,,,,,,nback31,001,2023-12-15_15h56.47.539,untitled,2023.2.3,59.98199340556101,2023-12-15 16h27.19.532779 -0500,
2,"[0.64, 0.4]",None,0,23,23,23,,,,,,,,,971.3537253,,,,,,,,,,,,,,,,,,,,,,,,,,,,971.3384065999999,971.3537253,971.3537253,971.8536242999999,971.8536242999999,974.3537541999999,974.3537541999999,974.3377934,None,1,,,,,,,,,,,,,,,,,,,,,,,,,,,,,,,,,,,,,,,,,,,,,nback31,001,2023-12-15_15h56.47.539,untitled,2023.2.3,59.98199340556101,2023-12-15 16h27.19.532779 -0500,
6,"[-0.3, 0]",None,0,24,24,24,,,,,,,,,974.3537541999999,,,,,,,,,,,,,,,,,,,,,,,,,,,,974.3384357999998,974.3537541999999,974.3537541999999,974.8534955999999,974.8534955999999,977.3535701000001,977.3535701000001,977.3381342000002,None,1,,,,,,,,,,,,,,,,,,,,,,,,,,,,,,,,,,,,,,,,,,,,,nback31,001,2023-12-15_15h56.47.539,untitled,2023.2.3,59.98199340556101,2023-12-15 16h27.19.532779 -0500,
3,"[0, 0.2]",None,0,25,25,25,,,,,,,,,977.3535701000001,,,,,,,,,,,,,,,,,,,,,,,,,,,,977.3388633999998,977.3535701000001,977.3535701000001,977.8533947999999,977.8533947999999,980.3535633000001,980.3535633000001,980.3375277,None,1,,,,,,,,,,,,,,,,,,,,,,,,,,,,,,,,,,,,,,,,,,,,,nback31,001,2023-12-15_15h56.47.539,untitled,2023.2.3,59.98199340556101,2023-12-15 16h27.19.532779 -0500,
11,"[-0.64, -0.4]",space,0,26,26,26,,,,,,,,,980.3535633000001,,,,,,,,,,,,,,,,,,,,,,,,,,,,980.3381809000002,980.3535633000001,980.3535633000001,980.8533802000002,980.8533802000002,983.3533874999998,983.3533874999998,983.3377408000001,space,1,0.41426069999988613,None,,,,,,,,,,,,,,,,,,,,,,,,,,,,,,,,,,,,,,,,,,,nback31,001,2023-12-15_15h56.47.539,untitled,2023.2.3,59.98199340556101,2023-12-15 16h27.19.532779 -0500,
1,"[-0.64, 0.4]",None,0,27,27,27,,,,,,,,,983.3533874999998,,,,,,,,,,,,,,,,,,,,,,,,,,,,983.3384703000002,983.3533874999998,983.3533874999998,983.8535471999999,983.8535471999999,986.3534460000001,986.3534460000001,986.3374435999999,None,1,,,,,,,,,,,,,,,,,,,,,,,,,,,,,,,,,,,,,,,,,,,,,nback31,001,2023-12-15_15h56.47.539,untitled,2023.2.3,59.98199340556101,2023-12-15 16h27.19.532779 -0500,
3,"[0, 0.2]",None,0,28,28,28,,,,,,,,,986.3534460000001,,,,,,,,,,,,,,,,,,,,,,,,,,,,986.3380017999998,986.3534460000001,986.3534460000001,986.8536414999999,986.8536414999999,989.3536164000002,989.3536164000002,989.3378914999998,None,1,,,,,,,,,,,,,,,,,,,,,,,,,,,,,,,,,,,,,,,,,,,,,nback31,001,2023-12-15_15h56.47.539,untitled,2023.2.3,59.98199340556101,2023-12-15 16h27.19.532779 -0500,
9,"[0.2, -0.1]",None,0,29,29,29,,,,,,,,,989.3536164000002,,,,,,,,,,,,,,,,,,,,,,,,,,,,989.3386801000001,989.3536164000002,989.3536164000002,989.8534344,989.8534344,992.3533044000001,992.3533044000001,992.3373305999999,None,1,,,,,,,,,,,,,,,,,,,,,,,,,,,,,,,,,,,,,,,,,,,,,nback31,001,2023-12-15_15h56.47.539,untitled,2023.2.3,59.98199340556101,2023-12-15 16h27.19.532779 -0500,
8,"[-0.2, -0.1]",None,0,30,30,30,,,,,,,,,992.3533044000001,,,,,,,,,,,,,,,,,,,,,,,,,,,,992.3379714000002,992.3533044000001,992.3533044000001,992.8534215,992.8534215,995.3534362,995.3534362,995.3375704,None,1,,,,,,,,,,,,,,,,,,,,,,,,,,,,,,,,,,,,,,,,,,,,,nback31,001,2023-12-15_15h56.47.539,untitled,2023.2.3,59.98199340556101,2023-12-15 16h27.19.532779 -0500,
12,"[0.64, -0.4]",None,0,31,31,31,,,,,,,,,995.3534362,,,,,,,,,,,,,,,,,,,,,,,,,,,,995.3381964999999,995.3534362,995.3534362,995.8531681,995.8531681,998.35349,998.35349,998.3372786,None,1,,,,,,,,,,,,,,,,,,,,,,,,,,,,,,,,,,,,,,,,,,,,,nback31,001,2023-12-15_15h56.47.539,untitled,2023.2.3,59.98199340556101,2023-12-15 16h27.19.532779 -0500,
9,"[0.2, -0.1]",None,0,32,32,32,,,,,,,,,998.35349,,,,,,,,,,,,,,,,,,,,,,,,,,,,998.3378782999998,998.35349,998.35349,998.8533419,998.8533419,1001.3530581,1001.3530581,1001.3372180000001,None,1,,,,,,,,,,,,,,,,,,,,,,,,,,,,,,,,,,,,,,,,,,,,,nback31,001,2023-12-15_15h56.47.539,untitled,2023.2.3,59.98199340556101,2023-12-15 16h27.19.532779 -0500,
11,"[-0.64, -0.4]",space,0,33,33,33,,,,,,,,,1001.3530581,,,,,,,,,,,,,,,,,,,,,,,,,,,,1001.3377516999999,1001.3530581,1001.3530581,1001.8532592000001,1001.8532592000001,1004.3531207999999,1004.3531207999999,1004.3373574000002,space,1,0.3911988999998357,None,,,,,,,,,,,,,,,,,,,,,,,,,,,,,,,,,,,,,,,,,,,nback31,001,2023-12-15_15h56.47.539,untitled,2023.2.3,59.98199340556101,2023-12-15 16h27.19.532779 -0500,
7,"[0.3, 0]",None,0,34,34,34,,,,,,,,,1004.3531207999999,,,,,,,,,,,,,,,,,,,,,,,,,,,,1004.3380900000002,1004.3531207999999,1004.3531207999999,1004.8532525,1004.8532525,1007.3529616999999,1007.3529616999999,1007.3372657,None,1,,,,,,,,,,,,,,,,,,,,,,,,,,,,,,,,,,,,,,,,,,,,,nback31,001,2023-12-15_15h56.47.539,untitled,2023.2.3,59.98199340556101,2023-12-15 16h27.19.532779 -0500,
11,"[-0.64, -0.4]",space,0,35,35,35,,,,,,,,,1007.3529616999999,,,,,,,,,,,,,,,,,,,,,,,,,,,,1007.3378828,1007.3529616999999,1007.3529616999999,1007.8532611,1007.8532611,1010.3531502000001,1010.3531502000001,1010.3376407999999,space,1,0.4005322999996679,None,,,,,,,,,,,,,,,,,,,,,,,,,,,,,,,,,,,,,,,,,,,nback31,001,2023-12-15_15h56.47.539,untitled,2023.2.3,59.98199340556101,2023-12-15 16h27.19.532779 -0500,
4,"[-0.2, 0.1]",None,0,36,36,36,,,,,,,,,1010.3531502000001,,,,,,,,,,,,,,,,,,,,,,,,,,,,1010.3387056000001,1010.3531502000001,1010.3531502000001,1010.8530578,1010.8530578,1013.3532190999999,1013.3532190999999,1013.3371049000002,None,1,,,,,,,,,,,,,,,,,,,,,,,,,,,,,,,,,,,,,,,,,,,,,nback31,001,2023-12-15_15h56.47.539,untitled,2023.2.3,59.98199340556101,2023-12-15 16h27.19.532779 -0500,
5,"[0.2, 0.1]",None,0,37,37,37,,,,,,,,,1013.3532190999999,,,,,,,,,,,,,,,,,,,,,,,,,,,,1013.3376846000001,1013.3532190999999,1013.3532190999999,1013.8530142999998,1013.8530142999998,1016.3529791000001,1016.3529791000001,1016.337106,None,1,,,,,,,,,,,,,,,,,,,,,,,,,,,,,,,,,,,,,,,,,,,,,nback31,001,2023-12-15_15h56.47.539,untitled,2023.2.3,59.98199340556101,2023-12-15 16h27.19.532779 -0500,
6,"[-0.3, 0]",None,0,38,38,38,,,,,,,,,1016.3529791000001,,,,,,,,,,,,,,,,,,,,,,,,,,,,1016.3377074999999,1016.3529791000001,1016.3529791000001,1016.8530363999998,1016.8530363999998,1019.3529669999998,1019.3529669999998,1019.3371152999998,None,1,,,,,,,,,,,,,,,,,,,,,,,,,,,,,,,,,,,,,,,,,,,,,nback31,001,2023-12-15_15h56.47.539,untitled,2023.2.3,59.98199340556101,2023-12-15 16h27.19.532779 -0500,
11,"[-0.64, -0.4]",space,0,39,39,39,,,,,,,,,1019.3529669999998,,,,,,,,,,,,,,,,,,,,,,,,,,,,1019.3377598000002,1019.3529669999998,1019.3529669999998,1019.8528630999999,1019.8528630999999,1022.3529589,1022.3529589,1022.3370709000001,space,1,0.41626140000016676,None,,,,,,,,,,,,,,,,,,,,,,,,,,,,,,,,,,,,,,,,,,,nback31,001,2023-12-15_15h56.47.539,untitled,2023.2.3,59.98199340556101,2023-12-15 16h27.19.532779 -0500,
,,,,,,,,,,,,,,,,,,,,,,,,,,,,,,,,,,,,,,,,,,,,,,,,,,,,,,,1022.3376487,1022.3529589,1022.3529589,1057.1537675,space,34.79559999999992,None,,,,,,,,,,,,,,,,,,,,,,,,,,,,,,,,,,,,nback31,001,2023-12-15_15h56.47.539,untitled,2023.2.3,59.98199340556101,2023-12-15 16h27.19.532779 -0500,
10,"[0, -0.2]",None,,,,,0,0,0,0,,,,,1058.1688006,,,,,,,,,,,,,,,,,,,,,,,,1057.1538034,1057.1688033,1058.1688006,1058.1526444,,,,,,,,,,,,,,,,,,,,1058.1591048,1058.1688006,1058.1688006,1058.6689534000002,1058.6689534000002,1061.1688184,1061.1688184,1061.1531644000002,None,1,,,,,,,,,,,,,,,,,,,,,,,,,,nback31,001,2023-12-15_15h56.47.539,untitled,2023.2.3,59.98199340556101,2023-12-15 16h27.19.532779 -0500,
5,"[0.2, 0.1]",None,,,,,0,1,1,1,,,,,1061.1688184,,,,,,,,,,,,,,,,,,,,,,,,,,,,,,,,,,,,,,,,,,,,,,,1061.1540343000001,1061.1688184,1061.1688184,1061.6688282,1061.6688282,1064.1687948,1064.1687948,1064.1527964000002,None,1,,,,,,,,,,,,,,,,,,,,,,,,,,nback31,001,2023-12-15_15h56.47.539,untitled,2023.2.3,59.98199340556101,2023-12-15 16h27.19.532779 -0500,
6,"[-0.3, 0]",None,,,,,0,2,2,2,,,,,1064.1687948,,,,,,,,,,,,,,,,,,,,,,,,,,,,,,,,,,,,,,,,,,,,,,,1064.1534127,1064.1687948,1064.1687948,1064.6689477,1064.6689477,1067.1688166,1067.1688166,1067.1528545,None,1,,,,,,,,,,,,,,,,,,,,,,,,,,nback31,001,2023-12-15_15h56.47.539,untitled,2023.2.3,59.98199340556101,2023-12-15 16h27.19.532779 -0500,
6,"[-0.3, 0]",space,,,,,0,3,3,3,,,,,1067.1688166,,,,,,,,,,,,,,,,,,,,,,,,,,,,,,,,,,,,,,,,,,,,,,,1067.1535079999999,1067.1688166,1067.1688166,1067.6688365999998,1067.6688365999998,1070.1687349,1070.1687349,1070.1530446000002,space,1,0.35936119999996663,None,,,,,,,,,,,,,,,,,,,,,,,,nback31,001,2023-12-15_15h56.47.539,untitled,2023.2.3,59.98199340556101,2023-12-15 16h27.19.532779 -0500,
12,"[0.64, -0.4]",None,,,,,0,4,4,4,,,,,1070.1687349,,,,,,,,,,,,,,,,,,,,,,,,,,,,,,,,,,,,,,,,,,,,,,,1070.1542534999999,1070.1687349,1070.1687349,1070.6688499000002,1070.6688499000002,1073.1687093,1073.1687093,1073.1525265999999,None,1,,,,,,,,,,,,,,,,,,,,,,,,,,nback31,001,2023-12-15_15h56.47.539,untitled,2023.2.3,59.98199340556101,2023-12-15 16h27.19.532779 -0500,
10,"[0, -0.2]",None,,,,,0,5,5,5,,,,,1073.1687093,,,,,,,,,,,,,,,,,,,,,,,,,,,,,,,,,,,,,,,,,,,,,,,1073.1531353999999,1073.1687093,1073.1687093,1073.6686547,1073.6686547,1076.1685848000002,1076.1685848000002,1076.152678,None,1,,,,,,,,,,,,,,,,,,,,,,,,,,nback31,001,2023-12-15_15h56.47.539,untitled,2023.2.3,59.98199340556101,2023-12-15 16h27.19.532779 -0500,
2,"[0.64, 0.4]",None,,,,,0,6,6,6,,,,,1076.1685848000002,,,,,,,,,,,,,,,,,,,,,,,,,,,,,,,,,,,,,,,,,,,,,,,1076.1532874999998,1076.1685848000002,1076.1685848000002,1076.6685695,1076.6685695,1079.1686237,1079.1686237,1079.1522897999998,None,1,,,,,,,,,,,,,,,,,,,,,,,,,,nback31,001,2023-12-15_15h56.47.539,untitled,2023.2.3,59.98199340556101,2023-12-15 16h27.19.532779 -0500,
9,"[0.2, -0.1]",None,,,,,0,7,7,7,,,,,1079.1686237,,,,,,,,,,,,,,,,,,,,,,,,,,,,,,,,,,,,,,,,,,,,,,,1079.1528219000002,1079.1686237,1079.1686237,1079.6685857000002,1079.6685857000002,1082.1688398000001,1082.1688398000001,1082.1523081,None,1,,,,,,,,,,,,,,,,,,,,,,,,,,nback31,001,2023-12-15_15h56.47.539,untitled,2023.2.3,59.98199340556101,2023-12-15 16h27.19.532779 -0500,
9,"[0.2, -0.1]",space,,,,,0,8,8,8,,,,,1082.1688398000001,,,,,,,,,,,,,,,,,,,,,,,,,,,,,,,,,,,,,,,,,,,,,,,1082.1528595,1082.1688398000001,1082.1688398000001,1082.6684745000002,1082.6684745000002,1085.1684721000001,1085.1684721000001,1085.1526081000002,space,1,0.3697181000002274,None,,,,,,,,,,,,,,,,,,,,,,,,nback31,001,2023-12-15_15h56.47.539,untitled,2023.2.3,59.98199340556101,2023-12-15 16h27.19.532779 -0500,
6,"[-0.3, 0]",None,,,,,0,9,9,9,,,,,1085.1684721000001,,,,,,,,,,,,,,,,,,,,,,,,,,,,,,,,,,,,,,,,,,,,,,,1085.1534763,1085.1684721000001,1085.1684721000001,1085.6685093,1085.6685093,1088.1682468,1088.1682468,1088.1523816,None,1,,,,,,,,,,,,,,,,,,,,,,,,,,nback31,001,2023-12-15_15h56.47.539,untitled,2023.2.3,59.98199340556101,2023-12-15 16h27.19.532779 -0500,
11,"[-0.64, -0.4]",None,,,,,0,10,10,10,,,,,1088.1682468,,,,,,,,,,,,,,,,,,,,,,,,,,,,,,,,,,,,,,,,,,,,,,,1088.1530162,1088.1682468,1088.1682468,1088.6684608,1088.6684608,1091.168291,1091.168291,1091.1524986999998,None,1,,,,,,,,,,,,,,,,,,,,,,,,,,nback31,001,2023-12-15_15h56.47.539,untitled,2023.2.3,59.98199340556101,2023-12-15 16h27.19.532779 -0500,
11,"[-0.64, -0.4]",space,,,,,0,11,11,11,,,,,1091.168291,,,,,,,,,,,,,,,,,,,,,,,,,,,,,,,,,,,,,,,,,,,,,,,1091.1531705000002,1091.168291,1091.168291,1091.6683113,1091.6683113,1094.1683275999999,1094.1683275999999,1094.1524329,space,1,0.39354299999968134,None,,,,,,,,,,,,,,,,,,,,,,,,nback31,001,2023-12-15_15h56.47.539,untitled,2023.2.3,59.98199340556101,2023-12-15 16h27.19.532779 -0500,
4,"[-0.2, 0.1]",None,,,,,0,12,12,12,,,,,1094.1683275999999,,,,,,,,,,,,,,,,,,,,,,,,,,,,,,,,,,,,,,,,,,,,,,,1094.1531393999999,1094.1683275999999,1094.1683275999999,1094.6683849,1094.6683849,1097.1683942,1097.1683942,1097.1522863999999,None,1,,,,,,,,,,,,,,,,,,,,,,,,,,nback31,001,2023-12-15_15h56.47.539,untitled,2023.2.3,59.98199340556101,2023-12-15 16h27.19.532779 -0500,
3,"[0, 0.2]",None,,,,,0,13,13,13,,,,,1097.1683942,,,,,,,,,,,,,,,,,,,,,,,,,,,,,,,,,,,,,,,,,,,,,,,1097.1529294000002,1097.1683942,1097.1683942,1097.6683805000002,1097.6683805000002,1100.168278,1100.168278,1100.1521779,None,1,,,,,,,,,,,,,,,,,,,,,,,,,,nback31,001,2023-12-15_15h56.47.539,untitled,2023.2.3,59.98199340556101,2023-12-15 16h27.19.532779 -0500,
3,"[0, 0.2]",space,,,,,0,14,14,14,,,,,1100.168278,,,,,,,,,,,,,,,,,,,,,,,,,,,,,,,,,,,,,,,,,,,,,,,1100.1528057,1100.168278,1100.168278,1100.6682037,1100.6682037,1103.1683831,1103.1683831,1103.1518609,space,1,0.6374013999998169,None,,,,,,,,,,,,,,,,,,,,,,,,nback31,001,2023-12-15_15h56.47.539,untitled,2023.2.3,59.98199340556101,2023-12-15 16h27.19.532779 -0500,
8,"[-0.2, -0.1]",None,,,,,0,15,15,15,,,,,1103.1683831,,,,,,,,,,,,,,,,,,,,,,,,,,,,,,,,,,,,,,,,,,,,,,,1103.1526577999998,1103.1683831,1103.1683831,1103.6682449,1103.6682449,1106.1682523,1106.1682523,1106.1521853,None,1,,,,,,,,,,,,,,,,,,,,,,,,,,nback31,001,2023-12-15_15h56.47.539,untitled,2023.2.3,59.98199340556101,2023-12-15 16h27.19.532779 -0500,
1,"[-0.64, 0.4]",None,,,,,0,16,16,16,,,,,1106.1682523,,,,,,,,,,,,,,,,,,,,,,,,,,,,,,,,,,,,,,,,,,,,,,,1106.1528429999998,1106.1682523,1106.1682523,1106.6680167999998,1106.6680167999998,1109.1680206,1109.1680206,1109.1522277,None,1,,,,,,,,,,,,,,,,,,,,,,,,,,nback31,001,2023-12-15_15h56.47.539,untitled,2023.2.3,59.98199340556101,2023-12-15 16h27.19.532779 -0500,
2,"[0.64, 0.4]",None,,,,,0,17,17,17,,,,,1109.1680206,,,,,,,,,,,,,,,,,,,,,,,,,,,,,,,,,,,,,,,,,,,,,,,1109.1528506999998,1109.1680206,1109.1680206,1109.6680492,1109.6680492,1112.1678925,1112.1678925,1112.1520095,None,1,,,,,,,,,,,,,,,,,,,,,,,,,,nback31,001,2023-12-15_15h56.47.539,untitled,2023.2.3,59.98199340556101,2023-12-15 16h27.19.532779 -0500,
4,"[-0.2, 0.1]",None,,,,,0,18,18,18,,,,,1112.1678925,,,,,,,,,,,,,,,,,,,,,,,,,,,,,,,,,,,,,,,,,,,,,,,1112.1527585,1112.1678925,1112.1678925,1112.6679201000002,1112.6679201000002,1115.1679825,1115.1679825,1115.1521527999998,None,1,,,,,,,,,,,,,,,,,,,,,,,,,,nback31,001,2023-12-15_15h56.47.539,untitled,2023.2.3,59.98199340556101,2023-12-15 16h27.19.532779 -0500,
4,"[-0.2, 0.1]",space,,,,,0,19,19,19,,,,,1115.1679825,,,,,,,,,,,,,,,,,,,,,,,,,,,,,,,,,,,,,,,,,,,,,,,1115.1527947999998,1115.1679825,1115.1679825,1115.6679195000002,1115.6679195000002,1118.1678559000002,1118.1678559000002,1118.1520921000001,space,1,0.4020000999998956,None,,,,,,,,,,,,,,,,,,,,,,,,nback31,001,2023-12-15_15h56.47.539,untitled,2023.2.3,59.98199340556101,2023-12-15 16h27.19.532779 -0500,
8,"[-0.2, -0.1]",None,,,,,0,20,20,20,,,,,1118.1678559000002,,,,,,,,,,,,,,,,,,,,,,,,,,,,,,,,,,,,,,,,,,,,,,,1118.1529572999998,1118.1678559000002,1118.1678559000002,1118.6680809,1118.6680809,1121.1677974,1121.1677974,1121.1518777000001,None,1,,,,,,,,,,,,,,,,,,,,,,,,,,nback31,001,2023-12-15_15h56.47.539,untitled,2023.2.3,59.98199340556101,2023-12-15 16h27.19.532779 -0500,
5,"[0.2, 0.1]",None,,,,,0,21,21,21,,,,,1121.1677974,,,,,,,,,,,,,,,,,,,,,,,,,,,,,,,,,,,,,,,,,,,,,,,1121.1525370999998,1121.1677974,1121.1677974,1121.6676357000001,1121.6676357000001,1124.1679477000002,1124.1679477000002,1124.1519604999999,None,1,,,,,,,,,,,,,,,,,,,,,,,,,,nback31,001,2023-12-15_15h56.47.539,untitled,2023.2.3,59.98199340556101,2023-12-15 16h27.19.532779 -0500,
5,"[0.2, 0.1]",space,,,,,0,22,22,22,,,,,1124.1679477000002,,,,,,,,,,,,,,,,,,,,,,,,,,,,,,,,,,,,,,,,,,,,,,,1124.1526442999998,1124.1679477000002,1124.1679477000002,1124.6677795,1124.6677795,1127.167743,1127.167743,1127.1519829,space,1,0.5587580999999773,None,,,,,,,,,,,,,,,,,,,,,,,,nback31,001,2023-12-15_15h56.47.539,untitled,2023.2.3,59.98199340556101,2023-12-15 16h27.19.532779 -0500,
1,"[-0.64, 0.4]",None,,,,,0,23,23,23,,,,,1127.167743,,,,,,,,,,,,,,,,,,,,,,,,,,,,,,,,,,,,,,,,,,,,,,,1127.1528483000002,1127.167743,1127.167743,1127.6677214000001,1127.6677214000001,1130.1677235000002,1130.1677235000002,1130.1517370000001,None,1,,,,,,,,,,,,,,,,,,,,,,,,,,nback31,001,2023-12-15_15h56.47.539,untitled,2023.2.3,59.98199340556101,2023-12-15 16h27.19.532779 -0500,
3,"[0, 0.2]",None,,,,,0,24,24,24,,,,,1130.1677235000002,,,,,,,,,,,,,,,,,,,,,,,,,,,,,,,,,,,,,,,,,,,,,,,1130.1522312000002,1130.1677235000002,1130.1677235000002,1130.6675907,1130.6675907,1133.1675832,1133.1675832,1133.1517030999998,None,1,,,,,,,,,,,,,,,,,,,,,,,,,,nback31,001,2023-12-15_15h56.47.539,untitled,2023.2.3,59.98199340556101,2023-12-15 16h27.19.532779 -0500,
6,"[-0.3, 0]",None,,,,,0,25,25,25,,,,,1133.1675832,,,,,,,,,,,,,,,,,,,,,,,,,,,,,,,,,,,,,,,,,,,,,,,1133.1523272,1133.1675832,1133.1675832,1133.6675894999998,1133.6675894999998,1136.1675126,1136.1675126,1136.1514258000002,None,1,,,,,,,,,,,,,,,,,,,,,,,,,,nback31,001,2023-12-15_15h56.47.539,untitled,2023.2.3,59.98199340556101,2023-12-15 16h27.19.532779 -0500,
1,"[-0.64, 0.4]",None,,,,,0,26,26,26,,,,,1136.1675126,,,,,,,,,,,,,,,,,,,,,,,,,,,,,,,,,,,,,,,,,,,,,,,1136.1520598000002,1136.1675126,1136.1675126,1136.6676668999999,1136.6676668999999,1139.1675168000002,1139.1675168000002,1139.1516408000002,None,1,,,,,,,,,,,,,,,,,,,,,,,,,,nback31,001,2023-12-15_15h56.47.539,untitled,2023.2.3,59.98199340556101,2023-12-15 16h27.19.532779 -0500,
1,"[-0.64, 0.4]",space,,,,,0,27,27,27,,,,,1139.1675168000002,,,,,,,,,,,,,,,,,,,,,,,,,,,,,,,,,,,,,,,,,,,,,,,1139.1523195,1139.1675168000002,1139.1675168000002,1139.6675340000002,1139.6675340000002,1142.1673807000002,1142.1673807000002,1142.1516204999998,space,1,0.587368499999684,None,,,,,,,,,,,,,,,,,,,,,,,,nback31,001,2023-12-15_15h56.47.539,untitled,2023.2.3,59.98199340556101,2023-12-15 16h27.19.532779 -0500,
1,"[-0.64, 0.4]",space,,,,,0,28,28,28,,,,,1142.1673807000002,,,,,,,,,,,,,,,,,,,,,,,,,,,,,,,,,,,,,,,,,,,,,,,1142.152391,1142.1673807000002,1142.1673807000002,1142.6674438,1142.6674438,1145.1673999,1145.1673999,1145.151578,space,1,0.44184480000012627,None,,,,,,,,,,,,,,,,,,,,,,,,nback31,001,2023-12-15_15h56.47.539,untitled,2023.2.3,59.98199340556101,2023-12-15 16h27.19.532779 -0500,
3,"[0, 0.2]",None,,,,,0,29,29,29,,,,,1145.1673999,,,,,,,,,,,,,,,,,,,,,,,,,,,,,,,,,,,,,,,,,,,,,,,1145.1523459,1145.1673999,1145.1673999,1145.6675315000002,1145.6675315000002,1148.16745,1148.16745,1148.1515009999998,None,1,,,,,,,,,,,,,,,,,,,,,,,,,,nback31,001,2023-12-15_15h56.47.539,untitled,2023.2.3,59.98199340556101,2023-12-15 16h27.19.532779 -0500,
12,"[0.64, -0.4]",None,,,,,0,30,30,30,,,,,1148.16745,,,,,,,,,,,,,,,,,,,,,,,,,,,,,,,,,,,,,,,,,,,,,,,1148.1521778000001,1148.16745,1148.16745,1148.6674477000001,1148.6674477000001,1151.1673804000002,1151.1673804000002,1151.1516388999999,None,1,,,,,,,,,,,,,,,,,,,,,,,,,,nback31,001,2023-12-15_15h56.47.539,untitled,2023.2.3,59.98199340556101,2023-12-15 16h27.19.532779 -0500,
12,"[0.64, -0.4]",space,,,,,0,31,31,31,,,,,1151.1673804000002,,,,,,,,,,,,,,,,,,,,,,,,,,,,,,,,,,,,,,,,,,,,,,,1151.1523981999999,1151.1673804000002,1151.1673804000002,1151.6673541999999,1151.6673541999999,1154.1672284,1154.1672284,1154.1513432000002,space,1,0.3629703999999947,None,,,,,,,,,,,,,,,,,,,,,,,,nback31,001,2023-12-15_15h56.47.539,untitled,2023.2.3,59.98199340556101,2023-12-15 16h27.19.532779 -0500,
2,"[0.64, 0.4]",None,,,,,0,32,32,32,,,,,1154.1672284,,,,,,,,,,,,,,,,,,,,,,,,,,,,,,,,,,,,,,,,,,,,,,,1154.1521116,1154.1672284,1154.1672284,1154.6672414999998,1154.6672414999998,1157.1672317000002,1157.1672317000002,1157.1514763,None,1,,,,,,,,,,,,,,,,,,,,,,,,,,nback31,001,2023-12-15_15h56.47.539,untitled,2023.2.3,59.98199340556101,2023-12-15 16h27.19.532779 -0500,
1,"[-0.64, 0.4]",None,,,,,0,33,33,33,,,,,1157.1672317000002,,,,,,,,,,,,,,,,,,,,,,,,,,,,,,,,,,,,,,,,,,,,,,,1157.1521226999998,1157.1672317000002,1157.1672317000002,1157.6671898999998,1157.6671898999998,1160.1671944999998,1160.1671944999998,1160.1511338,None,1,,,,,,,,,,,,,,,,,,,,,,,,,,nback31,001,2023-12-15_15h56.47.539,untitled,2023.2.3,59.98199340556101,2023-12-15 16h27.19.532779 -0500,
7,"[0.3, 0]",None,,,,,0,34,34,34,,,,,1160.1671944999998,,,,,,,,,,,,,,,,,,,,,,,,,,,,,,,,,,,,,,,,,,,,,,,1160.1516145,1160.1671944999998,1160.1671944999998,1160.6671218000001,1160.6671218000001,1163.1669891000001,1163.1669891000001,1163.1512378000002,None,1,,,,,,,,,,,,,,,,,,,,,,,,,,nback31,001,2023-12-15_15h56.47.539,untitled,2023.2.3,59.98199340556101,2023-12-15 16h27.19.532779 -0500,
7,"[0.3, 0]",space,,,,,0,35,35,35,,,,,1163.1669891000001,,,,,,,,,,,,,,,,,,,,,,,,,,,,,,,,,,,,,,,,,,,,,,,1163.1519152,1163.1669891000001,1163.1669891000001,1163.6671212,1163.6671212,1166.1671815999998,1166.1671815999998,1166.1514146,space,1,0.3905122000001029,None,,,,,,,,,,,,,,,,,,,,,,,,nback31,001,2023-12-15_15h56.47.539,untitled,2023.2.3,59.98199340556101,2023-12-15 16h27.19.532779 -0500,
11,"[-0.64, -0.4]",None,,,,,0,36,36,36,,,,,1166.1671815999998,,,,,,,,,,,,,,,,,,,,,,,,,,,,,,,,,,,,,,,,,,,,,,,1166.1525038999998,1166.1671815999998,1166.1671815999998,1166.6670402999998,1166.6670402999998,1169.1669324,1169.1669324,1169.1510991,None,1,,,,,,,,,,,,,,,,,,,,,,,,,,nback31,001,2023-12-15_15h56.47.539,untitled,2023.2.3,59.98199340556101,2023-12-15 16h27.19.532779 -0500,
2,"[0.64, 0.4]",None,,,,,0,37,37,37,,,,,1169.1669324,,,,,,,,,,,,,,,,,,,,,,,,,,,,,,,,,,,,,,,,,,,,,,,1169.1518105,1169.1669324,1169.1669324,1169.6671235,1169.6671235,1172.1670653,1172.1670653,1172.1512406000002,None,1,,,,,,,,,,,,,,,,,,,,,,,,,,nback31,001,2023-12-15_15h56.47.539,untitled,2023.2.3,59.98199340556101,2023-12-15 16h27.19.532779 -0500,
6,"[-0.3, 0]",None,,,,,0,38,38,38,,,,,1172.1670653,,,,,,,,,,,,,,,,,,,,,,,,,,,,,,,,,,,,,,,,,,,,,,,1172.1521131999998,1172.1670653,1172.1670653,1172.6670826999998,1172.6670826999998,1175.1670374,1175.1670374,1175.1509473,None,1,,,,,,,,,,,,,,,,,,,,,,,,,,nback31,001,2023-12-15_15h56.47.539,untitled,2023.2.3,59.98199340556101,2023-12-15 16h27.19.532779 -0500,
10,"[0, -0.2]",None,,,,,0,39,39,39,,,,,1175.1670374,,,,,,,,,,,,,,,,,,,,,,,,,,,,,,,,,,,,,,,,,,,,,,,1175.1515724,1175.1670374,1175.1670374,1175.6669663000002,1175.6669663000002,1178.1670794000001,1178.1670794000001,1178.1508417,None,1,,,,,,,,,,,,,,,,,,,,,,,,,,nback31,001,2023-12-15_15h56.47.539,untitled,2023.2.3,59.98199340556101,2023-12-15 16h27.19.532779 -0500,
,,,,,,,,,,,,,,,,,,,,,,,,,,,,,,,,,,,,,,,,,,,,,,,,,,,,,,,,,,,,,,,,,,,,,,,,,,1178.1512882000002,1178.1670794000001,1178.1670794000001,1215.5008807,space,37.324338700000226,None,,,,,,,,,,,,,,,,,nback31,001,2023-12-15_15h56.47.539,untitled,2023.2.3,59.98199340556101,2023-12-15 16h27.19.532779 -0500,
,"[0.2, 0.1]",None,,,,,,,,,0,0,0,0,1216.5161226,,,,,,,,,,,,,,,,,,,,,,,,1215.5009212,1215.5163099000001,1216.5161226,1216.5002429,,,,,,,,,,,,,,,,,,,,,,,,,,,,,,,,,,,,,,,1216.507885,1216.5161226,1216.5161226,1217.0161111000002,1217.0161111000002,1219.5160704,1219.5160704,1219.5004251,None,1,,,,,,,nback31,001,2023-12-15_15h56.47.539,untitled,2023.2.3,59.98199340556101,2023-12-15 16h27.19.532779 -0500,
,"[0.64, 0.4]",None,,,,,,,,,0,1,1,1,1219.5160704,,,,,,,,,,,,,,,,,,,,,,,,,,,,,,,,,,,,,,,,,,,,,,,,,,,,,,,,,,,,,,,,,,1219.5012809,1219.5160704,1219.5160704,1220.0162516999999,1220.0162516999999,1222.5159321,1222.5159321,1222.5001327999998,None,1,,,,,,,nback31,001,2023-12-15_15h56.47.539,untitled,2023.2.3,59.98199340556101,2023-12-15 16h27.19.532779 -0500,
,"[-0.3, 0]",None,,,,,,,,,0,2,2,2,1222.5159321,,,,,,,,,,,,,,,,,,,,,,,,,,,,,,,,,,,,,,,,,,,,,,,,,,,,,,,,,,,,,,,,,,1222.5006578000002,1222.5159321,1222.5159321,1223.0160439,1223.0160439,1225.5161579,1225.5161579,1225.4999026,None,1,,,,,,,nback31,001,2023-12-15_15h56.47.539,untitled,2023.2.3,59.98199340556101,2023-12-15 16h27.19.532779 -0500,
,"[0.2, -0.1]",None,,,,,,,,,0,3,3,3,1225.5161579,,,,,,,,,,,,,,,,,,,,,,,,,,,,,,,,,,,,,,,,,,,,,,,,,,,,,,,,,,,,,,,,,,1225.5004442999998,1225.5161579,1225.5161579,1226.0161895,1226.0161895,1228.5158427000001,1228.5158427000001,1228.5000454,None,1,,,,,,,nback31,001,2023-12-15_15h56.47.539,untitled,2023.2.3,59.98199340556101,2023-12-15 16h27.19.532779 -0500,
,"[0, 0.2]",None,,,,,,,,,0,4,4,4,1228.5158427000001,,,,,,,,,,,,,,,,,,,,,,,,,,,,,,,,,,,,,,,,,,,,,,,,,,,,,,,,,,,,,,,,,,1228.5006462000001,1228.5158427000001,1228.5158427000001,1229.0159886000001,1229.0159886000001,1231.515841,1231.515841,1231.5001287999999,None,1,,,,,,,nback31,001,2023-12-15_15h56.47.539,untitled,2023.2.3,59.98199340556101,2023-12-15 16h27.19.532779 -0500,
,"[0.2, -0.1]",space,,,,,,,,,0,5,5,5,1231.515841,,,,,,,,,,,,,,,,,,,,,,,,,,,,,,,,,,,,,,,,,,,,,,,,,,,,,,,,,,,,,,,,,,1231.5008094,1231.515841,1231.515841,1232.0159828,1232.0159828,1234.5157156999999,1234.5157156999999,1234.5001812,space,1,0.39699990000008256,None,,,,,nback31,001,2023-12-15_15h56.47.539,untitled,2023.2.3,59.98199340556101,2023-12-15 16h27.19.532779 -0500,
,"[0, -0.2]",None,,,,,,,,,0,6,6,6,1234.5157156999999,,,,,,,,,,,,,,,,,,,,,,,,,,,,,,,,,,,,,,,,,,,,,,,,,,,,,,,,,,,,,,,,,,1234.5012686999999,1234.5157156999999,1234.5157156999999,1235.0158523999999,1235.0158523999999,1237.5158781,1237.5158781,1237.4997532000002,None,1,,,,,,,nback31,001,2023-12-15_15h56.47.539,untitled,2023.2.3,59.98199340556101,2023-12-15 16h27.19.532779 -0500,
,"[0.64, -0.4]",None,,,,,,,,,0,7,7,7,1237.5158781,,,,,,,,,,,,,,,,,,,,,,,,,,,,,,,,,,,,,,,,,,,,,,,,,,,,,,,,,,,,,,,,,,1237.5003422,1237.5158781,1237.5158781,1238.0158858999998,1238.0158858999998,1240.5157024,1240.5157024,1240.4996351,None,1,,,,,,,nback31,001,2023-12-15_15h56.47.539,untitled,2023.2.3,59.98199340556101,2023-12-15 16h27.19.532779 -0500,
,"[0.3, 0]",None,,,,,,,,,0,8,8,8,1240.5157024,,,,,,,,,,,,,,,,,,,,,,,,,,,,,,,,,,,,,,,,,,,,,,,,,,,,,,,,,,,,,,,,,,1240.5001995000002,1240.5157024,1240.5157024,1241.0156410999998,1241.0156410999998,1243.5159259000002,1243.5159259000002,1243.4998222,None,1,,,,,,,nback31,001,2023-12-15_15h56.47.539,untitled,2023.2.3,59.98199340556101,2023-12-15 16h27.19.532779 -0500,
,"[0.64, -0.4]",space,,,,,,,,,0,9,9,9,1243.5159259000002,,,,,,,,,,,,,,,,,,,,,,,,,,,,,,,,,,,,,,,,,,,,,,,,,,,,,,,,,,,,,,,,,,1243.5005437,1243.5159259000002,1243.5159259000002,1244.0156885000001,1244.0156885000001,1246.5157046,1246.5157046,1246.4994339,space,1,0.49466490000031627,None,,,,,nback31,001,2023-12-15_15h56.47.539,untitled,2023.2.3,59.98199340556101,2023-12-15 16h27.19.532779 -0500,
,"[-0.64, 0.4]",None,,,,,,,,,0,10,10,10,1246.5157046,,,,,,,,,,,,,,,,,,,,,,,,,,,,,,,,,,,,,,,,,,,,,,,,,,,,,,,,,,,,,,,,,,1246.5001809,1246.5157046,1246.5157046,1247.0157963000001,1247.0157963000001,1249.515708,1249.515708,1249.4998792000001,None,1,,,,,,,nback31,001,2023-12-15_15h56.47.539,untitled,2023.2.3,59.98199340556101,2023-12-15 16h27.19.532779 -0500,
,"[0.2, 0.1]",None,,,,,,,,,0,11,11,11,1249.515708,,,,,,,,,,,,,,,,,,,,,,,,,,,,,,,,,,,,,,,,,,,,,,,,,,,,,,,,,,,,,,,,,,1249.5005992000001,1249.515708,1249.515708,1250.0158428,1250.0158428,1252.5156863000002,1252.5156863000002,1252.4999051999998,None,1,,,,,,,nback31,001,2023-12-15_15h56.47.539,untitled,2023.2.3,59.98199340556101,2023-12-15 16h27.19.532779 -0500,
,"[0.3, 0]",None,,,,,,,,,0,12,12,12,1252.5156863000002,,,,,,,,,,,,,,,,,,,,,,,,,,,,,,,,,,,,,,,,,,,,,,,,,,,,,,,,,,,,,,,,,,1252.5007452999998,1252.5156863000002,1252.5156863000002,1253.0154659999998,1253.0154659999998,1255.5154811000002,1255.5154811000002,1255.4994655,None,1,,,,,,,nback31,001,2023-12-15_15h56.47.539,untitled,2023.2.3,59.98199340556101,2023-12-15 16h27.19.532779 -0500,
,"[0.2, 0.1]",space,,,,,,,,,0,13,13,13,1255.5154811000002,,,,,,,,,,,,,,,,,,,,,,,,,,,,,,,,,,,,,,,,,,,,,,,,,,,,,,,,,,,,,,,,,,1255.5000448,1255.5154811000002,1255.5154811000002,1256.0155574,1256.0155574,1258.5153648,1258.5153648,1258.4996600999998,space,1,0.40950299999985873,None,,,,,nback31,001,2023-12-15_15h56.47.539,untitled,2023.2.3,59.98199340556101,2023-12-15 16h27.19.532779 -0500,
,"[-0.3, 0]",None,,,,,,,,,0,14,14,14,1258.5153648,,,,,,,,,,,,,,,,,,,,,,,,,,,,,,,,,,,,,,,,,,,,,,,,,,,,,,,,,,,,,,,,,,1258.5003746000002,1258.5153648,1258.5153648,1259.0155169,1259.0155169,1261.5153942000002,1261.5153942000002,1261.4995531999998,None,1,,,,,,,nback31,001,2023-12-15_15h56.47.539,untitled,2023.2.3,59.98199340556101,2023-12-15 16h27.19.532779 -0500,
,"[0, 0.2]",None,,,,,,,,,0,15,15,15,1261.5153942000002,,,,,,,,,,,,,,,,,,,,,,,,,,,,,,,,,,,,,,,,,,,,,,,,,,,,,,,,,,,,,,,,,,1261.5002593,1261.5153942000002,1261.5153942000002,1262.0154904,1262.0154904,1264.515246,1264.515246,1264.4994333,None,1,,,,,,,nback31,001,2023-12-15_15h56.47.539,untitled,2023.2.3,59.98199340556101,2023-12-15 16h27.19.532779 -0500,
,"[-0.3, 0]",space,,,,,,,,,0,16,16,16,1264.515246,,,,,,,,,,,,,,,,,,,,,,,,,,,,,,,,,,,,,,,,,,,,,,,,,,,,,,,,,,,,,,,,,,1264.500043,1264.515246,1264.515246,1265.0153885,1265.0153885,1267.5152899999998,1267.5152899999998,1267.4993506,space,1,0.48378390000016225,None,,,,,nback31,001,2023-12-15_15h56.47.539,untitled,2023.2.3,59.98199340556101,2023-12-15 16h27.19.532779 -0500,
,"[-0.64, -0.4]",None,,,,,,,,,0,17,17,17,1267.5152899999998,,,,,,,,,,,,,,,,,,,,,,,,,,,,,,,,,,,,,,,,,,,,,,,,,,,,,,,,,,,,,,,,,,1267.500118,1267.5152899999998,1267.5152899999998,1268.015273,1268.015273,1270.5152512,1270.5152512,1270.4994053,None,1,,,,,,,nback31,001,2023-12-15_15h56.47.539,untitled,2023.2.3,59.98199340556101,2023-12-15 16h27.19.532779 -0500,
,"[-0.2, -0.1]",None,,,,,,,,,0,18,18,18,1270.5152512,,,,,,,,,,,,,,,,,,,,,,,,,,,,,,,,,,,,,,,,,,,,,,,,,,,,,,,,,,,,,,,,,,1270.500051,1270.5152512,1270.5152512,1271.01532,1271.01532,1273.5152303999998,1273.5152303999998,1273.499316,None,1,,,,,,,nback31,001,2023-12-15_15h56.47.539,untitled,2023.2.3,59.98199340556101,2023-12-15 16h27.19.532779 -0500,
,"[0.2, -0.1]",None,,,,,,,,,0,19,19,19,1273.5152303999998,,,,,,,,,,,,,,,,,,,,,,,,,,,,,,,,,,,,,,,,,,,,,,,,,,,,,,,,,,,,,,,,,,1273.4999755,1273.5152303999998,1273.5152303999998,1274.0151986,1274.0151986,1276.5150162999998,1276.5150162999998,1276.4992608000002,None,1,,,,,,,nback31,001,2023-12-15_15h56.47.539,untitled,2023.2.3,59.98199340556101,2023-12-15 16h27.19.532779 -0500,
,"[0.2, -0.1]",None,,,,,,,,,0,20,20,20,1276.5150162999998,,,,,,,,,,,,,,,,,,,,,,,,,,,,,,,,,,,,,,,,,,,,,,,,,,,,,,,,,,,,,,,,,,1276.49993,1276.5150162999998,1276.5150162999998,1277.0151968999999,1277.0151968999999,1279.5149408000002,1279.5149408000002,1279.4992582999998,space,0,1.0661690000001727,None,,,,,nback31,001,2023-12-15_15h56.47.539,untitled,2023.2.3,59.98199340556101,2023-12-15 16h27.19.532779 -0500,
,"[-0.64, 0.4]",None,,,,,,,,,0,21,21,21,1279.5149408000002,,,,,,,,,,,,,,,,,,,,,,,,,,,,,,,,,,,,,,,,,,,,,,,,,,,,,,,,,,,,,,,,,,1279.5000875,1279.5149408000002,1279.5149408000002,1280.0152247,1280.0152247,1282.5151082000002,1282.5151082000002,1282.4991749,None,1,,,,,,,nback31,001,2023-12-15_15h56.47.539,untitled,2023.2.3,59.98199340556101,2023-12-15 16h27.19.532779 -0500,
,"[0, 0.2]",None,,,,,,,,,0,22,22,22,1282.5151082000002,,,,,,,,,,,,,,,,,,,,,,,,,,,,,,,,,,,,,,,,,,,,,,,,,,,,,,,,,,,,,,,,,,1282.4998888,1282.5151082000002,1282.5151082000002,1283.0151832000001,1283.0151832000001,1285.5150813999999,1285.5150813999999,1285.4990547000002,None,1,,,,,,,nback31,001,2023-12-15_15h56.47.539,untitled,2023.2.3,59.98199340556101,2023-12-15 16h27.19.532779 -0500,
,"[0.64, -0.4]",None,,,,,,,,,0,23,23,23,1285.5150813999999,,,,,,,,,,,,,,,,,,,,,,,,,,,,,,,,,,,,,,,,,,,,,,,,,,,,,,,,,,,,,,,,,,1285.4997385000001,1285.5150813999999,1285.5150813999999,1286.0149298000001,1286.0149298000001,1288.5149314999999,1288.5149314999999,1288.4991436999999,None,1,,,,,,,nback31,001,2023-12-15_15h56.47.539,untitled,2023.2.3,59.98199340556101,2023-12-15 16h27.19.532779 -0500,
,"[0, 0.2]",space,,,,,,,,,0,24,24,24,1288.5149314999999,,,,,,,,,,,,,,,,,,,,,,,,,,,,,,,,,,,,,,,,,,,,,,,,,,,,,,,,,,,,,,,,,,1288.4998442,1288.5149314999999,1288.5149314999999,1289.0149703000002,1289.0149703000002,1291.5147819,1291.5147819,1291.4989240999998,space,1,0.30036969999991925,None,,,,,nback31,001,2023-12-15_15h56.47.539,untitled,2023.2.3,59.98199340556101,2023-12-15 16h27.19.532779 -0500,
,"[-0.2, 0.1]",None,,,,,,,,,0,25,25,25,1291.5147819,,,,,,,,,,,,,,,,,,,,,,,,,,,,,,,,,,,,,,,,,,,,,,,,,,,,,,,,,,,,,,,,,,1291.4996804000002,1291.5147819,1291.5147819,1292.0148818000002,1292.0148818000002,1294.5148712,1294.5148712,1294.4989824,None,1,,,,,,,nback31,001,2023-12-15_15h56.47.539,untitled,2023.2.3,59.98199340556101,2023-12-15 16h27.19.532779 -0500,
,"[0.3, 0]",None,,,,,,,,,0,26,26,26,1294.5148712,,,,,,,,,,,,,,,,,,,,,,,,,,,,,,,,,,,,,,,,,,,,,,,,,,,,,,,,,,,,,,,,,,1294.499569,1294.5148712,1294.5148712,1295.0148368,1295.0148368,1297.5146456000002,1297.5146456000002,1297.4986356,None,1,,,,,,,nback31,001,2023-12-15_15h56.47.539,untitled,2023.2.3,59.98199340556101,2023-12-15 16h27.19.532779 -0500,
,"[-0.2, 0.1]",space,,,,,,,,,0,27,27,27,1297.5146456000002,,,,,,,,,,,,,,,,,,,,,,,,,,,,,,,,,,,,,,,,,,,,,,,,,,,,,,,,,,,,,,,,,,1297.4992471,1297.5146456000002,1297.5146456000002,1298.0148252,1298.0148252,1300.5145901,1300.5145901,1300.49827,space,1,0.35595499999999447,None,,,,,nback31,001,2023-12-15_15h56.47.539,untitled,2023.2.3,59.98199340556101,2023-12-15 16h27.19.532779 -0500,
,"[-0.2, 0.1]",None,,,,,,,,,0,28,28,28,1300.5145901,,,,,,,,,,,,,,,,,,,,,,,,,,,,,,,,,,,,,,,,,,,,,,,,,,,,,,,,,,,,,,,,,,1300.4988366000002,1300.5145901,1300.5145901,1301.0145041,1301.0145041,1303.5147726999999,1303.5147726999999,1303.4988263999999,space,0,2.362968699999783,None,,,,,nback31,001,2023-12-15_15h56.47.539,untitled,2023.2.3,59.98199340556101,2023-12-15 16h27.19.532779 -0500,
,"[0.2, 0.1]",None,,,,,,,,,0,29,29,29,1303.5147726999999,,,,,,,,,,,,,,,,,,,,,,,,,,,,,,,,,,,,,,,,,,,,,,,,,,,,,,,,,,,,,,,,,,1303.499633,1303.5147726999999,1303.5147726999999,1304.0148147999998,1304.0148147999998,1306.5147791999998,1306.5147791999998,1306.4986816,None,1,,,,,,,nback31,001,2023-12-15_15h56.47.539,untitled,2023.2.3,59.98199340556101,2023-12-15 16h27.19.532779 -0500,
,"[-0.64, -0.4]",None,,,,,,,,,0,30,30,30,1306.5147791999998,,,,,,,,,,,,,,,,,,,,,,,,,,,,,,,,,,,,,,,,,,,,,,,,,,,,,,,,,,,,,,,,,,1306.4993903,1306.5147791999998,1306.5147791999998,1307.0146408,1307.0146408,1309.5145149999998,1309.5145149999998,1309.4984321000002,None,1,,,,,,,nback31,001,2023-12-15_15h56.47.539,untitled,2023.2.3,59.98199340556101,2023-12-15 16h27.19.532779 -0500,
,"[0, -0.2]",None,,,,,,,,,0,31,31,31,1309.5145149999998,,,,,,,,,,,,,,,,,,,,,,,,,,,,,,,,,,,,,,,,,,,,,,,,,,,,,,,,,,,,,,,,,,1309.4988827000002,1309.5145149999998,1309.5145149999998,1310.0144919,1310.0144919,1312.5145518,1312.5145518,1312.4986368999998,None,1,,,,,,,nback31,001,2023-12-15_15h56.47.539,untitled,2023.2.3,59.98199340556101,2023-12-15 16h27.19.532779 -0500,
,"[-0.64, -0.4]",space,,,,,,,,,0,32,32,32,1312.5145518,,,,,,,,,,,,,,,,,,,,,,,,,,,,,,,,,,,,,,,,,,,,,,,,,,,,,,,,,,,,,,,,,,1312.4992989000002,1312.5145518,1312.5145518,1313.0145258000002,1313.0145258000002,1315.5144234,1315.5144234,1315.4986221,space,1,0.4332601999999497,None,,,,,nback31,001,2023-12-15_15h56.47.539,untitled,2023.2.3,59.98199340556101,2023-12-15 16h27.19.532779 -0500,
,"[0.64, 0.4]",None,,,,,,,,,0,33,33,33,1315.5144234,,,,,,,,,,,,,,,,,,,,,,,,,,,,,,,,,,,,,,,,,,,,,,,,,,,,,,,,,,,,,,,,,,1315.4994056,1315.5144234,1315.5144234,1316.0143352999999,1316.0143352999999,1318.5144999,1318.5144999,1318.4985090999999,None,1,,,,,,,nback31,001,2023-12-15_15h56.47.539,untitled,2023.2.3,59.98199340556101,2023-12-15 16h27.19.532779 -0500,
,"[-0.3, 0]",None,,,,,,,,,0,34,34,34,1318.5144999,,,,,,,,,,,,,,,,,,,,,,,,,,,,,,,,,,,,,,,,,,,,,,,,,,,,,,,,,,,,,,,,,,1318.4991862000002,1318.5144999,1318.5144999,1319.0142652,1319.0142652,1321.5144553,1321.5144553,1321.4986229,None,1,,,,,,,nback31,001,2023-12-15_15h56.47.539,untitled,2023.2.3,59.98199340556101,2023-12-15 16h27.19.532779 -0500,
,"[0.3, 0]",None,,,,,,,,,0,35,35,35,1321.5144553,,,,,,,,,,,,,,,,,,,,,,,,,,,,,,,,,,,,,,,,,,,,,,,,,,,,,,,,,,,,,,,,,,1321.4993855000002,1321.5144553,1321.5144553,1322.0142959999998,1322.0142959999998,1324.5142646,1324.5142646,1324.4982902000002,None,1,,,,,,,nback31,001,2023-12-15_15h56.47.539,untitled,2023.2.3,59.98199340556101,2023-12-15 16h27.19.532779 -0500,
,"[-0.3, 0]",space,,,,,,,,,0,36,36,36,1324.5142646,,,,,,,,,,,,,,,,,,,,,,,,,,,,,,,,,,,,,,,,,,,,,,,,,,,,,,,,,,,,,,,,,,1324.4988879000002,1324.5142646,1324.5142646,1325.014349,1325.014349,1327.5143274000002,1327.5143274000002,1327.4983478,space,1,0.4345180000000255,None,,,,,nback31,001,2023-12-15_15h56.47.539,untitled,2023.2.3,59.98199340556101,2023-12-15 16h27.19.532779 -0500,
,"[0, -0.2]",None,,,,,,,,,0,37,37,37,1327.5143274000002,,,,,,,,,,,,,,,,,,,,,,,,,,,,,,,,,,,,,,,,,,,,,,,,,,,,,,,,,,,,,,,,,,1327.4990462,1327.5143274000002,1327.5143274000002,1328.0143351000002,1328.0143351000002,1330.5141718,1330.5141718,1330.4982875,None,1,,,,,,,nback31,001,2023-12-15_15h56.47.539,untitled,2023.2.3,59.98199340556101,2023-12-15 16h27.19.532779 -0500,
,"[0.3, 0]",None,,,,,,,,,0,38,38,38,1330.5141718,,,,,,,,,,,,,,,,,,,,,,,,,,,,,,,,,,,,,,,,,,,,,,,,,,,,,,,,,,,,,,,,,,1330.4989363,1330.5141718,1330.5141718,1331.0143121,1331.0143121,1333.514225,1333.514225,1333.4984799,None,1,,,,,,,nback31,001,2023-12-15_15h56.47.539,untitled,2023.2.3,59.98199340556101,2023-12-15 16h27.19.532779 -0500,
,"[0.2, 0.1]",None,,,,,,,,,0,39,39,39,1333.514225,,,,,,,,,,,,,,,,,,,,,,,,,,,,,,,,,,,,,,,,,,,,,,,,,,,,,,,,,,,,,,,,,,1333.4991446,1333.514225,1333.514225,1334.0141142000002,1334.0141142000002,1336.5141923,1336.5141923,1336.4984694999998,None,1,,,,,,,nback31,001,2023-12-15_15h56.47.539,untitled,2023.2.3,59.98199340556101,2023-12-15 16h27.19.532779 -0500,
,,,,,,,,,,,,,,,,,,,,,,,,,,,,,,,,,,,,,,,,,,,,,,,,,,,,,,,,,,,,,,,,,,,,,,,,,,,,,,,,,,,,,,,,,,,,,1336.4989955,1336.5141923,1339.5141697,1339.4982613000002,,,,,,,,
