square,location,corrAns,trials_0.thisRepN,trials_0.thisTrialN,trials_0.thisN,trials_0.thisIndex,trials_1.thisRepN,trials_1.thisTrialN,trials_1.thisN,trials_1.thisIndex,trials_2.thisRepN,trials_2.thisTrialN,trials_2.thisN,trials_2.thisIndex,thisRow.t,notes,Instructions.started,instructions.started,key_resp.started,inst_sq11.started,Instructions.stopped,key_resp.keys,key_resp.rt,key_resp.duration,All.started,sq_1.started,sq_2.started,sq_3.started,sq_4.started,sq_5.started,sq_6.started,sq_7.started,sq_8.started,sq_9.started,sq_10.started,sq_11.started,sq_12.started,All.stopped,Fixation.started,fixation_3.started,fixation_3.stopped,Fixation.stopped,N_back_0_Trial.started,target_square_0.started,response_0.started,fixation_0.started,target_square_0.stopped,fixation_0.stopped,N_back_0_Trial.stopped,response_0.keys,response_0.corr,response_0.rt,response_0.duration,Instructions_1.started,instructions_1.started,key_resp_1.started,Instructions_1.stopped,key_resp_1.keys,key_resp_1.rt,key_resp_1.duration,N_back_1_Trial.started,target_square_1.started,response_1.started,fixation_1.started,target_square_1.stopped,fixation_1.stopped,N_back_1_Trial.stopped,response_1.keys,response_1.corr,response_1.rt,response_1.duration,Instructions_2.started,instructions_2.started,key_resp_2.started,Instructions_2.stopped,key_resp_2.keys,key_resp_2.rt,key_resp_2.duration,N_back_2_trials.started,target_square_2.started,response_2.started,target_square_2.stopped,fixation_2.started,fixation_2.stopped,N_back_2_trials.stopped,response_2.keys,response_2.corr,response_2.rt,response_2.duration,End.started,thank_you.started,End.stopped,participant,session,date,expName,psychopyVersion,frameRate,expStart,Unnamed: 100
,,,,,,,,,,,,,,,,,0.0015359000026364,0.0041101000024355,0.0041101000024355,0.0041101000024355,20.54850450000231,space,20.52854819999629,None,,,,,,,,,,,,,,,,,,,,,,,,,,,,,,,,,,,,,,,,,,,,,,,,,,,,,,,,,,,,,,,,,,,,,nback24,1.0,2023-12-13_13h29.05.845,untitled,2023.2.3,60.00247210146506,2023-12-13 14h07.51.588987 -0500,
6.0,"[-0.3, 0]",None,0.0,0.0,0.0,0.0,,,,,,,,,22.56760000000213,,,,,,,,,,20.548533100001805,20.56400620000204,20.56400620000204,20.56400620000204,20.56400620000204,20.56400620000204,20.56400620000204,20.56400620000204,20.56400620000204,20.56400620000204,20.56400620000204,20.56400620000204,20.56400620000204,21.547688700004077,21.54770229999849,21.56392230000347,22.56760000000213,22.54856260000088,22.56562439999834,22.56760000000213,22.56760000000213,23.04740129999845,23.08075680000184,25.547446900003703,25.56423630000063,None,1.0,,,,,,,,,,,,,,,,,,,,,,,,,,,,,,,,,,,,,,,,,,nback24,1.0,2023-12-13_13h29.05.845,untitled,2023.2.3,60.00247210146506,2023-12-13 14h07.51.588987 -0500,
10.0,"[0, -0.2]",None,0.0,1.0,1.0,1.0,,,,,,,,,25.580687800000305,,,,,,,,,,,,,,,,,,,,,,,,,,,,25.56540269999823,25.580687800000305,25.580687800000305,26.04714190000232,26.080706900000223,28.54738720000023,28.56419730000198,None,1.0,,,,,,,,,,,,,,,,,,,,,,,,,,,,,,,,,,,,,,,,,,nback24,1.0,2023-12-13_13h29.05.845,untitled,2023.2.3,60.00247210146506,2023-12-13 14h07.51.588987 -0500,
11.0,"[-0.64, -0.4]",space,0.0,2.0,2.0,2.0,,,,,,,,,28.580616200000804,,,,,,,,,,,,,,,,,,,,,,,,,,,,28.56506100000115,28.580616200000804,28.580616200000804,29.04736530000082,29.080572500002745,31.547359600001077,31.56421820000105,space,1.0,0.5387020999987726,None,,,,,,,,,,,,,,,,,,,,,,,,,,,,,,,,,,,,,,,,nback24,1.0,2023-12-13_13h29.05.845,untitled,2023.2.3,60.00247210146506,2023-12-13 14h07.51.588987 -0500,
12.0,"[0.64, -0.4]",None,0.0,3.0,3.0,3.0,,,,,,,,,31.58050709999952,,,,,,,,,,,,,,,,,,,,,,,,,,,,31.5654183000006,31.58050709999952,31.58050709999952,32.04735079999955,32.08051340000384,34.54720439999801,34.564091300002474,None,1.0,,,,,,,,,,,,,,,,,,,,,,,,,,,,,,,,,,,,,,,,,,nback24,1.0,2023-12-13_13h29.05.845,untitled,2023.2.3,60.00247210146506,2023-12-13 14h07.51.588987 -0500,
1.0,"[-0.64, 0.4]",None,0.0,4.0,4.0,4.0,,,,,,,,,34.58072450000327,,,,,,,,,,,,,,,,,,,,,,,,,,,,34.564871599999606,34.58072450000327,34.58072450000327,35.04718059999868,35.080492900000536,37.54704440000205,37.56403220000357,None,1.0,,,,,,,,,,,,,,,,,,,,,,,,,,,,,,,,,,,,,,,,,,nback24,1.0,2023-12-13_13h29.05.845,untitled,2023.2.3,60.00247210146506,2023-12-13 14h07.51.588987 -0500,
1.0,"[-0.64, 0.4]",None,0.0,5.0,5.0,5.0,,,,,,,,,37.58053040000232,,,,,,,,,,,,,,,,,,,,,,,,,,,,37.56475240000145,37.58053040000232,37.58053040000232,38.0473439999987,38.08053640000435,40.54718420000427,40.56404250000196,None,1.0,,,,,,,,,,,,,,,,,,,,,,,,,,,,,,,,,,,,,,,,,,nback24,1.0,2023-12-13_13h29.05.845,untitled,2023.2.3,60.00247210146506,2023-12-13 14h07.51.588987 -0500,
4.0,"[-0.2, 0.1]",None,0.0,6.0,6.0,6.0,,,,,,,,,40.58043550000002,,,,,,,,,,,,,,,,,,,,,,,,,,,,40.56482150000375,40.58043550000002,40.58043550000002,41.047007699999085,41.080365400004666,43.54714790000435,43.56409520000307,None,1.0,,,,,,,,,,,,,,,,,,,,,,,,,,,,,,,,,,,,,,,,,,nback24,1.0,2023-12-13_13h29.05.845,untitled,2023.2.3,60.00247210146506,2023-12-13 14h07.51.588987 -0500,
5.0,"[0.2, 0.1]",None,0.0,7.0,7.0,7.0,,,,,,,,,43.58022960000381,,,,,,,,,,,,,,,,,,,,,,,,,,,,43.56492250000156,43.58022960000381,43.58022960000381,44.04700030000095,44.0801019999999,46.54691509999975,46.56389080000372,None,1.0,,,,,,,,,,,,,,,,,,,,,,,,,,,,,,,,,,,,,,,,,,nback24,1.0,2023-12-13_13h29.05.845,untitled,2023.2.3,60.00247210146506,2023-12-13 14h07.51.588987 -0500,
11.0,"[-0.64, -0.4]",space,0.0,8.0,8.0,8.0,,,,,,,,,46.58037950000289,,,,,,,,,,,,,,,,,,,,,,,,,,,,46.56455460000143,46.58037950000289,46.58037950000289,47.04691830000229,47.0802210000038,49.546956899997895,49.56398590000026,space,1.0,0.3911069999958272,None,,,,,,,,,,,,,,,,,,,,,,,,,,,,,,,,,,,,,,,,nback24,1.0,2023-12-13_13h29.05.845,untitled,2023.2.3,60.00247210146506,2023-12-13 14h07.51.588987 -0500,
9.0,"[0.2, -0.1]",None,0.0,9.0,9.0,9.0,,,,,,,,,49.58025320000161,,,,,,,,,,,,,,,,,,,,,,,,,,,,49.56504080000013,49.58025320000161,49.58025320000161,50.04708219999884,50.08037010000408,52.54702170000383,52.56384770000295,None,1.0,,,,,,,,,,,,,,,,,,,,,,,,,,,,,,,,,,,,,,,,,,nback24,1.0,2023-12-13_13h29.05.845,untitled,2023.2.3,60.00247210146506,2023-12-13 14h07.51.588987 -0500,
8.0,"[-0.2, -0.1]",None,0.0,10.0,10.0,10.0,,,,,,,,,52.58011030000489,,,,,,,,,,,,,,,,,,,,,,,,,,,,52.56466619999992,52.58011030000489,52.58011030000489,53.04685690000042,53.08025300000008,55.54675510000379,55.5638173000043,None,1.0,,,,,,,,,,,,,,,,,,,,,,,,,,,,,,,,,,,,,,,,,,nback24,1.0,2023-12-13_13h29.05.845,untitled,2023.2.3,60.00247210146506,2023-12-13 14h07.51.588987 -0500,
9.0,"[0.2, -0.1]",None,0.0,11.0,11.0,11.0,,,,,,,,,55.5801769000027,,,,,,,,,,,,,,,,,,,,,,,,,,,,55.5645927000005,55.5801769000027,55.5801769000027,56.04663170000276,56.08019680000143,58.54677690000244,58.56359579999844,None,1.0,,,,,,,,,,,,,,,,,,,,,,,,,,,,,,,,,,,,,,,,,,nback24,1.0,2023-12-13_13h29.05.845,untitled,2023.2.3,60.00247210146506,2023-12-13 14h07.51.588987 -0500,
6.0,"[-0.3, 0]",None,0.0,12.0,12.0,12.0,,,,,,,,,58.580111000002944,,,,,,,,,,,,,,,,,,,,,,,,,,,,58.56438370000251,58.580111000002944,58.580111000002944,59.04677530000481,59.07999900000141,61.54677880000236,61.56378480000421,None,1.0,,,,,,,,,,,,,,,,,,,,,,,,,,,,,,,,,,,,,,,,,,nback24,1.0,2023-12-13_13h29.05.845,untitled,2023.2.3,60.00247210146506,2023-12-13 14h07.51.588987 -0500,
9.0,"[0.2, -0.1]",None,0.0,13.0,13.0,13.0,,,,,,,,,61.580095500001335,,,,,,,,,,,,,,,,,,,,,,,,,,,,61.56461140000465,61.580095500001335,61.580095500001335,62.04677320000337,62.08006110000133,64.54664179999963,64.563562000003,None,1.0,,,,,,,,,,,,,,,,,,,,,,,,,,,,,,,,,,,,,,,,,,nback24,1.0,2023-12-13_13h29.05.845,untitled,2023.2.3,60.00247210146506,2023-12-13 14h07.51.588987 -0500,
7.0,"[0.3, 0]",None,0.0,14.0,14.0,14.0,,,,,,,,,64.58006800000294,,,,,,,,,,,,,,,,,,,,,,,,,,,,64.56424410000182,64.58006800000294,64.58006800000294,65.06340330000239,65.08005309999862,67.5633736000018,67.5635637000014,None,1.0,,,,,,,,,,,,,,,,,,,,,,,,,,,,,,,,,,,,,,,,,,nback24,1.0,2023-12-13_13h29.05.845,untitled,2023.2.3,60.00247210146506,2023-12-13 14h07.51.588987 -0500,
2.0,"[0.64, 0.4]",None,0.0,15.0,15.0,15.0,,,,,,,,,67.58007850000286,,,,,,,,,,,,,,,,,,,,,,,,,,,,67.56443130000116,67.58007850000286,67.58007850000286,68.06331730000238,68.08000549999997,70.56342379999842,70.5636375000031,None,1.0,,,,,,,,,,,,,,,,,,,,,,,,,,,,,,,,,,,,,,,,,,nback24,1.0,2023-12-13_13h29.05.845,untitled,2023.2.3,60.00247210146506,2023-12-13 14h07.51.588987 -0500,
2.0,"[0.64, 0.4]",None,0.0,16.0,16.0,16.0,,,,,,,,,70.579793900004,,,,,,,,,,,,,,,,,,,,,,,,,,,,70.56445030000032,70.579793900004,70.579793900004,71.06323930000508,71.07973019999918,73.5632884000006,73.56352979999792,None,1.0,,,,,,,,,,,,,,,,,,,,,,,,,,,,,,,,,,,,,,,,,,nback24,1.0,2023-12-13_13h29.05.845,untitled,2023.2.3,60.00247210146506,2023-12-13 14h07.51.588987 -0500,
11.0,"[-0.64, -0.4]",space,0.0,17.0,17.0,17.0,,,,,,,,,73.57967730000382,,,,,,,,,,,,,,,,,,,,,,,,,,,,73.56436060000124,73.57967730000382,73.57967730000382,74.06327320000128,74.07988040000055,76.56315610000456,76.56334590000188,space,1.0,0.4640138000031584,None,,,,,,,,,,,,,,,,,,,,,,,,,,,,,,,,,,,,,,,,nback24,1.0,2023-12-13_13h29.05.845,untitled,2023.2.3,60.00247210146506,2023-12-13 14h07.51.588987 -0500,
11.0,"[-0.64, -0.4]",space,0.0,18.0,18.0,18.0,,,,,,,,,76.57980649999809,,,,,,,,,,,,,,,,,,,,,,,,,,,,76.56420800000342,76.57980649999809,76.57980649999809,77.06332380000094,77.07982959999936,79.56317069999932,79.56334970000171,space,1.0,0.4854616000011447,None,,,,,,,,,,,,,,,,,,,,,,,,,,,,,,,,,,,,,,,,nback24,1.0,2023-12-13_13h29.05.845,untitled,2023.2.3,60.00247210146506,2023-12-13 14h07.51.588987 -0500,
7.0,"[0.3, 0]",None,0.0,19.0,19.0,19.0,,,,,,,,,79.5797476000007,,,,,,,,,,,,,,,,,,,,,,,,,,,,79.56418510000367,79.5797476000007,79.5797476000007,80.06323050000356,80.07972480000171,82.56298880000395,82.56315310000355,None,1.0,,,,,,,,,,,,,,,,,,,,,,,,,,,,,,,,,,,,,,,,,,nback24,1.0,2023-12-13_13h29.05.845,untitled,2023.2.3,60.00247210146506,2023-12-13 14h07.51.588987 -0500,
3.0,"[0, 0.2]",None,0.0,20.0,20.0,20.0,,,,,,,,,82.5796582000039,,,,,,,,,,,,,,,,,,,,,,,,,,,,82.56379440000455,82.5796582000039,82.5796582000039,83.06300049999845,83.07968709999841,85.56317190000118,85.56336870000086,None,1.0,,,,,,,,,,,,,,,,,,,,,,,,,,,,,,,,,,,,,,,,,,nback24,1.0,2023-12-13_13h29.05.845,untitled,2023.2.3,60.00247210146506,2023-12-13 14h07.51.588987 -0500,
10.0,"[0, -0.2]",None,0.0,21.0,21.0,21.0,,,,,,,,,85.57966000000306,,,,,,,,,,,,,,,,,,,,,,,,,,,,85.56412909999926,85.57966000000306,85.57966000000306,86.06278459999885,86.07959480000136,88.5630525000015,88.56325790000119,None,1.0,,,,,,,,,,,,,,,,,,,,,,,,,,,,,,,,,,,,,,,,,,nback24,1.0,2023-12-13_13h29.05.845,untitled,2023.2.3,60.00247210146506,2023-12-13 14h07.51.588987 -0500,
1.0,"[-0.64, 0.4]",None,0.0,22.0,22.0,22.0,,,,,,,,,88.57940390000294,,,,,,,,,,,,,,,,,,,,,,,,,,,,88.56396830000449,88.57940390000294,88.57940390000294,89.06284569999843,89.07952189999924,91.5630145000032,91.56320899999992,None,1.0,,,,,,,,,,,,,,,,,,,,,,,,,,,,,,,,,,,,,,,,,,nback24,1.0,2023-12-13_13h29.05.845,untitled,2023.2.3,60.00247210146506,2023-12-13 14h07.51.588987 -0500,
2.0,"[0.64, 0.4]",None,0.0,23.0,23.0,23.0,,,,,,,,,91.57964000000356,,,,,,,,,,,,,,,,,,,,,,,,,,,,91.56397070000094,91.57964000000356,91.57964000000356,92.06272600000376,92.07950500000152,94.56269990000146,94.56286499999987,None,1.0,,,,,,,,,,,,,,,,,,,,,,,,,,,,,,,,,,,,,,,,,,nback24,1.0,2023-12-13_13h29.05.845,untitled,2023.2.3,60.00247210146506,2023-12-13 14h07.51.588987 -0500,
6.0,"[-0.3, 0]",None,0.0,24.0,24.0,24.0,,,,,,,,,94.57953680000357,,,,,,,,,,,,,,,,,,,,,,,,,,,,94.56350119999844,94.57953680000357,94.57953680000357,95.06293800000276,95.07951909999974,97.56284669999876,97.56302549999964,None,1.0,,,,,,,,,,,,,,,,,,,,,,,,,,,,,,,,,,,,,,,,,,nback24,1.0,2023-12-13_13h29.05.845,untitled,2023.2.3,60.00247210146506,2023-12-13 14h07.51.588987 -0500,
3.0,"[0, 0.2]",None,0.0,25.0,25.0,25.0,,,,,,,,,97.5793582000042,,,,,,,,,,,,,,,,,,,,,,,,,,,,97.56369989999804,97.5793582000042,97.5793582000042,98.06282189999912,98.07954410000092,100.56279160000122,100.5629773000037,None,1.0,,,,,,,,,,,,,,,,,,,,,,,,,,,,,,,,,,,,,,,,,,nback24,1.0,2023-12-13_13h29.05.845,untitled,2023.2.3,60.00247210146506,2023-12-13 14h07.51.588987 -0500,
11.0,"[-0.64, -0.4]",space,0.0,26.0,26.0,26.0,,,,,,,,,100.57929729999888,,,,,,,,,,,,,,,,,,,,,,,,,,,,100.56369560000168,100.57929729999888,100.57929729999888,101.06287639999935,101.07942370000092,103.56289030000336,103.56309049999982,space,1.0,0.3809324000030756,None,,,,,,,,,,,,,,,,,,,,,,,,,,,,,,,,,,,,,,,,nback24,1.0,2023-12-13_13h29.05.845,untitled,2023.2.3,60.00247210146506,2023-12-13 14h07.51.588987 -0500,
1.0,"[-0.64, 0.4]",None,0.0,27.0,27.0,27.0,,,,,,,,,103.57938760000252,,,,,,,,,,,,,,,,,,,,,,,,,,,,103.56402260000324,103.57938760000252,103.57938760000252,104.06271220000052,104.07920549999837,106.56260219999967,106.5627878000014,None,1.0,,,,,,,,,,,,,,,,,,,,,,,,,,,,,,,,,,,,,,,,,,nback24,1.0,2023-12-13_13h29.05.845,untitled,2023.2.3,60.00247210146506,2023-12-13 14h07.51.588987 -0500,
3.0,"[0, 0.2]",None,0.0,28.0,28.0,28.0,,,,,,,,,106.57929030000378,,,,,,,,,,,,,,,,,,,,,,,,,,,,106.56352799999875,106.57929030000378,106.57929030000378,107.06284830000368,107.07930380000472,109.5625996000017,109.56277840000256,None,1.0,,,,,,,,,,,,,,,,,,,,,,,,,,,,,,,,,,,,,,,,,,nback24,1.0,2023-12-13_13h29.05.845,untitled,2023.2.3,60.00247210146506,2023-12-13 14h07.51.588987 -0500,
9.0,"[0.2, -0.1]",None,0.0,29.0,29.0,29.0,,,,,,,,,109.57923709999886,,,,,,,,,,,,,,,,,,,,,,,,,,,,109.56352160000095,109.57923709999886,109.57923709999886,110.06244539999898,110.0792419999998,112.5626121000023,112.56278960000054,None,1.0,,,,,,,,,,,,,,,,,,,,,,,,,,,,,,,,,,,,,,,,,,nback24,1.0,2023-12-13_13h29.05.845,untitled,2023.2.3,60.00247210146506,2023-12-13 14h07.51.588987 -0500,
8.0,"[-0.2, -0.1]",None,0.0,30.0,30.0,30.0,,,,,,,,,112.57916890000342,,,,,,,,,,,,,,,,,,,,,,,,,,,,112.56346480000502,112.57916890000342,112.57916890000342,113.0626820000034,113.079238600003,115.56248739999864,115.5626478999984,space,0.0,0.4419396000012057,None,,,,,,,,,,,,,,,,,,,,,,,,,,,,,,,,,,,,,,,,nback24,1.0,2023-12-13_13h29.05.845,untitled,2023.2.3,60.00247210146506,2023-12-13 14h07.51.588987 -0500,
12.0,"[0.64, -0.4]",None,0.0,31.0,31.0,31.0,,,,,,,,,115.5792122999992,,,,,,,,,,,,,,,,,,,,,,,,,,,,115.5635035000014,115.5792122999992,115.5792122999992,116.0624800000005,116.07903739999892,118.56262419999985,118.56282330000248,None,1.0,,,,,,,,,,,,,,,,,,,,,,,,,,,,,,,,,,,,,,,,,,nback24,1.0,2023-12-13_13h29.05.845,untitled,2023.2.3,60.00247210146506,2023-12-13 14h07.51.588987 -0500,
9.0,"[0.2, -0.1]",None,0.0,32.0,32.0,32.0,,,,,,,,,118.5789758000028,,,,,,,,,,,,,,,,,,,,,,,,,,,,118.56360680000216,118.5789758000028,118.5789758000028,119.06238780000422,119.07963210000162,121.56244710000465,121.56264480000392,None,1.0,,,,,,,,,,,,,,,,,,,,,,,,,,,,,,,,,,,,,,,,,,nback24,1.0,2023-12-13_13h29.05.845,untitled,2023.2.3,60.00247210146506,2023-12-13 14h07.51.588987 -0500,
11.0,"[-0.64, -0.4]",space,0.0,33.0,33.0,33.0,,,,,,,,,121.579175400002,,,,,,,,,,,,,,,,,,,,,,,,,,,,121.56339570000272,121.579175400002,121.579175400002,122.06230080000388,122.07895080000162,124.56220520000352,124.56235269999888,space,1.0,0.455049099997268,None,,,,,,,,,,,,,,,,,,,,,,,,,,,,,,,,,,,,,,,,nback24,1.0,2023-12-13_13h29.05.845,untitled,2023.2.3,60.00247210146506,2023-12-13 14h07.51.588987 -0500,
7.0,"[0.3, 0]",None,0.0,34.0,34.0,34.0,,,,,,,,,124.57862710000336,,,,,,,,,,,,,,,,,,,,,,,,,,,,124.56294309999794,124.57862710000336,124.57862710000336,125.06224790000124,125.07894769999984,127.5623973000038,127.56257639999968,None,1.0,,,,,,,,,,,,,,,,,,,,,,,,,,,,,,,,,,,,,,,,,,nback24,1.0,2023-12-13_13h29.05.845,untitled,2023.2.3,60.00247210146506,2023-12-13 14h07.51.588987 -0500,
11.0,"[-0.64, -0.4]",space,0.0,35.0,35.0,35.0,,,,,,,,,127.57894870000018,,,,,,,,,,,,,,,,,,,,,,,,,,,,127.56325880000075,127.57894870000018,127.57894870000018,128.06231690000277,128.07892720000382,130.562187800002,130.56237140000303,space,1.0,0.4311652999967919,None,,,,,,,,,,,,,,,,,,,,,,,,,,,,,,,,,,,,,,,,nback24,1.0,2023-12-13_13h29.05.845,untitled,2023.2.3,60.00247210146506,2023-12-13 14h07.51.588987 -0500,
4.0,"[-0.2, 0.1]",None,0.0,36.0,36.0,36.0,,,,,,,,,130.57875610000335,,,,,,,,,,,,,,,,,,,,,,,,,,,,130.56336310000188,130.57875610000335,130.57875610000335,131.0624134000027,131.07891470000322,133.56209690000105,133.56226610000158,None,1.0,,,,,,,,,,,,,,,,,,,,,,,,,,,,,,,,,,,,,,,,,,nback24,1.0,2023-12-13_13h29.05.845,untitled,2023.2.3,60.00247210146506,2023-12-13 14h07.51.588987 -0500,
5.0,"[0.2, 0.1]",None,0.0,37.0,37.0,37.0,,,,,,,,,133.57889609999984,,,,,,,,,,,,,,,,,,,,,,,,,,,,133.56296699999805,133.57889609999984,133.57889609999984,134.06233720000455,134.07890220000263,136.56224769999972,136.56243890000042,None,1.0,,,,,,,,,,,,,,,,,,,,,,,,,,,,,,,,,,,,,,,,,,nback24,1.0,2023-12-13_13h29.05.845,untitled,2023.2.3,60.00247210146506,2023-12-13 14h07.51.588987 -0500,
6.0,"[-0.3, 0]",None,0.0,38.0,38.0,38.0,,,,,,,,,136.57885460000398,,,,,,,,,,,,,,,,,,,,,,,,,,,,136.5632192999983,136.57885460000398,136.57885460000398,137.0623517999993,137.07878530000016,139.5621633999981,139.56234670000413,None,1.0,,,,,,,,,,,,,,,,,,,,,,,,,,,,,,,,,,,,,,,,,,nback24,1.0,2023-12-13_13h29.05.845,untitled,2023.2.3,60.00247210146506,2023-12-13 14h07.51.588987 -0500,
11.0,"[-0.64, -0.4]",space,0.0,39.0,39.0,39.0,,,,,,,,,139.57860390000133,,,,,,,,,,,,,,,,,,,,,,,,,,,,139.56306680000125,139.57860390000133,139.57860390000133,140.06214760000148,140.07877949999963,142.5620424000008,142.5622205000036,space,1.0,0.3753781999985222,None,,,,,,,,,,,,,,,,,,,,,,,,,,,,,,,,,,,,,,,,nback24,1.0,2023-12-13_13h29.05.845,untitled,2023.2.3,60.00247210146506,2023-12-13 14h07.51.588987 -0500,
,,,,,,,,,,,,,,,,,,,,,,,,,,,,,,,,,,,,,,,,,,,,,,,,,,,,,,142.56285919999937,142.57887299999857,142.57887299999857,159.63029780000215,space,17.038241099995503,None,,,,,,,,,,,,,,,,,,,,,,,,,,,,,,,,,nback24,1.0,2023-12-13_13h29.05.845,untitled,2023.2.3,60.00247210146506,2023-12-13 14h07.51.588987 -0500,
10.0,"[0, -0.2]",None,,,,,0.0,0.0,0.0,0.0,,,,,160.64830610000354,,,,,,,,,,,,,,,,,,,,,,,,159.63034640000114,159.64506450000044,160.64830610000354,160.6292872000049,,,,,,,,,,,,,,,,,,,160.64640740000323,160.64830610000354,160.64830610000354,161.14513330000045,161.16175900000235,163.64515519999986,163.64534480000293,None,1.0,,,,,,,,,,,,,,,,,,,,,,,,nback24,1.0,2023-12-13_13h29.05.845,untitled,2023.2.3,60.00247210146506,2023-12-13 14h07.51.588987 -0500,
5.0,"[0.2, 0.1]",None,,,,,0.0,1.0,1.0,1.0,,,,,163.66160970000055,,,,,,,,,,,,,,,,,,,,,,,,,,,,,,,,,,,,,,,,,,,,,,163.64624020000338,163.66160970000055,163.66160970000055,164.1451154000024,164.1618199000004,166.6449922000029,166.6451975000018,None,1.0,,,,,,,,,,,,,,,,,,,,,,,,nback24,1.0,2023-12-13_13h29.05.845,untitled,2023.2.3,60.00247210146506,2023-12-13 14h07.51.588987 -0500,
6.0,"[-0.3, 0]",None,,,,,0.0,2.0,2.0,2.0,,,,,166.66180220000388,,,,,,,,,,,,,,,,,,,,,,,,,,,,,,,,,,,,,,,,,,,,,,166.64605470000242,166.66180220000388,166.66180220000388,167.14493870000297,167.1616365000009,169.64497180000035,169.64511740000307,None,1.0,,,,,,,,,,,,,,,,,,,,,,,,nback24,1.0,2023-12-13_13h29.05.845,untitled,2023.2.3,60.00247210146506,2023-12-13 14h07.51.588987 -0500,
6.0,"[-0.3, 0]",space,,,,,0.0,3.0,3.0,3.0,,,,,169.66146239999944,,,,,,,,,,,,,,,,,,,,,,,,,,,,,,,,,,,,,,,,,,,,,,169.64567389999866,169.66146239999944,169.66146239999944,170.14496009999857,170.1615512999997,172.6448973000006,172.64508200000273,space,1.0,0.4216357999976026,None,,,,,,,,,,,,,,,,,,,,,,nback24,1.0,2023-12-13_13h29.05.845,untitled,2023.2.3,60.00247210146506,2023-12-13 14h07.51.588987 -0500,
12.0,"[0.64, -0.4]",None,,,,,0.0,4.0,4.0,4.0,,,,,172.66164600000047,,,,,,,,,,,,,,,,,,,,,,,,,,,,,,,,,,,,,,,,,,,,,,172.64613149999786,172.66164600000047,172.66164600000047,173.1449728000007,173.16167580000183,175.64499280000018,175.64519029999792,None,1.0,,,,,,,,,,,,,,,,,,,,,,,,nback24,1.0,2023-12-13_13h29.05.845,untitled,2023.2.3,60.00247210146506,2023-12-13 14h07.51.588987 -0500,
10.0,"[0, -0.2]",None,,,,,0.0,5.0,5.0,5.0,,,,,175.66174870000395,,,,,,,,,,,,,,,,,,,,,,,,,,,,,,,,,,,,,,,,,,,,,,175.6460062000042,175.66174870000395,175.66174870000395,176.14495200000238,176.16157750000275,178.64484090000042,178.6450283000013,None,1.0,,,,,,,,,,,,,,,,,,,,,,,,nback24,1.0,2023-12-13_13h29.05.845,untitled,2023.2.3,60.00247210146506,2023-12-13 14h07.51.588987 -0500,
2.0,"[0.64, 0.4]",None,,,,,0.0,6.0,6.0,6.0,,,,,178.66152620000503,,,,,,,,,,,,,,,,,,,,,,,,,,,,,,,,,,,,,,,,,,,,,,178.64575970000442,178.66152620000503,178.66152620000503,179.1448894999994,179.16141749999952,181.64487300000476,181.64508159999968,None,1.0,,,,,,,,,,,,,,,,,,,,,,,,nback24,1.0,2023-12-13_13h29.05.845,untitled,2023.2.3,60.00247210146506,2023-12-13 14h07.51.588987 -0500,
9.0,"[0.2, -0.1]",None,,,,,0.0,7.0,7.0,7.0,,,,,181.66147869999983,,,,,,,,,,,,,,,,,,,,,,,,,,,,,,,,,,,,,,,,,,,,,,181.6458582999985,181.66147869999983,181.66147869999983,182.14469960000133,182.16146450000087,184.64472680000472,184.64491039999848,None,1.0,,,,,,,,,,,,,,,,,,,,,,,,nback24,1.0,2023-12-13_13h29.05.845,untitled,2023.2.3,60.00247210146506,2023-12-13 14h07.51.588987 -0500,
9.0,"[0.2, -0.1]",space,,,,,0.0,8.0,8.0,8.0,,,,,184.66137860000163,,,,,,,,,,,,,,,,,,,,,,,,,,,,,,,,,,,,,,,,,,,,,,184.64571080000317,184.66137860000163,184.66137860000163,185.1446003000019,185.1614163999984,187.6446274000045,187.64481740000335,space,1.0,0.3781097000028239,None,,,,,,,,,,,,,,,,,,,,,,nback24,1.0,2023-12-13_13h29.05.845,untitled,2023.2.3,60.00247210146506,2023-12-13 14h07.51.588987 -0500,
6.0,"[-0.3, 0]",None,,,,,0.0,9.0,9.0,9.0,,,,,187.661445800004,,,,,,,,,,,,,,,,,,,,,,,,,,,,,,,,,,,,,,,,,,,,,,187.6457659000007,187.661445800004,187.661445800004,188.14450260000007,188.16121620000197,190.64453019999928,190.6447065000029,None,1.0,,,,,,,,,,,,,,,,,,,,,,,,nback24,1.0,2023-12-13_13h29.05.845,untitled,2023.2.3,60.00247210146506,2023-12-13 14h07.51.588987 -0500,
11.0,"[-0.64, -0.4]",None,,,,,0.0,10.0,10.0,10.0,,,,,190.66127670000424,,,,,,,,,,,,,,,,,,,,,,,,,,,,,,,,,,,,,,,,,,,,,,190.64541000000463,190.66127670000424,190.66127670000424,191.14452410000376,191.1612871000034,193.6445734000008,193.6447732000015,None,1.0,,,,,,,,,,,,,,,,,,,,,,,,nback24,1.0,2023-12-13_13h29.05.845,untitled,2023.2.3,60.00247210146506,2023-12-13 14h07.51.588987 -0500,
11.0,"[-0.64, -0.4]",space,,,,,0.0,11.0,11.0,11.0,,,,,193.66139359999943,,,,,,,,,,,,,,,,,,,,,,,,,,,,,,,,,,,,,,,,,,,,,,193.6455638000043,193.66139359999943,193.66139359999943,194.14472399999795,194.16133750000157,196.6446714999984,196.6448823000028,space,1.0,0.3918725999974413,None,,,,,,,,,,,,,,,,,,,,,,nback24,1.0,2023-12-13_13h29.05.845,untitled,2023.2.3,60.00247210146506,2023-12-13 14h07.51.588987 -0500,
4.0,"[-0.2, 0.1]",None,,,,,0.0,12.0,12.0,12.0,,,,,196.66129530000035,,,,,,,,,,,,,,,,,,,,,,,,,,,,,,,,,,,,,,,,,,,,,,196.6458741000024,196.66129530000035,196.66129530000035,197.1445281999986,197.16114070000185,199.64449050000255,199.64468740000305,None,1.0,,,,,,,,,,,,,,,,,,,,,,,,nback24,1.0,2023-12-13_13h29.05.845,untitled,2023.2.3,60.00247210146506,2023-12-13 14h07.51.588987 -0500,
3.0,"[0, 0.2]",None,,,,,0.0,13.0,13.0,13.0,,,,,199.6611284000028,,,,,,,,,,,,,,,,,,,,,,,,,,,,,,,,,,,,,,,,,,,,,,199.64539830000285,199.6611284000028,199.6611284000028,200.14437040000485,200.1609822000028,202.6445223999981,202.64471849999973,None,1.0,,,,,,,,,,,,,,,,,,,,,,,,nback24,1.0,2023-12-13_13h29.05.845,untitled,2023.2.3,60.00247210146506,2023-12-13 14h07.51.588987 -0500,
3.0,"[0, 0.2]",space,,,,,0.0,14.0,14.0,14.0,,,,,202.66104600000108,,,,,,,,,,,,,,,,,,,,,,,,,,,,,,,,,,,,,,,,,,,,,,202.6455136000004,202.66104600000108,202.66104600000108,203.14434070000425,203.16105390000305,205.64438070000324,205.6445662000042,space,1.0,0.5923484999948414,None,,,,,,,,,,,,,,,,,,,,,,nback24,1.0,2023-12-13_13h29.05.845,untitled,2023.2.3,60.00247210146506,2023-12-13 14h07.51.588987 -0500,
8.0,"[-0.2, -0.1]",None,,,,,0.0,15.0,15.0,15.0,,,,,205.6610441000012,,,,,,,,,,,,,,,,,,,,,,,,,,,,,,,,,,,,,,,,,,,,,,205.6454836000048,205.6610441000012,205.6610441000012,206.14428559999945,206.16098729999797,208.6442989999996,208.6444818000018,None,1.0,,,,,,,,,,,,,,,,,,,,,,,,nback24,1.0,2023-12-13_13h29.05.845,untitled,2023.2.3,60.00247210146506,2023-12-13 14h07.51.588987 -0500,
1.0,"[-0.64, 0.4]",None,,,,,0.0,16.0,16.0,16.0,,,,,208.661142500001,,,,,,,,,,,,,,,,,,,,,,,,,,,,,,,,,,,,,,,,,,,,,,208.6452011000001,208.661142500001,208.661142500001,209.14436550000391,209.1610262000031,211.64439270000003,211.64458970000123,None,1.0,,,,,,,,,,,,,,,,,,,,,,,,nback24,1.0,2023-12-13_13h29.05.845,untitled,2023.2.3,60.00247210146506,2023-12-13 14h07.51.588987 -0500,
2.0,"[0.64, 0.4]",None,,,,,0.0,17.0,17.0,17.0,,,,,211.6608047000045,,,,,,,,,,,,,,,,,,,,,,,,,,,,,,,,,,,,,,,,,,,,,,211.6453554000036,211.6608047000045,211.6608047000045,212.14410240000143,212.1608766999998,214.64411380000087,214.6443227999989,None,1.0,,,,,,,,,,,,,,,,,,,,,,,,nback24,1.0,2023-12-13_13h29.05.845,untitled,2023.2.3,60.00247210146506,2023-12-13 14h07.51.588987 -0500,
4.0,"[-0.2, 0.1]",None,,,,,0.0,18.0,18.0,18.0,,,,,214.6608220999988,,,,,,,,,,,,,,,,,,,,,,,,,,,,,,,,,,,,,,,,,,,,,,214.64513129999975,214.6608220999988,214.6608220999988,215.1441427000027,215.160752900003,217.6441352000038,217.64432160000436,None,1.0,,,,,,,,,,,,,,,,,,,,,,,,nback24,1.0,2023-12-13_13h29.05.845,untitled,2023.2.3,60.00247210146506,2023-12-13 14h07.51.588987 -0500,
4.0,"[-0.2, 0.1]",space,,,,,0.0,19.0,19.0,19.0,,,,,217.6608555999992,,,,,,,,,,,,,,,,,,,,,,,,,,,,,,,,,,,,,,,,,,,,,,217.6450840000034,217.6608555999992,217.6608555999992,218.14418870000367,218.1607298000017,220.64404160000413,220.644208800004,space,1.0,0.5177106999981334,None,,,,,,,,,,,,,,,,,,,,,,nback24,1.0,2023-12-13_13h29.05.845,untitled,2023.2.3,60.00247210146506,2023-12-13 14h07.51.588987 -0500,
8.0,"[-0.2, -0.1]",None,,,,,0.0,20.0,20.0,20.0,,,,,220.6606449000028,,,,,,,,,,,,,,,,,,,,,,,,,,,,,,,,,,,,,,,,,,,,,,220.64494060000288,220.6606449000028,220.6606449000028,221.1440494999988,221.16078389999893,223.6440500000026,223.64422860000195,None,1.0,,,,,,,,,,,,,,,,,,,,,,,,nback24,1.0,2023-12-13_13h29.05.845,untitled,2023.2.3,60.00247210146506,2023-12-13 14h07.51.588987 -0500,
5.0,"[0.2, 0.1]",None,,,,,0.0,21.0,21.0,21.0,,,,,223.6606759999995,,,,,,,,,,,,,,,,,,,,,,,,,,,,,,,,,,,,,,,,,,,,,,223.64495040000477,223.6606759999995,223.6606759999995,224.1439676000009,224.16058270000207,226.64396750000012,226.64413810000408,None,1.0,,,,,,,,,,,,,,,,,,,,,,,,nback24,1.0,2023-12-13_13h29.05.845,untitled,2023.2.3,60.00247210146506,2023-12-13 14h07.51.588987 -0500,
5.0,"[0.2, 0.1]",space,,,,,0.0,22.0,22.0,22.0,,,,,226.6606548999989,,,,,,,,,,,,,,,,,,,,,,,,,,,,,,,,,,,,,,,,,,,,,,226.64489909999972,226.6606548999989,226.6606548999989,227.1438760000019,227.1604626000044,229.6439412000036,229.644120500001,space,1.0,0.528466000003391,None,,,,,,,,,,,,,,,,,,,,,,nback24,1.0,2023-12-13_13h29.05.845,untitled,2023.2.3,60.00247210146506,2023-12-13 14h07.51.588987 -0500,
1.0,"[-0.64, 0.4]",None,,,,,0.0,23.0,23.0,23.0,,,,,229.66078630000263,,,,,,,,,,,,,,,,,,,,,,,,,,,,,,,,,,,,,,,,,,,,,,229.64509890000045,229.66078630000263,229.66078630000263,230.14380560000427,230.16059479999967,232.64411010000185,232.6443428999992,None,1.0,,,,,,,,,,,,,,,,,,,,,,,,nback24,1.0,2023-12-13_13h29.05.845,untitled,2023.2.3,60.00247210146506,2023-12-13 14h07.51.588987 -0500,
3.0,"[0, 0.2]",None,,,,,0.0,24.0,24.0,24.0,,,,,232.6605772000039,,,,,,,,,,,,,,,,,,,,,,,,,,,,,,,,,,,,,,,,,,,,,,232.64521439999956,232.6605772000039,232.6605772000039,233.1437145000018,233.1604604000022,235.6436745000028,235.6438245000027,None,1.0,,,,,,,,,,,,,,,,,,,,,,,,nback24,1.0,2023-12-13_13h29.05.845,untitled,2023.2.3,60.00247210146506,2023-12-13 14h07.51.588987 -0500,
6.0,"[-0.3, 0]",None,,,,,0.0,25.0,25.0,25.0,,,,,235.66067399999883,,,,,,,,,,,,,,,,,,,,,,,,,,,,,,,,,,,,,,,,,,,,,,235.64448880000415,235.66067399999883,235.66067399999883,236.14370190000045,236.16039399999863,238.6439700999981,238.64418690000457,None,1.0,,,,,,,,,,,,,,,,,,,,,,,,nback24,1.0,2023-12-13_13h29.05.845,untitled,2023.2.3,60.00247210146506,2023-12-13 14h07.51.588987 -0500,
1.0,"[-0.64, 0.4]",None,,,,,0.0,26.0,26.0,26.0,,,,,238.66041309999852,,,,,,,,,,,,,,,,,,,,,,,,,,,,,,,,,,,,,,,,,,,,,,238.6450402000046,238.66041309999852,238.66041309999852,239.1438668999981,239.16052460000355,241.64375470000232,241.6439528999981,None,1.0,,,,,,,,,,,,,,,,,,,,,,,,nback24,1.0,2023-12-13_13h29.05.845,untitled,2023.2.3,60.00247210146506,2023-12-13 14h07.51.588987 -0500,
1.0,"[-0.64, 0.4]",space,,,,,0.0,27.0,27.0,27.0,,,,,241.6603247000021,,,,,,,,,,,,,,,,,,,,,,,,,,,,,,,,,,,,,,,,,,,,,,241.644736000002,241.6603247000021,241.6603247000021,242.14378450000368,242.16032560000167,244.64357949999976,244.6437569000045,space,1.0,0.74662630000239,None,,,,,,,,,,,,,,,,,,,,,,nback24,1.0,2023-12-13_13h29.05.845,untitled,2023.2.3,60.00247210146506,2023-12-13 14h07.51.588987 -0500,
1.0,"[-0.64, 0.4]",space,,,,,0.0,28.0,28.0,28.0,,,,,244.6601690000025,,,,,,,,,,,,,,,,,,,,,,,,,,,,,,,,,,,,,,,,,,,,,,244.6445995000031,244.6601690000025,244.6601690000025,245.1436748000051,245.1604561999993,247.64368030000333,247.6438782000041,None,0.0,,,,,,,,,,,,,,,,,,,,,,,,nback24,1.0,2023-12-13_13h29.05.845,untitled,2023.2.3,60.00247210146506,2023-12-13 14h07.51.588987 -0500,
3.0,"[0, 0.2]",None,,,,,0.0,29.0,29.0,29.0,,,,,247.66046110000025,,,,,,,,,,,,,,,,,,,,,,,,,,,,,,,,,,,,,,,,,,,,,,247.64463329999853,247.66046110000025,247.66046110000025,248.14358580000408,248.1604066,250.64369489999808,250.6438819000032,None,1.0,,,,,,,,,,,,,,,,,,,,,,,,nback24,1.0,2023-12-13_13h29.05.845,untitled,2023.2.3,60.00247210146506,2023-12-13 14h07.51.588987 -0500,
12.0,"[0.64, -0.4]",None,,,,,0.0,30.0,30.0,30.0,,,,,250.6602476000044,,,,,,,,,,,,,,,,,,,,,,,,,,,,,,,,,,,,,,,,,,,,,,250.6446483000036,250.6602476000044,250.6602476000044,251.14354580000509,251.1602311000024,253.6435984999989,253.64378410000063,None,1.0,,,,,,,,,,,,,,,,,,,,,,,,nback24,1.0,2023-12-13_13h29.05.845,untitled,2023.2.3,60.00247210146506,2023-12-13 14h07.51.588987 -0500,
12.0,"[0.64, -0.4]",space,,,,,0.0,31.0,31.0,31.0,,,,,253.66017909999937,,,,,,,,,,,,,,,,,,,,,,,,,,,,,,,,,,,,,,,,,,,,,,253.6444946000047,253.66017909999937,253.66017909999937,254.14357870000092,254.1601673000041,256.6435106999997,256.6436889000033,space,1.0,0.5758542000039597,None,,,,,,,,,,,,,,,,,,,,,,nback24,1.0,2023-12-13_13h29.05.845,untitled,2023.2.3,60.00247210146506,2023-12-13 14h07.51.588987 -0500,
2.0,"[0.64, 0.4]",None,,,,,0.0,32.0,32.0,32.0,,,,,256.66009950000443,,,,,,,,,,,,,,,,,,,,,,,,,,,,,,,,,,,,,,,,,,,,,,256.6446858999989,256.66009950000443,256.66009950000443,257.1435083000033,257.1602536999999,259.6434515000001,259.64363089999824,None,1.0,,,,,,,,,,,,,,,,,,,,,,,,nback24,1.0,2023-12-13_13h29.05.845,untitled,2023.2.3,60.00247210146506,2023-12-13 14h07.51.588987 -0500,
1.0,"[-0.64, 0.4]",None,,,,,0.0,33.0,33.0,33.0,,,,,259.66016360000503,,,,,,,,,,,,,,,,,,,,,,,,,,,,,,,,,,,,,,,,,,,,,,259.64439900000434,259.66016360000503,259.66016360000503,260.1434281000038,260.1601078000021,262.64336639999965,262.643542400001,None,1.0,,,,,,,,,,,,,,,,,,,,,,,,nback24,1.0,2023-12-13_13h29.05.845,untitled,2023.2.3,60.00247210146506,2023-12-13 14h07.51.588987 -0500,
7.0,"[0.3, 0]",None,,,,,0.0,34.0,34.0,34.0,,,,,262.6600162000032,,,,,,,,,,,,,,,,,,,,,,,,,,,,,,,,,,,,,,,,,,,,,,262.6443245000046,262.6600162000032,262.6600162000032,263.14339910000126,263.15997620000417,265.6432141000041,265.6433984000032,None,1.0,,,,,,,,,,,,,,,,,,,,,,,,nback24,1.0,2023-12-13_13h29.05.845,untitled,2023.2.3,60.00247210146506,2023-12-13 14h07.51.588987 -0500,
7.0,"[0.3, 0]",space,,,,,0.0,35.0,35.0,35.0,,,,,265.6598945000005,,,,,,,,,,,,,,,,,,,,,,,,,,,,,,,,,,,,,,,,,,,,,,265.64414620000025,265.6598945000005,265.6598945000005,266.1432257999986,266.1599437000041,268.6433204999994,268.6434920000029,space,1.0,0.4924173000035807,None,,,,,,,,,,,,,,,,,,,,,,nback24,1.0,2023-12-13_13h29.05.845,untitled,2023.2.3,60.00247210146506,2023-12-13 14h07.51.588987 -0500,
11.0,"[-0.64, -0.4]",None,,,,,0.0,36.0,36.0,36.0,,,,,268.66011190000427,,,,,,,,,,,,,,,,,,,,,,,,,,,,,,,,,,,,,,,,,,,,,,268.6444258000047,268.66011190000427,268.66011190000427,269.14317740000115,269.1601303999996,271.643109800003,271.6432760000025,None,1.0,,,,,,,,,,,,,,,,,,,,,,,,nback24,1.0,2023-12-13_13h29.05.845,untitled,2023.2.3,60.00247210146506,2023-12-13 14h07.51.588987 -0500,
2.0,"[0.64, 0.4]",None,,,,,0.0,37.0,37.0,37.0,,,,,271.6599193000002,,,,,,,,,,,,,,,,,,,,,,,,,,,,,,,,,,,,,,,,,,,,,,271.6440995000012,271.6599193000002,271.6599193000002,272.1433670000042,272.15990240000247,274.64300370000274,274.64315910000005,None,1.0,,,,,,,,,,,,,,,,,,,,,,,,nback24,1.0,2023-12-13_13h29.05.845,untitled,2023.2.3,60.00247210146506,2023-12-13 14h07.51.588987 -0500,
6.0,"[-0.3, 0]",None,,,,,0.0,38.0,38.0,38.0,,,,,274.6596866000036,,,,,,,,,,,,,,,,,,,,,,,,,,,,,,,,,,,,,,,,,,,,,,274.6437473000042,274.6596866000036,274.6596866000036,275.1430094000025,275.1597858000023,277.64327510000294,277.64347540000017,None,1.0,,,,,,,,,,,,,,,,,,,,,,,,nback24,1.0,2023-12-13_13h29.05.845,untitled,2023.2.3,60.00247210146506,2023-12-13 14h07.51.588987 -0500,
10.0,"[0, -0.2]",None,,,,,0.0,39.0,39.0,39.0,,,,,277.65989529999933,,,,,,,,,,,,,,,,,,,,,,,,,,,,,,,,,,,,,,,,,,,,,,277.6442922999995,277.65989529999933,277.65989529999933,278.14311610000004,278.159822499998,280.64321349999955,280.6434150999994,None,1.0,,,,,,,,,,,,,,,,,,,,,,,,nback24,1.0,2023-12-13_13h29.05.845,untitled,2023.2.3,60.00247210146506,2023-12-13 14h07.51.588987 -0500,
,,,,,,,,,,,,,,,,,,,,,,,,,,,,,,,,,,,,,,,,,,,,,,,,,,,,,,,,,,,,,,,,,,,,,,,,280.6439551000003,280.65984690000187,280.65984690000187,294.1276790000047,space,13.456879899997148,None,,,,,,,,,,,,,,,nback24,1.0,2023-12-13_13h29.05.845,untitled,2023.2.3,60.00247210146506,2023-12-13 14h07.51.588987 -0500,
,"[0.2, 0.1]",None,,,,,,,,,0.0,0.0,0.0,0.0,295.14366000000155,,,,,,,,,,,,,,,,,,,,,,,,294.1277235000016,294.1427378000008,295.14366000000155,295.1273541000046,,,,,,,,,,,,,,,,,,,,,,,,,,,,,,,,,,,,,295.14169460000267,295.14366000000155,295.14366000000155,295.64278580000246,295.64278580000246,298.1427368000004,298.1429169000039,None,1.0,,,,,,nback24,1.0,2023-12-13_13h29.05.845,untitled,2023.2.3,60.00247210146506,2023-12-13 14h07.51.588987 -0500,
,"[0.64, 0.4]",None,,,,,,,,,0.0,1.0,1.0,1.0,298.1593208999984,,,,,,,,,,,,,,,,,,,,,,,,,,,,,,,,,,,,,,,,,,,,,,,,,,,,,,,,,,,,,,,,298.14377320000494,298.1593208999984,298.1593208999984,298.65942010000435,298.6426896999983,301.1428059000027,301.1430058000042,None,1.0,,,,,,nback24,1.0,2023-12-13_13h29.05.845,untitled,2023.2.3,60.00247210146506,2023-12-13 14h07.51.588987 -0500,
,"[-0.3, 0]",None,,,,,,,,,0.0,2.0,2.0,2.0,301.15954310000234,,,,,,,,,,,,,,,,,,,,,,,,,,,,,,,,,,,,,,,,,,,,,,,,,,,,,,,,,,,,,,,,301.1438248000049,301.15954310000234,301.15954310000234,301.65939849999995,301.6425578999988,304.1428606000045,304.1430505000026,None,1.0,,,,,,nback24,1.0,2023-12-13_13h29.05.845,untitled,2023.2.3,60.00247210146506,2023-12-13 14h07.51.588987 -0500,
,"[0.2, -0.1]",None,,,,,,,,,0.0,3.0,3.0,3.0,304.15926330000366,,,,,,,,,,,,,,,,,,,,,,,,,,,,,,,,,,,,,,,,,,,,,,,,,,,,,,,,,,,,,,,,304.1438315999985,304.15926330000366,304.15926330000366,304.6595024999988,304.6426285999987,307.1425470000031,307.1427315000037,None,1.0,,,,,,nback24,1.0,2023-12-13_13h29.05.845,untitled,2023.2.3,60.00247210146506,2023-12-13 14h07.51.588987 -0500,
,"[0, 0.2]",None,,,,,,,,,0.0,4.0,4.0,4.0,307.1593911000018,,,,,,,,,,,,,,,,,,,,,,,,,,,,,,,,,,,,,,,,,,,,,,,,,,,,,,,,,,,,,,,,307.1435530000017,307.1593911000018,307.1593911000018,307.65930140000273,307.64263260000007,310.1426758000016,310.14286739999807,None,1.0,,,,,,nback24,1.0,2023-12-13_13h29.05.845,untitled,2023.2.3,60.00247210146506,2023-12-13 14h07.51.588987 -0500,
,"[0.2, -0.1]",space,,,,,,,,,0.0,5.0,5.0,5.0,310.1593489000006,,,,,,,,,,,,,,,,,,,,,,,,,,,,,,,,,,,,,,,,,,,,,,,,,,,,,,,,,,,,,,,,310.14360860000306,310.1593489000006,310.1593489000006,310.65927860000374,310.6426356000011,313.14254240000446,313.1427218000026,space,1.0,1.498517100000754,None,,,,nback24,1.0,2023-12-13_13h29.05.845,untitled,2023.2.3,60.00247210146506,2023-12-13 14h07.51.588987 -0500,
,"[0, -0.2]",None,,,,,,,,,0.0,6.0,6.0,6.0,313.15923199999816,,,,,,,,,,,,,,,,,,,,,,,,,,,,,,,,,,,,,,,,,,,,,,,,,,,,,,,,,,,,,,,,313.14376300000004,313.15923199999816,313.15923199999816,313.65905880000355,313.64246670000284,316.14245810000284,316.1426481000017,None,1.0,,,,,,nback24,1.0,2023-12-13_13h29.05.845,untitled,2023.2.3,60.00247210146506,2023-12-13 14h07.51.588987 -0500,
,"[0.64, -0.4]",None,,,,,,,,,0.0,7.0,7.0,7.0,316.15899280000303,,,,,,,,,,,,,,,,,,,,,,,,,,,,,,,,,,,,,,,,,,,,,,,,,,,,,,,,,,,,,,,,316.1433967999983,316.15899280000303,316.15899280000303,316.6591094000032,316.64250020000327,319.14247089999844,319.14264289999846,None,1.0,,,,,,nback24,1.0,2023-12-13_13h29.05.845,untitled,2023.2.3,60.00247210146506,2023-12-13 14h07.51.588987 -0500,
,"[0.3, 0]",None,,,,,,,,,0.0,8.0,8.0,8.0,319.1590613000008,,,,,,,,,,,,,,,,,,,,,,,,,,,,,,,,,,,,,,,,,,,,,,,,,,,,,,,,,,,,,,,,319.14342210000177,319.1590613000008,319.1590613000008,319.6591736000046,319.6423269000006,322.1424005000008,322.14257100000395,None,1.0,,,,,,nback24,1.0,2023-12-13_13h29.05.845,untitled,2023.2.3,60.00247210146506,2023-12-13 14h07.51.588987 -0500,
,"[0.64, -0.4]",space,,,,,,,,,0.0,9.0,9.0,9.0,322.15891150000243,,,,,,,,,,,,,,,,,,,,,,,,,,,,,,,,,,,,,,,,,,,,,,,,,,,,,,,,,,,,,,,,322.14331870000024,322.15891150000243,322.15891150000243,322.6590834000017,322.6424518999993,325.1423982000051,325.14261709999846,space,1.0,0.5933084999996936,None,,,,nback24,1.0,2023-12-13_13h29.05.845,untitled,2023.2.3,60.00247210146506,2023-12-13 14h07.51.588987 -0500,
,"[-0.64, 0.4]",None,,,,,,,,,0.0,10.0,10.0,10.0,325.15903719999915,,,,,,,,,,,,,,,,,,,,,,,,,,,,,,,,,,,,,,,,,,,,,,,,,,,,,,,,,,,,,,,,325.14362860000256,325.15903719999915,325.15903719999915,325.65894839999964,325.6423303999982,328.14245810000284,328.142671900001,None,1.0,,,,,,nback24,1.0,2023-12-13_13h29.05.845,untitled,2023.2.3,60.00247210146506,2023-12-13 14h07.51.588987 -0500,
,"[0.2, 0.1]",None,,,,,,,,,0.0,11.0,11.0,11.0,328.15902110000025,,,,,,,,,,,,,,,,,,,,,,,,,,,,,,,,,,,,,,,,,,,,,,,,,,,,,,,,,,,,,,,,328.14351870000246,328.15902110000025,328.15902110000025,328.6588702000008,328.6422601000013,331.14231460000155,331.1425290000043,None,1.0,,,,,,nback24,1.0,2023-12-13_13h29.05.845,untitled,2023.2.3,60.00247210146506,2023-12-13 14h07.51.588987 -0500,
,"[0.3, 0]",None,,,,,,,,,0.0,12.0,12.0,12.0,331.1589462000047,,,,,,,,,,,,,,,,,,,,,,,,,,,,,,,,,,,,,,,,,,,,,,,,,,,,,,,,,,,,,,,,331.143399200002,331.1589462000047,331.1589462000047,331.65872780000063,331.6421005000011,334.14231429999927,334.1425128000046,space,0.0,1.4140589000016917,None,,,,nback24,1.0,2023-12-13_13h29.05.845,untitled,2023.2.3,60.00247210146506,2023-12-13 14h07.51.588987 -0500,
,"[0.2, 0.1]",space,,,,,,,,,0.0,13.0,13.0,13.0,334.1589365000036,,,,,,,,,,,,,,,,,,,,,,,,,,,,,,,,,,,,,,,,,,,,,,,,,,,,,,,,,,,,,,,,334.14348240000254,334.1589365000036,334.1589365000036,334.6587414000023,334.6420455000043,337.14216090000264,337.14234820000274,None,0.0,,,,,,nback24,1.0,2023-12-13_13h29.05.845,untitled,2023.2.3,60.00247210146506,2023-12-13 14h07.51.588987 -0500,
,"[-0.3, 0]",None,,,,,,,,,0.0,14.0,14.0,14.0,337.15897450000193,,,,,,,,,,,,,,,,,,,,,,,,,,,,,,,,,,,,,,,,,,,,,,,,,,,,,,,,,,,,,,,,337.1431353000007,337.15897450000193,337.15897450000193,337.6588589000021,337.64215310000145,340.14203439999983,340.142199300004,None,1.0,,,,,,nback24,1.0,2023-12-13_13h29.05.845,untitled,2023.2.3,60.00247210146506,2023-12-13 14h07.51.588987 -0500,
,"[0, 0.2]",None,,,,,,,,,0.0,15.0,15.0,15.0,340.15866749999986,,,,,,,,,,,,,,,,,,,,,,,,,,,,,,,,,,,,,,,,,,,,,,,,,,,,,,,,,,,,,,,,340.14286300000094,340.15866749999986,340.15866749999986,340.6588611000043,340.6419903999995,343.1421743000028,343.1424010000046,None,1.0,,,,,,nback24,1.0,2023-12-13_13h29.05.845,untitled,2023.2.3,60.00247210146506,2023-12-13 14h07.51.588987 -0500,
,"[-0.3, 0]",space,,,,,,,,,0.0,16.0,16.0,16.0,343.1588335999986,,,,,,,,,,,,,,,,,,,,,,,,,,,,,,,,,,,,,,,,,,,,,,,,,,,,,,,,,,,,,,,,343.1432797000016,343.1588335999986,343.1588335999986,343.65867699999944,343.64211449999857,346.1420085999998,346.1421859000038,space,1.0,0.8449298999985331,None,,,,nback24,1.0,2023-12-13_13h29.05.845,untitled,2023.2.3,60.00247210146506,2023-12-13 14h07.51.588987 -0500,
,"[-0.64, -0.4]",None,,,,,,,,,0.0,17.0,17.0,17.0,346.1588048000049,,,,,,,,,,,,,,,,,,,,,,,,,,,,,,,,,,,,,,,,,,,,,,,,,,,,,,,,,,,,,,,,346.1432311000026,346.1588048000049,346.1588048000049,346.6586779999998,346.64202320000186,349.1420274999982,349.1422146000041,None,1.0,,,,,,nback24,1.0,2023-12-13_13h29.05.845,untitled,2023.2.3,60.00247210146506,2023-12-13 14h07.51.588987 -0500,
,"[-0.2, -0.1]",None,,,,,,,,,0.0,18.0,18.0,18.0,349.15878460000386,,,,,,,,,,,,,,,,,,,,,,,,,,,,,,,,,,,,,,,,,,,,,,,,,,,,,,,,,,,,,,,,349.1429313999979,349.15878460000386,349.15878460000386,349.65853069999866,349.6418655000016,352.1419156999982,352.14207739999983,None,1.0,,,,,,nback24,1.0,2023-12-13_13h29.05.845,untitled,2023.2.3,60.00247210146506,2023-12-13 14h07.51.588987 -0500,
,"[0.2, -0.1]",None,,,,,,,,,0.0,19.0,19.0,19.0,352.1583576999983,,,,,,,,,,,,,,,,,,,,,,,,,,,,,,,,,,,,,,,,,,,,,,,,,,,,,,,,,,,,,,,,352.1427070999998,352.1583576999983,352.1583576999983,352.65847020000365,352.6420704999982,355.14201490000414,355.14222130000417,None,1.0,,,,,,nback24,1.0,2023-12-13_13h29.05.845,untitled,2023.2.3,60.00247210146506,2023-12-13 14h07.51.588987 -0500,
,"[0.2, -0.1]",None,,,,,,,,,0.0,20.0,20.0,20.0,355.1586136000042,,,,,,,,,,,,,,,,,,,,,,,,,,,,,,,,,,,,,,,,,,,,,,,,,,,,,,,,,,,,,,,,355.1430541000009,355.1586136000042,355.1586136000042,355.6586223999984,355.64184899999964,358.1417889000004,358.14196770000126,None,1.0,,,,,,nback24,1.0,2023-12-13_13h29.05.845,untitled,2023.2.3,60.00247210146506,2023-12-13 14h07.51.588987 -0500,
,"[-0.64, 0.4]",None,,,,,,,,,0.0,21.0,21.0,21.0,358.1581944999998,,,,,,,,,,,,,,,,,,,,,,,,,,,,,,,,,,,,,,,,,,,,,,,,,,,,,,,,,,,,,,,,358.14269340000465,358.1581944999998,358.1581944999998,358.6583826999995,358.64180820000183,361.14179430000513,361.141975700004,None,1.0,,,,,,nback24,1.0,2023-12-13_13h29.05.845,untitled,2023.2.3,60.00247210146506,2023-12-13 14h07.51.588987 -0500,
,"[0, 0.2]",None,,,,,,,,,0.0,22.0,22.0,22.0,361.1585717999988,,,,,,,,,,,,,,,,,,,,,,,,,,,,,,,,,,,,,,,,,,,,,,,,,,,,,,,,,,,,,,,,361.1427016000016,361.1585717999988,361.1585717999988,361.6583700000047,361.6416400000016,364.1416484000001,364.1418119000009,None,1.0,,,,,,nback24,1.0,2023-12-13_13h29.05.845,untitled,2023.2.3,60.00247210146506,2023-12-13 14h07.51.588987 -0500,
,"[0.64, -0.4]",None,,,,,,,,,0.0,23.0,23.0,23.0,364.15833250000287,,,,,,,,,,,,,,,,,,,,,,,,,,,,,,,,,,,,,,,,,,,,,,,,,,,,,,,,,,,,,,,,364.14256210000167,364.15833250000287,364.15833250000287,364.6585170000035,364.6417954999997,367.14177510000445,367.1419720999984,None,1.0,,,,,,nback24,1.0,2023-12-13_13h29.05.845,untitled,2023.2.3,60.00247210146506,2023-12-13 14h07.51.588987 -0500,
,"[0, 0.2]",space,,,,,,,,,0.0,24.0,24.0,24.0,367.15833750000456,,,,,,,,,,,,,,,,,,,,,,,,,,,,,,,,,,,,,,,,,,,,,,,,,,,,,,,,,,,,,,,,367.14269400000194,367.15833750000456,367.15833750000456,367.658139500003,367.6415219999981,370.1414856000047,370.1416478000028,space,1.0,0.4455121999999392,None,,,,nback24,1.0,2023-12-13_13h29.05.845,untitled,2023.2.3,60.00247210146506,2023-12-13 14h07.51.588987 -0500,
,"[-0.2, 0.1]",None,,,,,,,,,0.0,25.0,25.0,25.0,370.1583344000028,,,,,,,,,,,,,,,,,,,,,,,,,,,,,,,,,,,,,,,,,,,,,,,,,,,,,,,,,,,,,,,,370.1425607999991,370.1583344000028,370.1583344000028,370.65824180000345,370.6414583000005,373.14161030000105,373.1418242,None,1.0,,,,,,nback24,1.0,2023-12-13_13h29.05.845,untitled,2023.2.3,60.00247210146506,2023-12-13 14h07.51.588987 -0500,
,"[0.3, 0]",None,,,,,,,,,0.0,26.0,26.0,26.0,373.1581778000036,,,,,,,,,,,,,,,,,,,,,,,,,,,,,,,,,,,,,,,,,,,,,,,,,,,,,,,,,,,,,,,,373.1427132000026,373.1581778000036,373.1581778000036,373.658308099999,373.64147629999934,376.1415233000007,376.14171519999945,None,1.0,,,,,,nback24,1.0,2023-12-13_13h29.05.845,untitled,2023.2.3,60.00247210146506,2023-12-13 14h07.51.588987 -0500,
,"[-0.2, 0.1]",space,,,,,,,,,0.0,27.0,27.0,27.0,376.1582036000036,,,,,,,,,,,,,,,,,,,,,,,,,,,,,,,,,,,,,,,,,,,,,,,,,,,,,,,,,,,,,,,,376.1424813000049,376.1582036000036,376.1582036000036,376.6580566999983,376.6414445000046,379.1414014000038,379.1415844000003,space,1.0,0.4943128999948385,None,,,,nback24,1.0,2023-12-13_13h29.05.845,untitled,2023.2.3,60.00247210146506,2023-12-13 14h07.51.588987 -0500,
,"[-0.2, 0.1]",None,,,,,,,,,0.0,28.0,28.0,28.0,379.15806220000377,,,,,,,,,,,,,,,,,,,,,,,,,,,,,,,,,,,,,,,,,,,,,,,,,,,,,,,,,,,,,,,,379.1424834999998,379.15806220000377,379.15806220000377,379.6580682999993,379.6414186000038,382.1412694000028,382.1414461000022,None,1.0,,,,,,nback24,1.0,2023-12-13_13h29.05.845,untitled,2023.2.3,60.00247210146506,2023-12-13 14h07.51.588987 -0500,
,"[0.2, 0.1]",None,,,,,,,,,0.0,29.0,29.0,29.0,382.1581064999991,,,,,,,,,,,,,,,,,,,,,,,,,,,,,,,,,,,,,,,,,,,,,,,,,,,,,,,,,,,,,,,,382.1421356999999,382.1581064999991,382.1581064999991,382.6580001000039,382.64128450000135,385.14124340000126,385.1414179999993,None,1.0,,,,,,nback24,1.0,2023-12-13_13h29.05.845,untitled,2023.2.3,60.00247210146506,2023-12-13 14h07.51.588987 -0500,
,"[-0.64, -0.4]",None,,,,,,,,,0.0,30.0,30.0,30.0,385.1580468000029,,,,,,,,,,,,,,,,,,,,,,,,,,,,,,,,,,,,,,,,,,,,,,,,,,,,,,,,,,,,,,,,385.1420912000031,385.1580468000029,385.1580468000029,385.6579506999988,385.64128840000194,388.141197900004,388.1413768999992,None,1.0,,,,,,nback24,1.0,2023-12-13_13h29.05.845,untitled,2023.2.3,60.00247210146506,2023-12-13 14h07.51.588987 -0500,
,"[0, -0.2]",None,,,,,,,,,0.0,31.0,31.0,31.0,388.1578451000023,,,,,,,,,,,,,,,,,,,,,,,,,,,,,,,,,,,,,,,,,,,,,,,,,,,,,,,,,,,,,,,,388.1422529000047,388.1578451000023,388.1578451000023,388.658027999998,388.64147819999926,391.1412105999989,391.1413959999991,None,1.0,,,,,,nback24,1.0,2023-12-13_13h29.05.845,untitled,2023.2.3,60.00247210146506,2023-12-13 14h07.51.588987 -0500,
,"[-0.64, -0.4]",space,,,,,,,,,0.0,32.0,32.0,32.0,391.1578340999986,,,,,,,,,,,,,,,,,,,,,,,,,,,,,,,,,,,,,,,,,,,,,,,,,,,,,,,,,,,,,,,,391.14217310000095,391.1578340999986,391.1578340999986,391.65796870000486,391.641197500001,394.1413203999982,394.14151839999977,space,1.0,0.4366834999964339,None,,,,nback24,1.0,2023-12-13_13h29.05.845,untitled,2023.2.3,60.00247210146506,2023-12-13 14h07.51.588987 -0500,
,"[0.64, 0.4]",None,,,,,,,,,0.0,33.0,33.0,33.0,394.1577423999988,,,,,,,,,,,,,,,,,,,,,,,,,,,,,,,,,,,,,,,,,,,,,,,,,,,,,,,,,,,,,,,,394.14250020000327,394.1577423999988,394.1577423999988,394.6577852000046,394.6410527000044,397.141277499999,397.1414758000028,None,1.0,,,,,,nback24,1.0,2023-12-13_13h29.05.845,untitled,2023.2.3,60.00247210146506,2023-12-13 14h07.51.588987 -0500,
,"[-0.3, 0]",None,,,,,,,,,0.0,34.0,34.0,34.0,397.1579000999991,,,,,,,,,,,,,,,,,,,,,,,,,,,,,,,,,,,,,,,,,,,,,,,,,,,,,,,,,,,,,,,,397.1423164000007,397.1579000999991,397.1579000999991,397.6577650000036,397.6410632000043,400.1411848999997,400.1413510999992,None,1.0,,,,,,nback24,1.0,2023-12-13_13h29.05.845,untitled,2023.2.3,60.00247210146506,2023-12-13 14h07.51.588987 -0500,
,"[0.3, 0]",None,,,,,,,,,0.0,35.0,35.0,35.0,400.15761740000016,,,,,,,,,,,,,,,,,,,,,,,,,,,,,,,,,,,,,,,,,,,,,,,,,,,,,,,,,,,,,,,,400.1420126000012,400.15761740000016,400.15761740000016,400.6576158000025,400.6410228000023,403.1412375,403.14145239999925,None,1.0,,,,,,nback24,1.0,2023-12-13_13h29.05.845,untitled,2023.2.3,60.00247210146506,2023-12-13 14h07.51.588987 -0500,
,"[-0.3, 0]",space,,,,,,,,,0.0,36.0,36.0,36.0,403.1574945000029,,,,,,,,,,,,,,,,,,,,,,,,,,,,,,,,,,,,,,,,,,,,,,,,,,,,,,,,,,,,,,,,403.14226330000383,403.1574945000029,403.1574945000029,403.6575664000047,403.6409496000051,406.141005700003,406.1411847999989,space,1.0,0.3716217999972286,None,,,,nback24,1.0,2023-12-13_13h29.05.845,untitled,2023.2.3,60.00247210146506,2023-12-13 14h07.51.588987 -0500,
,"[0, -0.2]",None,,,,,,,,,0.0,37.0,37.0,37.0,406.1577787999995,,,,,,,,,,,,,,,,,,,,,,,,,,,,,,,,,,,,,,,,,,,,,,,,,,,,,,,,,,,,,,,,406.1420031000016,406.1577787999995,406.1577787999995,406.6576868999982,406.64092650000384,409.1409008999981,409.1410802000028,None,1.0,,,,,,nback24,1.0,2023-12-13_13h29.05.845,untitled,2023.2.3,60.00247210146506,2023-12-13 14h07.51.588987 -0500,
,"[0.3, 0]",None,,,,,,,,,0.0,38.0,38.0,38.0,409.1574481999997,,,,,,,,,,,,,,,,,,,,,,,,,,,,,,,,,,,,,,,,,,,,,,,,,,,,,,,,,,,,,,,,409.141918500005,409.1574481999997,409.1574481999997,409.6575855999981,409.64090340000257,412.1408501000042,412.1410479000042,None,1.0,,,,,,nback24,1.0,2023-12-13_13h29.05.845,untitled,2023.2.3,60.00247210146506,2023-12-13 14h07.51.588987 -0500,
,"[0.2, 0.1]",None,,,,,,,,,0.0,39.0,39.0,39.0,412.1573101000031,,,,,,,,,,,,,,,,,,,,,,,,,,,,,,,,,,,,,,,,,,,,,,,,,,,,,,,,,,,,,,,,412.1418429000041,412.1573101000031,412.1573101000031,412.65770319999865,412.6411179999996,415.1408545000013,415.1410386999996,None,1.0,,,,,,nback24,1.0,2023-12-13_13h29.05.845,untitled,2023.2.3,60.00247210146506,2023-12-13 14h07.51.588987 -0500,
,,,,,,,,,,,,,,,,,,,,,,,,,,,,,,,,,,,,,,,,,,,,,,,,,,,,,,,,,,,,,,,,,,,,,,,,,,,,,,,,,,,,,,,,,,415.1415389000031,415.15747679999913,418.14080500000273,,,,,,,,
