square,location,corrAns,trials_0.thisRepN,trials_0.thisTrialN,trials_0.thisN,trials_0.thisIndex,trials_1.thisRepN,trials_1.thisTrialN,trials_1.thisN,trials_1.thisIndex,trials_2.thisRepN,trials_2.thisTrialN,trials_2.thisN,trials_2.thisIndex,thisRow.t,notes,Instructions.started,instructions.started,key_resp.started,inst_sq11.started,Instructions.stopped,key_resp.keys,key_resp.rt,key_resp.duration,All.started,sq_1.started,sq_2.started,sq_3.started,sq_4.started,sq_5.started,sq_6.started,sq_7.started,sq_8.started,sq_9.started,sq_10.started,sq_11.started,sq_12.started,All.stopped,Fixation.started,fixation_3.started,fixation_3.stopped,Fixation.stopped,N_back_0_Trial.started,target_square_0.started,response_0.started,fixation_0.started,target_square_0.stopped,fixation_0.stopped,response_0.stopped,N_back_0_Trial.stopped,response_0.keys,response_0.corr,response_0.rt,response_0.duration,Instructions_1.started,instructions_1.started,key_resp_1.started,Instructions_1.stopped,key_resp_1.keys,key_resp_1.rt,key_resp_1.duration,N_back_1_Trial.started,target_square_1.started,response_1.started,target_square_1.stopped,fixation_1.started,fixation_1.stopped,response_1.stopped,N_back_1_Trial.stopped,response_1.keys,response_1.corr,response_1.rt,response_1.duration,Instructions_2.started,instructions_2.started,key_resp_2.started,Instructions_2.stopped,key_resp_2.keys,key_resp_2.rt,key_resp_2.duration,N_back_2_trials.started,target_square_2.started,response_2.started,target_square_2.stopped,fixation_2.started,fixation_2.stopped,response_2.stopped,N_back_2_trials.stopped,response_2.keys,response_2.corr,response_2.rt,response_2.duration,End.started,thank_you.started,thank_you.stopped,End.stopped,participant,session,date,expName,psychopyVersion,frameRate,expStart,Unnamed: 104
,,,,,,,,,,,,,,,,,0.0014596000000892,0.0039013999999042,0.0039013999999042,0.0039013999999042,1633.8378669999995,space,1633.8202249,None,,,,,,,,,,,,,,,,,,,,,,,,,,,,,,,,,,,,,,,,,,,,,,,,,,,,,,,,,,,,,,,,,,,,,,,,,nback57,1.0,2024-01-16_11h20.49.745,untitled,2023.2.3,60.00567653711023,2024-01-16 11h38.06.823428 -0500,
6.0,"[-0.3, 0]",None,0.0,0.0,0.0,0.0,,,,,,,,,1635.8529374,,,,,,,,,,1633.8379089,1633.8531036999998,1633.8531036999998,1633.8531036999998,1633.8531036999998,1633.8531036999998,1633.8531036999998,1633.8531036999998,1633.8531036999998,1633.8531036999998,1633.8531036999998,1633.8531036999998,1633.8531036999998,1634.8370121999997,1634.837028,1634.8531217,1635.8529374,1635.8373229,1635.8508997999998,1635.8529374,1635.8529374,1636.3365712,1636.3530686,1638.8365068999997,1638.8531562999997,1638.8373536999998,None,1.0,,,,,,,,,,,,,,,,,,,,,,,,,,,,,,,,,,,,,,,,,,,,,nback57,1.0,2024-01-16_11h20.49.745,untitled,2023.2.3,60.00567653711023,2024-01-16 11h38.06.823428 -0500,
10.0,"[0, -0.2]",None,0.0,1.0,1.0,1.0,,,,,,,,,1638.8531562999997,,,,,,,,,,,,,,,,,,,,,,,,,,,,1638.8383365,1638.8531562999997,1638.8531562999997,1639.3365449999997,1639.3531224999997,1641.8361491,1641.8529909999995,1641.8365012999998,None,1.0,,,,,,,,,,,,,,,,,,,,,,,,,,,,,,,,,,,,,,,,,,,,,nback57,1.0,2024-01-16_11h20.49.745,untitled,2023.2.3,60.00567653711023,2024-01-16 11h38.06.823428 -0500,
11.0,"[-0.64, -0.4]",space,0.0,2.0,2.0,2.0,,,,,,,,,1641.8529909999995,,,,,,,,,,,,,,,,,,,,,,,,,,,,1641.8368313,1641.8529909999995,1641.8529909999995,1642.33653,1642.3531002,1644.8363983999998,1644.8530387,1644.8371008999998,space,1.0,0.3143073999999615,None,,,,,,,,,,,,,,,,,,,,,,,,,,,,,,,,,,,,,,,,,,,nback57,1.0,2024-01-16_11h20.49.745,untitled,2023.2.3,60.00567653711023,2024-01-16 11h38.06.823428 -0500,
12.0,"[0.64, -0.4]",None,0.0,3.0,3.0,3.0,,,,,,,,,1644.8530387,,,,,,,,,,,,,,,,,,,,,,,,,,,,1644.8380533,1644.8530387,1644.8530387,1645.336557,1645.3529669,1647.8362834,1647.8530326,1647.8373354,None,1.0,,,,,,,,,,,,,,,,,,,,,,,,,,,,,,,,,,,,,,,,,,,,,nback57,1.0,2024-01-16_11h20.49.745,untitled,2023.2.3,60.00567653711023,2024-01-16 11h38.06.823428 -0500,
1.0,"[-0.64, 0.4]",None,0.0,4.0,4.0,4.0,,,,,,,,,1647.8530326,,,,,,,,,,,,,,,,,,,,,,,,,,,,1647.8380502999998,1647.8530326,1647.8530326,1648.3362457999997,1648.3528542999998,1650.8362143,1650.8529027,1650.8370096999995,None,1.0,,,,,,,,,,,,,,,,,,,,,,,,,,,,,,,,,,,,,,,,,,,,,nback57,1.0,2024-01-16_11h20.49.745,untitled,2023.2.3,60.00567653711023,2024-01-16 11h38.06.823428 -0500,
1.0,"[-0.64, 0.4]",None,0.0,5.0,5.0,5.0,,,,,,,,,1650.8529027,,,,,,,,,,,,,,,,,,,,,,,,,,,,1650.8376845999996,1650.8529027,1650.8529027,1651.3362355999998,1651.352895,1653.8362177999998,1653.8529528,1653.837063,None,1.0,,,,,,,,,,,,,,,,,,,,,,,,,,,,,,,,,,,,,,,,,,,,,nback57,1.0,2024-01-16_11h20.49.745,untitled,2023.2.3,60.00567653711023,2024-01-16 11h38.06.823428 -0500,
4.0,"[-0.2, 0.1]",None,0.0,6.0,6.0,6.0,,,,,,,,,1653.8529528,,,,,,,,,,,,,,,,,,,,,,,,,,,,1653.8378678999998,1653.8529528,1653.8529528,1654.3362671,1654.3528646,1656.8361566999995,1656.8527254,1656.8369076,None,1.0,,,,,,,,,,,,,,,,,,,,,,,,,,,,,,,,,,,,,,,,,,,,,nback57,1.0,2024-01-16_11h20.49.745,untitled,2023.2.3,60.00567653711023,2024-01-16 11h38.06.823428 -0500,
5.0,"[0.2, 0.1]",None,0.0,7.0,7.0,7.0,,,,,,,,,1656.8527254,,,,,,,,,,,,,,,,,,,,,,,,,,,,1656.8375699999997,1656.8527254,1656.8527254,1657.3361581,1657.3526807999997,1659.8362199999997,1659.8526411999997,1659.8369992999997,None,1.0,,,,,,,,,,,,,,,,,,,,,,,,,,,,,,,,,,,,,,,,,,,,,nback57,1.0,2024-01-16_11h20.49.745,untitled,2023.2.3,60.00567653711023,2024-01-16 11h38.06.823428 -0500,
11.0,"[-0.64, -0.4]",space,0.0,8.0,8.0,8.0,,,,,,,,,1659.8526411999997,,,,,,,,,,,,,,,,,,,,,,,,,,,,1659.83774,1659.8526411999997,1659.8526411999997,1660.3360453,1660.3525492,1662.8360509999998,1662.8526816999995,1662.8367251,space,1.0,0.3616819000003488,None,,,,,,,,,,,,,,,,,,,,,,,,,,,,,,,,,,,,,,,,,,,nback57,1.0,2024-01-16_11h20.49.745,untitled,2023.2.3,60.00567653711023,2024-01-16 11h38.06.823428 -0500,
9.0,"[0.2, -0.1]",None,0.0,9.0,9.0,9.0,,,,,,,,,1662.8526816999995,,,,,,,,,,,,,,,,,,,,,,,,,,,,1662.8374040999995,1662.8526816999995,1662.8526816999995,1663.3359806,1663.3526575,1665.835979,1665.8525956999997,1665.8368671999997,None,1.0,,,,,,,,,,,,,,,,,,,,,,,,,,,,,,,,,,,,,,,,,,,,,nback57,1.0,2024-01-16_11h20.49.745,untitled,2023.2.3,60.00567653711023,2024-01-16 11h38.06.823428 -0500,
8.0,"[-0.2, -0.1]",None,0.0,10.0,10.0,10.0,,,,,,,,,1665.8525956999997,,,,,,,,,,,,,,,,,,,,,,,,,,,,1665.8375014999997,1665.8525956999997,1665.8525956999997,1666.3525043999998,1666.3525043999998,1668.8526453,1668.8526453,1668.8367801,None,1.0,,,,,,,,,,,,,,,,,,,,,,,,,,,,,,,,,,,,,,,,,,,,,nback57,1.0,2024-01-16_11h20.49.745,untitled,2023.2.3,60.00567653711023,2024-01-16 11h38.06.823428 -0500,
9.0,"[0.2, -0.1]",None,0.0,11.0,11.0,11.0,,,,,,,,,1668.8526453,,,,,,,,,,,,,,,,,,,,,,,,,,,,1668.8374467999995,1668.8526453,1668.8526453,1669.3526503999997,1669.3526503999997,1671.8525454,1671.8525454,1671.8368173,None,1.0,,,,,,,,,,,,,,,,,,,,,,,,,,,,,,,,,,,,,,,,,,,,,nback57,1.0,2024-01-16_11h20.49.745,untitled,2023.2.3,60.00567653711023,2024-01-16 11h38.06.823428 -0500,
6.0,"[-0.3, 0]",None,0.0,12.0,12.0,12.0,,,,,,,,,1671.8525454,,,,,,,,,,,,,,,,,,,,,,,,,,,,1671.8375376,1671.8525454,1671.8525454,1672.3526211999997,1672.3526211999997,1674.8524221999996,1674.8524221999996,1674.8366416999995,None,1.0,,,,,,,,,,,,,,,,,,,,,,,,,,,,,,,,,,,,,,,,,,,,,nback57,1.0,2024-01-16_11h20.49.745,untitled,2023.2.3,60.00567653711023,2024-01-16 11h38.06.823428 -0500,
9.0,"[0.2, -0.1]",None,0.0,13.0,13.0,13.0,,,,,,,,,1674.8524221999996,,,,,,,,,,,,,,,,,,,,,,,,,,,,1674.8372245,1674.8524221999996,1674.8524221999996,1675.3524782999998,1675.3524782999998,1677.8524039999998,1677.8524039999998,1677.8367797,None,1.0,,,,,,,,,,,,,,,,,,,,,,,,,,,,,,,,,,,,,,,,,,,,,nback57,1.0,2024-01-16_11h20.49.745,untitled,2023.2.3,60.00567653711023,2024-01-16 11h38.06.823428 -0500,
7.0,"[0.3, 0]",None,0.0,14.0,14.0,14.0,,,,,,,,,1677.8524039999998,,,,,,,,,,,,,,,,,,,,,,,,,,,,1677.8376086999997,1677.8524039999998,1677.8524039999998,1678.3525553,1678.3525553,1680.8523913999998,1680.8523913999998,1680.8366733999997,None,1.0,,,,,,,,,,,,,,,,,,,,,,,,,,,,,,,,,,,,,,,,,,,,,nback57,1.0,2024-01-16_11h20.49.745,untitled,2023.2.3,60.00567653711023,2024-01-16 11h38.06.823428 -0500,
2.0,"[0.64, 0.4]",None,0.0,15.0,15.0,15.0,,,,,,,,,1680.8523913999998,,,,,,,,,,,,,,,,,,,,,,,,,,,,1680.8372995,1680.8523913999998,1680.8523913999998,1681.3524389999998,1681.3524389999998,1683.8523330999997,1683.8523330999997,1683.8365395,None,1.0,,,,,,,,,,,,,,,,,,,,,,,,,,,,,,,,,,,,,,,,,,,,,nback57,1.0,2024-01-16_11h20.49.745,untitled,2023.2.3,60.00567653711023,2024-01-16 11h38.06.823428 -0500,
2.0,"[0.64, 0.4]",None,0.0,16.0,16.0,16.0,,,,,,,,,1683.8523330999997,,,,,,,,,,,,,,,,,,,,,,,,,,,,1683.8372514999996,1683.8523330999997,1683.8523330999997,1684.3523582999997,1684.3523582999997,1686.8523096,1686.8523096,1686.8364025,None,1.0,,,,,,,,,,,,,,,,,,,,,,,,,,,,,,,,,,,,,,,,,,,,,nback57,1.0,2024-01-16_11h20.49.745,untitled,2023.2.3,60.00567653711023,2024-01-16 11h38.06.823428 -0500,
11.0,"[-0.64, -0.4]",space,0.0,17.0,17.0,17.0,,,,,,,,,1686.8523096,,,,,,,,,,,,,,,,,,,,,,,,,,,,1686.8371072,1686.8523096,1686.8523096,1687.3522094999998,1687.3522094999998,1689.8522307999997,1689.8522307999997,1689.8363633,space,1.0,0.3906658999999308,None,,,,,,,,,,,,,,,,,,,,,,,,,,,,,,,,,,,,,,,,,,,nback57,1.0,2024-01-16_11h20.49.745,untitled,2023.2.3,60.00567653711023,2024-01-16 11h38.06.823428 -0500,
11.0,"[-0.64, -0.4]",space,0.0,18.0,18.0,18.0,,,,,,,,,1689.8522307999997,,,,,,,,,,,,,,,,,,,,,,,,,,,,1689.8369567999998,1689.8522307999997,1689.8522307999997,1690.3520816,1690.3520816,1692.8522275,1692.8522275,1692.8365249999997,space,1.0,0.4526252999999087,None,,,,,,,,,,,,,,,,,,,,,,,,,,,,,,,,,,,,,,,,,,,nback57,1.0,2024-01-16_11h20.49.745,untitled,2023.2.3,60.00567653711023,2024-01-16 11h38.06.823428 -0500,
7.0,"[0.3, 0]",None,0.0,19.0,19.0,19.0,,,,,,,,,1692.8522275,,,,,,,,,,,,,,,,,,,,,,,,,,,,1692.8372891,1692.8522275,1692.8522275,1693.3521714999997,1693.3521714999997,1695.852061,1695.852061,1695.8367002999998,None,1.0,,,,,,,,,,,,,,,,,,,,,,,,,,,,,,,,,,,,,,,,,,,,,nback57,1.0,2024-01-16_11h20.49.745,untitled,2023.2.3,60.00567653711023,2024-01-16 11h38.06.823428 -0500,
3.0,"[0, 0.2]",None,0.0,20.0,20.0,20.0,,,,,,,,,1695.852061,,,,,,,,,,,,,,,,,,,,,,,,,,,,1695.8375118,1695.852061,1695.852061,1696.3522638,1696.3522638,1698.8519447999995,1698.8519447999995,1698.8362036,None,1.0,,,,,,,,,,,,,,,,,,,,,,,,,,,,,,,,,,,,,,,,,,,,,nback57,1.0,2024-01-16_11h20.49.745,untitled,2023.2.3,60.00567653711023,2024-01-16 11h38.06.823428 -0500,
10.0,"[0, -0.2]",None,0.0,21.0,21.0,21.0,,,,,,,,,1698.8519447999995,,,,,,,,,,,,,,,,,,,,,,,,,,,,1698.8367952,1698.8519447999995,1698.8519447999995,1699.352108,1699.352108,1701.8520442999998,1701.8520442999998,1701.8363028,None,1.0,,,,,,,,,,,,,,,,,,,,,,,,,,,,,,,,,,,,,,,,,,,,,nback57,1.0,2024-01-16_11h20.49.745,untitled,2023.2.3,60.00567653711023,2024-01-16 11h38.06.823428 -0500,
1.0,"[-0.64, 0.4]",None,0.0,22.0,22.0,22.0,,,,,,,,,1701.8520442999998,,,,,,,,,,,,,,,,,,,,,,,,,,,,1701.8369439999997,1701.8520442999998,1701.8520442999998,1702.3520215999995,1702.3520215999995,1704.8518335,1704.8518335,1704.8361513999998,None,1.0,,,,,,,,,,,,,,,,,,,,,,,,,,,,,,,,,,,,,,,,,,,,,nback57,1.0,2024-01-16_11h20.49.745,untitled,2023.2.3,60.00567653711023,2024-01-16 11h38.06.823428 -0500,
2.0,"[0.64, 0.4]",None,0.0,23.0,23.0,23.0,,,,,,,,,1704.8518335,,,,,,,,,,,,,,,,,,,,,,,,,,,,1704.8369442999997,1704.8518335,1704.8518335,1705.3520039,1705.3520039,1707.8519410999995,1707.8519410999995,1707.8362176,None,1.0,,,,,,,,,,,,,,,,,,,,,,,,,,,,,,,,,,,,,,,,,,,,,nback57,1.0,2024-01-16_11h20.49.745,untitled,2023.2.3,60.00567653711023,2024-01-16 11h38.06.823428 -0500,
6.0,"[-0.3, 0]",None,0.0,24.0,24.0,24.0,,,,,,,,,1707.8519410999995,,,,,,,,,,,,,,,,,,,,,,,,,,,,1707.8368874999996,1707.8519410999995,1707.8519410999995,1708.3519026,1708.3519026,1710.8518728999998,1710.8518728999998,1710.8362976,None,1.0,,,,,,,,,,,,,,,,,,,,,,,,,,,,,,,,,,,,,,,,,,,,,nback57,1.0,2024-01-16_11h20.49.745,untitled,2023.2.3,60.00567653711023,2024-01-16 11h38.06.823428 -0500,
3.0,"[0, 0.2]",None,0.0,25.0,25.0,25.0,,,,,,,,,1710.8518728999998,,,,,,,,,,,,,,,,,,,,,,,,,,,,1710.8371112999998,1710.8518728999998,1710.8518728999998,1711.3519658,1711.3519658,1713.8518381999995,1713.8518381999995,1713.8364435999997,None,1.0,,,,,,,,,,,,,,,,,,,,,,,,,,,,,,,,,,,,,,,,,,,,,nback57,1.0,2024-01-16_11h20.49.745,untitled,2023.2.3,60.00567653711023,2024-01-16 11h38.06.823428 -0500,
11.0,"[-0.64, -0.4]",space,0.0,26.0,26.0,26.0,,,,,,,,,1713.8518381999995,,,,,,,,,,,,,,,,,,,,,,,,,,,,1713.8372544,1713.8518381999995,1713.8518381999995,1714.3517097999998,1714.3517097999998,1716.8517284999998,1716.8517284999998,1716.8359772999995,space,1.0,0.4398539000003438,None,,,,,,,,,,,,,,,,,,,,,,,,,,,,,,,,,,,,,,,,,,,nback57,1.0,2024-01-16_11h20.49.745,untitled,2023.2.3,60.00567653711023,2024-01-16 11h38.06.823428 -0500,
1.0,"[-0.64, 0.4]",None,0.0,27.0,27.0,27.0,,,,,,,,,1716.8517284999998,,,,,,,,,,,,,,,,,,,,,,,,,,,,1716.8368532,1716.8517284999998,1716.8517284999998,1717.3517659,1717.3517659,1719.851698,1719.851698,1719.8359842999998,None,1.0,,,,,,,,,,,,,,,,,,,,,,,,,,,,,,,,,,,,,,,,,,,,,nback57,1.0,2024-01-16_11h20.49.745,untitled,2023.2.3,60.00567653711023,2024-01-16 11h38.06.823428 -0500,
3.0,"[0, 0.2]",None,0.0,28.0,28.0,28.0,,,,,,,,,1719.851698,,,,,,,,,,,,,,,,,,,,,,,,,,,,1719.8366885,1719.851698,1719.851698,1720.3518535999997,1720.3518535999997,1722.8515479999996,1722.8515479999996,1722.8359657,None,1.0,,,,,,,,,,,,,,,,,,,,,,,,,,,,,,,,,,,,,,,,,,,,,nback57,1.0,2024-01-16_11h20.49.745,untitled,2023.2.3,60.00567653711023,2024-01-16 11h38.06.823428 -0500,
9.0,"[0.2, -0.1]",None,0.0,29.0,29.0,29.0,,,,,,,,,1722.8515479999996,,,,,,,,,,,,,,,,,,,,,,,,,,,,1722.8365701999996,1722.8515479999996,1722.8515479999996,1723.3517247999998,1723.3517247999998,1725.8515776,1725.8515776,1725.8357182,None,1.0,,,,,,,,,,,,,,,,,,,,,,,,,,,,,,,,,,,,,,,,,,,,,nback57,1.0,2024-01-16_11h20.49.745,untitled,2023.2.3,60.00567653711023,2024-01-16 11h38.06.823428 -0500,
8.0,"[-0.2, -0.1]",None,0.0,30.0,30.0,30.0,,,,,,,,,1725.8515776,,,,,,,,,,,,,,,,,,,,,,,,,,,,1725.8363409,1725.8515776,1725.8515776,1726.351597,1726.351597,1728.8515346999998,1728.8515346999998,1728.835935,space,0.0,0.3870321000003969,None,,,,,,,,,,,,,,,,,,,,,,,,,,,,,,,,,,,,,,,,,,,nback57,1.0,2024-01-16_11h20.49.745,untitled,2023.2.3,60.00567653711023,2024-01-16 11h38.06.823428 -0500,
12.0,"[0.64, -0.4]",None,0.0,31.0,31.0,31.0,,,,,,,,,1728.8515346999998,,,,,,,,,,,,,,,,,,,,,,,,,,,,1728.8369183999998,1728.8515346999998,1728.8515346999998,1729.3513994,1729.3513994,1731.8515591,1731.8515591,1731.8360723,None,1.0,,,,,,,,,,,,,,,,,,,,,,,,,,,,,,,,,,,,,,,,,,,,,nback57,1.0,2024-01-16_11h20.49.745,untitled,2023.2.3,60.00567653711023,2024-01-16 11h38.06.823428 -0500,
9.0,"[0.2, -0.1]",None,0.0,32.0,32.0,32.0,,,,,,,,,1731.8515591,,,,,,,,,,,,,,,,,,,,,,,,,,,,1731.836894,1731.8515591,1731.8515591,1732.3515887999995,1732.3515887999995,1734.8514213999997,1734.8514213999997,1734.8354835,None,1.0,,,,,,,,,,,,,,,,,,,,,,,,,,,,,,,,,,,,,,,,,,,,,nback57,1.0,2024-01-16_11h20.49.745,untitled,2023.2.3,60.00567653711023,2024-01-16 11h38.06.823428 -0500,
11.0,"[-0.64, -0.4]",space,0.0,33.0,33.0,33.0,,,,,,,,,1734.8514213999997,,,,,,,,,,,,,,,,,,,,,,,,,,,,1734.8361663,1734.8514213999997,1734.8514213999997,1735.3514716,1735.3514716,1737.8514031,1737.8514031,1737.8358285999998,space,1.0,0.3492863999999827,None,,,,,,,,,,,,,,,,,,,,,,,,,,,,,,,,,,,,,,,,,,,nback57,1.0,2024-01-16_11h20.49.745,untitled,2023.2.3,60.00567653711023,2024-01-16 11h38.06.823428 -0500,
7.0,"[0.3, 0]",None,0.0,34.0,34.0,34.0,,,,,,,,,1737.8514031,,,,,,,,,,,,,,,,,,,,,,,,,,,,1737.8367476999997,1737.8514031,1737.8514031,1738.3514050999995,1738.3514050999995,1740.8512599,1740.8512599,1740.8357013999998,None,1.0,,,,,,,,,,,,,,,,,,,,,,,,,,,,,,,,,,,,,,,,,,,,,nback57,1.0,2024-01-16_11h20.49.745,untitled,2023.2.3,60.00567653711023,2024-01-16 11h38.06.823428 -0500,
11.0,"[-0.64, -0.4]",space,0.0,35.0,35.0,35.0,,,,,,,,,1740.8512599,,,,,,,,,,,,,,,,,,,,,,,,,,,,1740.8363552,1740.8512599,1740.8512599,1741.3513426999998,1741.3513426999998,1743.8513795999995,1743.8513795999995,1743.8355244999998,space,1.0,0.5141904000001887,None,,,,,,,,,,,,,,,,,,,,,,,,,,,,,,,,,,,,,,,,,,,nback57,1.0,2024-01-16_11h20.49.745,untitled,2023.2.3,60.00567653711023,2024-01-16 11h38.06.823428 -0500,
4.0,"[-0.2, 0.1]",None,0.0,36.0,36.0,36.0,,,,,,,,,1743.8513795999995,,,,,,,,,,,,,,,,,,,,,,,,,,,,1743.8363016999997,1743.8513795999995,1743.8513795999995,1744.3513190999995,1744.3513190999995,1746.8512562,1746.8512562,1746.8356267,None,1.0,,,,,,,,,,,,,,,,,,,,,,,,,,,,,,,,,,,,,,,,,,,,,nback57,1.0,2024-01-16_11h20.49.745,untitled,2023.2.3,60.00567653711023,2024-01-16 11h38.06.823428 -0500,
5.0,"[0.2, 0.1]",None,0.0,37.0,37.0,37.0,,,,,,,,,1746.8512562,,,,,,,,,,,,,,,,,,,,,,,,,,,,1746.8363473,1746.8512562,1746.8512562,1747.3511992,1747.3511992,1749.8510953999998,1749.8510953999998,1749.8351009999997,None,1.0,,,,,,,,,,,,,,,,,,,,,,,,,,,,,,,,,,,,,,,,,,,,,nback57,1.0,2024-01-16_11h20.49.745,untitled,2023.2.3,60.00567653711023,2024-01-16 11h38.06.823428 -0500,
6.0,"[-0.3, 0]",None,0.0,38.0,38.0,38.0,,,,,,,,,1749.8510953999998,,,,,,,,,,,,,,,,,,,,,,,,,,,,1749.8356658999996,1749.8510953999998,1749.8510953999998,1750.3510827,1750.3510827,1752.8511362,1752.8511362,1752.8353167,None,1.0,,,,,,,,,,,,,,,,,,,,,,,,,,,,,,,,,,,,,,,,,,,,,nback57,1.0,2024-01-16_11h20.49.745,untitled,2023.2.3,60.00567653711023,2024-01-16 11h38.06.823428 -0500,
11.0,"[-0.64, -0.4]",space,0.0,39.0,39.0,39.0,,,,,,,,,1752.8511362,,,,,,,,,,,,,,,,,,,,,,,,,,,,1752.8360921,1752.8511362,1752.8511362,1753.3510931,1753.3510931,1755.8511700999998,1755.8511700999998,1755.8353828999998,space,1.0,0.3176807999998345,None,,,,,,,,,,,,,,,,,,,,,,,,,,,,,,,,,,,,,,,,,,,nback57,1.0,2024-01-16_11h20.49.745,untitled,2023.2.3,60.00567653711023,2024-01-16 11h38.06.823428 -0500,
,,,,,,,,,,,,,,,,,,,,,,,,,,,,,,,,,,,,,,,,,,,,,,,,,,,,,,,1755.836049,1755.8511700999998,1755.8511700999998,1762.4190366999997,space,6.558374799999911,None,,,,,,,,,,,,,,,,,,,,,,,,,,,,,,,,,,,,nback57,1.0,2024-01-16_11h20.49.745,untitled,2023.2.3,60.00567653711023,2024-01-16 11h38.06.823428 -0500,
10.0,"[0, -0.2]",None,,,,,0.0,0.0,0.0,0.0,,,,,1763.4341839,,,,,,,,,,,,,,,,,,,,,,,,1762.4190783,1762.4343658999996,1763.4341839,1763.4187887999997,,,,,,,,,,,,,,,,,,,,1763.4281517,1763.4341839,1763.4341839,1763.9342039999997,1763.9342039999997,1766.4341961,1766.4341961,1766.4185533,None,1.0,,,,,,,,,,,,,,,,,,,,,,,,,,nback57,1.0,2024-01-16_11h20.49.745,untitled,2023.2.3,60.00567653711023,2024-01-16 11h38.06.823428 -0500,
5.0,"[0.2, 0.1]",None,,,,,0.0,1.0,1.0,1.0,,,,,1766.4341961,,,,,,,,,,,,,,,,,,,,,,,,,,,,,,,,,,,,,,,,,,,,,,,1766.4194714,1766.4341961,1766.4341961,1766.9343467,1766.9343467,1769.4343716999997,1769.4343716999997,1769.4185235,None,1.0,,,,,,,,,,,,,,,,,,,,,,,,,,nback57,1.0,2024-01-16_11h20.49.745,untitled,2023.2.3,60.00567653711023,2024-01-16 11h38.06.823428 -0500,
6.0,"[-0.3, 0]",None,,,,,0.0,2.0,2.0,2.0,,,,,1769.4343716999997,,,,,,,,,,,,,,,,,,,,,,,,,,,,,,,,,,,,,,,,,,,,,,,1769.4193425999997,1769.4343716999997,1769.4343716999997,1769.9342174999997,1769.9342174999997,1772.4341916999997,1772.4341916999997,1772.4184052,None,1.0,,,,,,,,,,,,,,,,,,,,,,,,,,nback57,1.0,2024-01-16_11h20.49.745,untitled,2023.2.3,60.00567653711023,2024-01-16 11h38.06.823428 -0500,
6.0,"[-0.3, 0]",space,,,,,0.0,3.0,3.0,3.0,,,,,1772.4341916999997,,,,,,,,,,,,,,,,,,,,,,,,,,,,,,,,,,,,,,,,,,,,,,,1772.4190435,1772.4341916999997,1772.4341916999997,1772.9342412,1772.9342412,1775.4341271999997,1775.4341271999997,1775.4181331999998,space,1.0,0.5158134000002974,None,,,,,,,,,,,,,,,,,,,,,,,,nback57,1.0,2024-01-16_11h20.49.745,untitled,2023.2.3,60.00567653711023,2024-01-16 11h38.06.823428 -0500,
12.0,"[0.64, -0.4]",None,,,,,0.0,4.0,4.0,4.0,,,,,1775.4341271999997,,,,,,,,,,,,,,,,,,,,,,,,,,,,,,,,,,,,,,,,,,,,,,,1775.4190829999998,1775.4341271999997,1775.4341271999997,1775.9341304999998,1775.9341304999998,1778.4339946,1778.4339946,1778.4182011999997,None,1.0,,,,,,,,,,,,,,,,,,,,,,,,,,nback57,1.0,2024-01-16_11h20.49.745,untitled,2023.2.3,60.00567653711023,2024-01-16 11h38.06.823428 -0500,
10.0,"[0, -0.2]",None,,,,,0.0,5.0,5.0,5.0,,,,,1778.4339946,,,,,,,,,,,,,,,,,,,,,,,,,,,,,,,,,,,,,,,,,,,,,,,1778.4188795,1778.4339946,1778.4339946,1778.934087,1778.934087,1781.433978,1781.433978,1781.4180689,None,1.0,,,,,,,,,,,,,,,,,,,,,,,,,,nback57,1.0,2024-01-16_11h20.49.745,untitled,2023.2.3,60.00567653711023,2024-01-16 11h38.06.823428 -0500,
2.0,"[0.64, 0.4]",None,,,,,0.0,6.0,6.0,6.0,,,,,1781.433978,,,,,,,,,,,,,,,,,,,,,,,,,,,,,,,,,,,,,,,,,,,,,,,1781.4186842,1781.433978,1781.433978,1781.9340518999998,1781.9340518999998,1784.4338407,1784.4338407,1784.4180389999997,None,1.0,,,,,,,,,,,,,,,,,,,,,,,,,,nback57,1.0,2024-01-16_11h20.49.745,untitled,2023.2.3,60.00567653711023,2024-01-16 11h38.06.823428 -0500,
9.0,"[0.2, -0.1]",None,,,,,0.0,7.0,7.0,7.0,,,,,1784.4338407,,,,,,,,,,,,,,,,,,,,,,,,,,,,,,,,,,,,,,,,,,,,,,,1784.4186292,1784.4338407,1784.4338407,1784.9339013999995,1784.9339013999995,1787.4338921,1787.4338921,1787.4180296999998,None,1.0,,,,,,,,,,,,,,,,,,,,,,,,,,nback57,1.0,2024-01-16_11h20.49.745,untitled,2023.2.3,60.00567653711023,2024-01-16 11h38.06.823428 -0500,
9.0,"[0.2, -0.1]",space,,,,,0.0,8.0,8.0,8.0,,,,,1787.4338921,,,,,,,,,,,,,,,,,,,,,,,,,,,,,,,,,,,,,,,,,,,,,,,1787.4186541,1787.4338921,1787.4338921,1787.9337419999997,1787.9337419999997,1790.4338683,1790.4338683,1790.4180410999998,space,1.0,0.506068900000173,None,,,,,,,,,,,,,,,,,,,,,,,,nback57,1.0,2024-01-16_11h20.49.745,untitled,2023.2.3,60.00567653711023,2024-01-16 11h38.06.823428 -0500,
6.0,"[-0.3, 0]",None,,,,,0.0,9.0,9.0,9.0,,,,,1790.4338683,,,,,,,,,,,,,,,,,,,,,,,,,,,,,,,,,,,,,,,,,,,,,,,1790.4187754999998,1790.4338683,1790.4338683,1790.9337637999995,1790.9337637999995,1793.4338728999996,1793.4338728999996,1793.4173382999998,None,1.0,,,,,,,,,,,,,,,,,,,,,,,,,,nback57,1.0,2024-01-16_11h20.49.745,untitled,2023.2.3,60.00567653711023,2024-01-16 11h38.06.823428 -0500,
11.0,"[-0.64, -0.4]",None,,,,,0.0,10.0,10.0,10.0,,,,,1793.4338728999996,,,,,,,,,,,,,,,,,,,,,,,,,,,,,,,,,,,,,,,,,,,,,,,1793.4176595999998,1793.4338728999996,1793.4338728999996,1793.9337974,1793.9337974,1796.4336659,1796.4336659,1796.4177784,None,1.0,,,,,,,,,,,,,,,,,,,,,,,,,,nback57,1.0,2024-01-16_11h20.49.745,untitled,2023.2.3,60.00567653711023,2024-01-16 11h38.06.823428 -0500,
11.0,"[-0.64, -0.4]",space,,,,,0.0,11.0,11.0,11.0,,,,,1796.4336659,,,,,,,,,,,,,,,,,,,,,,,,,,,,,,,,,,,,,,,,,,,,,,,1796.4184244999997,1796.4336659,1796.4336659,1796.9338703999997,1796.9338703999997,1799.4336755999998,1799.4336755999998,1799.4175818,space,1.0,0.5339363999996749,None,,,,,,,,,,,,,,,,,,,,,,,,nback57,1.0,2024-01-16_11h20.49.745,untitled,2023.2.3,60.00567653711023,2024-01-16 11h38.06.823428 -0500,
4.0,"[-0.2, 0.1]",None,,,,,0.0,12.0,12.0,12.0,,,,,1799.4336755999998,,,,,,,,,,,,,,,,,,,,,,,,,,,,,,,,,,,,,,,,,,,,,,,1799.4182584999994,1799.4336755999998,1799.4336755999998,1799.9336847,1799.9336847,1802.433562,1802.433562,1802.4177812000005,None,1.0,,,,,,,,,,,,,,,,,,,,,,,,,,nback57,1.0,2024-01-16_11h20.49.745,untitled,2023.2.3,60.00567653711023,2024-01-16 11h38.06.823428 -0500,
3.0,"[0, 0.2]",None,,,,,0.0,13.0,13.0,13.0,,,,,1802.433562,,,,,,,,,,,,,,,,,,,,,,,,,,,,,,,,,,,,,,,,,,,,,,,1802.418395,1802.433562,1802.433562,1802.9335522999995,1802.9335522999995,1805.4334296,1805.4334296,1805.4176008,None,1.0,,,,,,,,,,,,,,,,,,,,,,,,,,nback57,1.0,2024-01-16_11h20.49.745,untitled,2023.2.3,60.00567653711023,2024-01-16 11h38.06.823428 -0500,
3.0,"[0, 0.2]",space,,,,,0.0,14.0,14.0,14.0,,,,,1805.4334296,,,,,,,,,,,,,,,,,,,,,,,,,,,,,,,,,,,,,,,,,,,,,,,1805.4182907,1805.4334296,1805.4334296,1805.9335331,1805.9335331,1808.4334888,1808.4334888,1808.4176185,space,1.0,0.4007216999998491,None,,,,,,,,,,,,,,,,,,,,,,,,nback57,1.0,2024-01-16_11h20.49.745,untitled,2023.2.3,60.00567653711023,2024-01-16 11h38.06.823428 -0500,
8.0,"[-0.2, -0.1]",None,,,,,0.0,15.0,15.0,15.0,,,,,1808.4334888,,,,,,,,,,,,,,,,,,,,,,,,,,,,,,,,,,,,,,,,,,,,,,,1808.4183634,1808.4334888,1808.4334888,1808.9334810999997,1808.9334810999997,1811.433361,1811.433361,1811.4174497,None,1.0,,,,,,,,,,,,,,,,,,,,,,,,,,nback57,1.0,2024-01-16_11h20.49.745,untitled,2023.2.3,60.00567653711023,2024-01-16 11h38.06.823428 -0500,
1.0,"[-0.64, 0.4]",None,,,,,0.0,16.0,16.0,16.0,,,,,1811.433361,,,,,,,,,,,,,,,,,,,,,,,,,,,,,,,,,,,,,,,,,,,,,,,1811.4180231999997,1811.433361,1811.433361,1811.9336785,1811.9336785,1814.4334857,1814.4334857,1814.4175715999995,None,1.0,,,,,,,,,,,,,,,,,,,,,,,,,,nback57,1.0,2024-01-16_11h20.49.745,untitled,2023.2.3,60.00567653711023,2024-01-16 11h38.06.823428 -0500,
2.0,"[0.64, 0.4]",None,,,,,0.0,17.0,17.0,17.0,,,,,1814.4334857,,,,,,,,,,,,,,,,,,,,,,,,,,,,,,,,,,,,,,,,,,,,,,,1814.418268,1814.4334857,1814.4334857,1814.9334034,1814.9334034,1817.4334853,1817.4334853,1817.4172699,None,1.0,,,,,,,,,,,,,,,,,,,,,,,,,,nback57,1.0,2024-01-16_11h20.49.745,untitled,2023.2.3,60.00567653711023,2024-01-16 11h38.06.823428 -0500,
4.0,"[-0.2, 0.1]",None,,,,,0.0,18.0,18.0,18.0,,,,,1817.4334853,,,,,,,,,,,,,,,,,,,,,,,,,,,,,,,,,,,,,,,,,,,,,,,1817.4179164,1817.4334853,1817.4334853,1817.9333132,1817.9333132,1820.4332274000003,1820.4332274000003,1820.417435,None,1.0,,,,,,,,,,,,,,,,,,,,,,,,,,nback57,1.0,2024-01-16_11h20.49.745,untitled,2023.2.3,60.00567653711023,2024-01-16 11h38.06.823428 -0500,
4.0,"[-0.2, 0.1]",space,,,,,0.0,19.0,19.0,19.0,,,,,1820.4332274000003,,,,,,,,,,,,,,,,,,,,,,,,,,,,,,,,,,,,,,,,,,,,,,,1820.418062,1820.4332274000003,1820.4332274000003,1820.9332420999997,1820.9332420999997,1823.4332419,1823.4332419,1823.4173175,space,1.0,0.3630198000000746,None,,,,,,,,,,,,,,,,,,,,,,,,nback57,1.0,2024-01-16_11h20.49.745,untitled,2023.2.3,60.00567653711023,2024-01-16 11h38.06.823428 -0500,
8.0,"[-0.2, -0.1]",None,,,,,0.0,20.0,20.0,20.0,,,,,1823.4332419,,,,,,,,,,,,,,,,,,,,,,,,,,,,,,,,,,,,,,,,,,,,,,,1823.4179542,1823.4332419,1823.4332419,1823.9331609999997,1823.9331609999997,1826.4330399,1826.4330399,1826.4173207,None,1.0,,,,,,,,,,,,,,,,,,,,,,,,,,nback57,1.0,2024-01-16_11h20.49.745,untitled,2023.2.3,60.00567653711023,2024-01-16 11h38.06.823428 -0500,
5.0,"[0.2, 0.1]",None,,,,,0.0,21.0,21.0,21.0,,,,,1826.4330399,,,,,,,,,,,,,,,,,,,,,,,,,,,,,,,,,,,,,,,,,,,,,,,1826.4179995,1826.4330399,1826.4330399,1826.933229,1826.933229,1829.4331017,1829.4331017,1829.41721,None,1.0,,,,,,,,,,,,,,,,,,,,,,,,,,nback57,1.0,2024-01-16_11h20.49.745,untitled,2023.2.3,60.00567653711023,2024-01-16 11h38.06.823428 -0500,
5.0,"[0.2, 0.1]",space,,,,,0.0,22.0,22.0,22.0,,,,,1829.4331017,,,,,,,,,,,,,,,,,,,,,,,,,,,,,,,,,,,,,,,,,,,,,,,1829.4178509,1829.4331017,1829.4331017,1829.9330975,1829.9330975,1832.4332957,1832.4332957,1832.4175685,space,1.0,0.5233539000000746,None,,,,,,,,,,,,,,,,,,,,,,,,nback57,1.0,2024-01-16_11h20.49.745,untitled,2023.2.3,60.00567653711023,2024-01-16 11h38.06.823428 -0500,
1.0,"[-0.64, 0.4]",None,,,,,0.0,23.0,23.0,23.0,,,,,1832.4332957,,,,,,,,,,,,,,,,,,,,,,,,,,,,,,,,,,,,,,,,,,,,,,,1832.4185377,1832.4332957,1832.4332957,1832.9331416,1832.9331416,1835.4330988,1835.4330988,1835.4171696,None,1.0,,,,,,,,,,,,,,,,,,,,,,,,,,nback57,1.0,2024-01-16_11h20.49.745,untitled,2023.2.3,60.00567653711023,2024-01-16 11h38.06.823428 -0500,
3.0,"[0, 0.2]",None,,,,,0.0,24.0,24.0,24.0,,,,,1835.4330988,,,,,,,,,,,,,,,,,,,,,,,,,,,,,,,,,,,,,,,,,,,,,,,1835.4178222,1835.4330988,1835.4330988,1835.9330871,1835.9330871,1838.4330574,1838.4330574,1838.4171607000003,None,1.0,,,,,,,,,,,,,,,,,,,,,,,,,,nback57,1.0,2024-01-16_11h20.49.745,untitled,2023.2.3,60.00567653711023,2024-01-16 11h38.06.823428 -0500,
6.0,"[-0.3, 0]",None,,,,,0.0,25.0,25.0,25.0,,,,,1838.4330574,,,,,,,,,,,,,,,,,,,,,,,,,,,,,,,,,,,,,,,,,,,,,,,1838.4177794,1838.4330574,1838.4330574,1838.9330130000003,1838.9330130000003,1841.4328146000005,1841.4328146000005,1841.416879,None,1.0,,,,,,,,,,,,,,,,,,,,,,,,,,nback57,1.0,2024-01-16_11h20.49.745,untitled,2023.2.3,60.00567653711023,2024-01-16 11h38.06.823428 -0500,
1.0,"[-0.64, 0.4]",None,,,,,0.0,26.0,26.0,26.0,,,,,1841.4328146000005,,,,,,,,,,,,,,,,,,,,,,,,,,,,,,,,,,,,,,,,,,,,,,,1841.4174843999997,1841.4328146000005,1841.4328146000005,1841.9331526,1841.9331526,1844.4328478,1844.4328478,1844.4168784,None,1.0,,,,,,,,,,,,,,,,,,,,,,,,,,nback57,1.0,2024-01-16_11h20.49.745,untitled,2023.2.3,60.00567653711023,2024-01-16 11h38.06.823428 -0500,
1.0,"[-0.64, 0.4]",space,,,,,0.0,27.0,27.0,27.0,,,,,1844.4328478,,,,,,,,,,,,,,,,,,,,,,,,,,,,,,,,,,,,,,,,,,,,,,,1844.4174378,1844.4328478,1844.4328478,1844.9328708,1844.9328708,1847.432779,1847.432779,1847.4168947000005,space,1.0,0.7889784999997573,None,,,,,,,,,,,,,,,,,,,,,,,,nback57,1.0,2024-01-16_11h20.49.745,untitled,2023.2.3,60.00567653711023,2024-01-16 11h38.06.823428 -0500,
1.0,"[-0.64, 0.4]",space,,,,,0.0,28.0,28.0,28.0,,,,,1847.432779,,,,,,,,,,,,,,,,,,,,,,,,,,,,,,,,,,,,,,,,,,,,,,,1847.4176832,1847.432779,1847.432779,1847.9328111,1847.9328111,1850.4327069,1850.4327069,1850.4168515,space,1.0,0.8512375999998767,None,,,,,,,,,,,,,,,,,,,,,,,,nback57,1.0,2024-01-16_11h20.49.745,untitled,2023.2.3,60.00567653711023,2024-01-16 11h38.06.823428 -0500,
3.0,"[0, 0.2]",None,,,,,0.0,29.0,29.0,29.0,,,,,1850.4327069,,,,,,,,,,,,,,,,,,,,,,,,,,,,,,,,,,,,,,,,,,,,,,,1850.4176513,1850.4327069,1850.4327069,1850.9327358999997,1850.9327358999997,1853.4327338,1853.4327338,1853.4165485,None,1.0,,,,,,,,,,,,,,,,,,,,,,,,,,nback57,1.0,2024-01-16_11h20.49.745,untitled,2023.2.3,60.00567653711023,2024-01-16 11h38.06.823428 -0500,
12.0,"[0.64, -0.4]",None,,,,,0.0,30.0,30.0,30.0,,,,,1853.4327338,,,,,,,,,,,,,,,,,,,,,,,,,,,,,,,,,,,,,,,,,,,,,,,1853.4168783,1853.4327338,1853.4327338,1853.9327321,1853.9327321,1856.4325865999997,1856.4325865999997,1856.4167408,None,1.0,,,,,,,,,,,,,,,,,,,,,,,,,,nback57,1.0,2024-01-16_11h20.49.745,untitled,2023.2.3,60.00567653711023,2024-01-16 11h38.06.823428 -0500,
12.0,"[0.64, -0.4]",space,,,,,0.0,31.0,31.0,31.0,,,,,1856.4325865999997,,,,,,,,,,,,,,,,,,,,,,,,,,,,,,,,,,,,,,,,,,,,,,,1856.4173718,1856.4325865999997,1856.4325865999997,1856.9328258,1856.9328258,1859.4326104,1859.4326104,1859.4167055000005,space,1.0,0.6437927999995736,None,,,,,,,,,,,,,,,,,,,,,,,,nback57,1.0,2024-01-16_11h20.49.745,untitled,2023.2.3,60.00567653711023,2024-01-16 11h38.06.823428 -0500,
2.0,"[0.64, 0.4]",None,,,,,0.0,32.0,32.0,32.0,,,,,1859.4326104,,,,,,,,,,,,,,,,,,,,,,,,,,,,,,,,,,,,,,,,,,,,,,,1859.4174444999996,1859.4326104,1859.4326104,1859.9327656,1859.9327656,1862.4324515000003,1862.4324515000003,1862.4163183999997,None,1.0,,,,,,,,,,,,,,,,,,,,,,,,,,nback57,1.0,2024-01-16_11h20.49.745,untitled,2023.2.3,60.00567653711023,2024-01-16 11h38.06.823428 -0500,
1.0,"[-0.64, 0.4]",None,,,,,0.0,33.0,33.0,33.0,,,,,1862.4324515000003,,,,,,,,,,,,,,,,,,,,,,,,,,,,,,,,,,,,,,,,,,,,,,,1862.4169328000005,1862.4324515000003,1862.4324515000003,1862.9326068999997,1862.9326068999997,1865.4324378,1865.4324378,1865.4161209,None,1.0,,,,,,,,,,,,,,,,,,,,,,,,,,nback57,1.0,2024-01-16_11h20.49.745,untitled,2023.2.3,60.00567653711023,2024-01-16 11h38.06.823428 -0500,
7.0,"[0.3, 0]",None,,,,,0.0,34.0,34.0,34.0,,,,,1865.4324378,,,,,,,,,,,,,,,,,,,,,,,,,,,,,,,,,,,,,,,,,,,,,,,1865.4164565,1865.4324378,1865.4324378,1865.9324366999997,1865.9324366999997,1868.4322704,1868.4322704,1868.4163211,None,1.0,,,,,,,,,,,,,,,,,,,,,,,,,,nback57,1.0,2024-01-16_11h20.49.745,untitled,2023.2.3,60.00567653711023,2024-01-16 11h38.06.823428 -0500,
7.0,"[0.3, 0]",space,,,,,0.0,35.0,35.0,35.0,,,,,1868.4322704,,,,,,,,,,,,,,,,,,,,,,,,,,,,,,,,,,,,,,,,,,,,,,,1868.4168736999995,1868.4322704,1868.4322704,1868.9324393,1868.9324393,1871.4322973000003,1871.4322973000003,1871.4169152,space,1.0,0.4380701999998564,None,,,,,,,,,,,,,,,,,,,,,,,,nback57,1.0,2024-01-16_11h20.49.745,untitled,2023.2.3,60.00567653711023,2024-01-16 11h38.06.823428 -0500,
11.0,"[-0.64, -0.4]",None,,,,,0.0,36.0,36.0,36.0,,,,,1871.4322973000003,,,,,,,,,,,,,,,,,,,,,,,,,,,,,,,,,,,,,,,,,,,,,,,1871.4177878999997,1871.4322973000003,1871.4322973000003,1871.9324638000005,1871.9324638000005,1874.4322299,1874.4322299,1874.4164383,None,1.0,,,,,,,,,,,,,,,,,,,,,,,,,,nback57,1.0,2024-01-16_11h20.49.745,untitled,2023.2.3,60.00567653711023,2024-01-16 11h38.06.823428 -0500,
2.0,"[0.64, 0.4]",None,,,,,0.0,37.0,37.0,37.0,,,,,1874.4322299,,,,,,,,,,,,,,,,,,,,,,,,,,,,,,,,,,,,,,,,,,,,,,,1874.4170769,1874.4322299,1874.4322299,1874.9322318,1874.9322318,1877.4323807999997,1877.4323807999997,1877.4165937,None,1.0,,,,,,,,,,,,,,,,,,,,,,,,,,nback57,1.0,2024-01-16_11h20.49.745,untitled,2023.2.3,60.00567653711023,2024-01-16 11h38.06.823428 -0500,
6.0,"[-0.3, 0]",None,,,,,0.0,38.0,38.0,38.0,,,,,1877.4323807999997,,,,,,,,,,,,,,,,,,,,,,,,,,,,,,,,,,,,,,,,,,,,,,,1877.4172588,1877.4323807999997,1877.4323807999997,1877.9322832000005,1877.9322832000005,1880.4322744999995,1880.4322744999995,1880.4162258,None,1.0,,,,,,,,,,,,,,,,,,,,,,,,,,nback57,1.0,2024-01-16_11h20.49.745,untitled,2023.2.3,60.00567653711023,2024-01-16 11h38.06.823428 -0500,
10.0,"[0, -0.2]",None,,,,,0.0,39.0,39.0,39.0,,,,,1880.4322744999995,,,,,,,,,,,,,,,,,,,,,,,,,,,,,,,,,,,,,,,,,,,,,,,1880.4168429999995,1880.4322744999995,1880.4322744999995,1880.9322766,1880.9322766,1883.4323742,1883.4323742,1883.4162636999995,None,1.0,,,,,,,,,,,,,,,,,,,,,,,,,,nback57,1.0,2024-01-16_11h20.49.745,untitled,2023.2.3,60.00567653711023,2024-01-16 11h38.06.823428 -0500,
,,,,,,,,,,,,,,,,,,,,,,,,,,,,,,,,,,,,,,,,,,,,,,,,,,,,,,,,,,,,,,,,,,,,,,,,,,1883.4167092,1883.4323742,1883.4323742,1892.4837419,space,9.042975100000149,None,,,,,,,,,,,,,,,,,nback57,1.0,2024-01-16_11h20.49.745,untitled,2023.2.3,60.00567653711023,2024-01-16 11h38.06.823428 -0500,
,"[0.2, 0.1]",None,,,,,,,,,0.0,0.0,0.0,0.0,1893.4985626,,,,,,,,,,,,,,,,,,,,,,,,1892.4837918,1892.4986948,1893.4985626,1893.483016,,,,,,,,,,,,,,,,,,,,,,,,,,,,,,,,,,,,,,,1893.4927428,1893.4985626,1893.4985626,1893.9986693999997,1893.9986693999997,1896.4987518000005,1896.4987518000005,1896.4828887,None,1.0,,,,,,,nback57,1.0,2024-01-16_11h20.49.745,untitled,2023.2.3,60.00567653711023,2024-01-16 11h38.06.823428 -0500,
,"[0.64, 0.4]",None,,,,,,,,,0.0,1.0,1.0,1.0,1896.4987518000005,,,,,,,,,,,,,,,,,,,,,,,,,,,,,,,,,,,,,,,,,,,,,,,,,,,,,,,,,,,,,,,,,,1896.4838132,1896.4987518000005,1896.4987518000005,1896.9986366,1896.9986366,1899.4984389,1899.4984389,1899.4827476999997,None,1.0,,,,,,,nback57,1.0,2024-01-16_11h20.49.745,untitled,2023.2.3,60.00567653711023,2024-01-16 11h38.06.823428 -0500,
,"[-0.3, 0]",None,,,,,,,,,0.0,2.0,2.0,2.0,1899.4984389,,,,,,,,,,,,,,,,,,,,,,,,,,,,,,,,,,,,,,,,,,,,,,,,,,,,,,,,,,,,,,,,,,1899.4834891,1899.4984389,1899.4984389,1899.9981739,1899.9981739,1902.4986162,1902.4986162,1902.4829102,None,1.0,,,,,,,nback57,1.0,2024-01-16_11h20.49.745,untitled,2023.2.3,60.00567653711023,2024-01-16 11h38.06.823428 -0500,
,"[0.2, -0.1]",None,,,,,,,,,0.0,3.0,3.0,3.0,1902.4986162,,,,,,,,,,,,,,,,,,,,,,,,,,,,,,,,,,,,,,,,,,,,,,,,,,,,,,,,,,,,,,,,,,1902.4837022,1902.4986162,1902.4986162,1902.9987052,1902.9987052,1905.4983789000005,1905.4983789000005,1905.482442,None,1.0,,,,,,,nback57,1.0,2024-01-16_11h20.49.745,untitled,2023.2.3,60.00567653711023,2024-01-16 11h38.06.823428 -0500,
,"[0, 0.2]",None,,,,,,,,,0.0,4.0,4.0,4.0,1905.4983789000005,,,,,,,,,,,,,,,,,,,,,,,,,,,,,,,,,,,,,,,,,,,,,,,,,,,,,,,,,,,,,,,,,,1905.4830139,1905.4983789000005,1905.4983789000005,1905.9984149,1905.9984149,1908.4984723,1908.4984723,1908.4826546,None,1.0,,,,,,,nback57,1.0,2024-01-16_11h20.49.745,untitled,2023.2.3,60.00567653711023,2024-01-16 11h38.06.823428 -0500,
,"[0.2, -0.1]",space,,,,,,,,,0.0,5.0,5.0,5.0,1908.4984723,,,,,,,,,,,,,,,,,,,,,,,,,,,,,,,,,,,,,,,,,,,,,,,,,,,,,,,,,,,,,,,,,,1908.4833332000003,1908.4984723,1908.4984723,1908.9984721,1908.9984721,1911.4983686,1911.4983686,1911.4824988999997,space,1.0,0.9651811000003364,None,,,,,nback57,1.0,2024-01-16_11h20.49.745,untitled,2023.2.3,60.00567653711023,2024-01-16 11h38.06.823428 -0500,
,"[0, -0.2]",None,,,,,,,,,0.0,6.0,6.0,6.0,1911.4983686,,,,,,,,,,,,,,,,,,,,,,,,,,,,,,,,,,,,,,,,,,,,,,,,,,,,,,,,,,,,,,,,,,1911.4833892,1911.4983686,1911.4983686,1911.9981075,1911.9981075,1914.4982479,1914.4982479,1914.4821709000005,None,1.0,,,,,,,nback57,1.0,2024-01-16_11h20.49.745,untitled,2023.2.3,60.00567653711023,2024-01-16 11h38.06.823428 -0500,
,"[0.64, -0.4]",None,,,,,,,,,0.0,7.0,7.0,7.0,1914.4982479,,,,,,,,,,,,,,,,,,,,,,,,,,,,,,,,,,,,,,,,,,,,,,,,,,,,,,,,,,,,,,,,,,1914.4827276,1914.4982479,1914.4982479,1914.9981775,1914.9981775,1917.49825,1917.49825,1917.4828474,None,1.0,,,,,,,nback57,1.0,2024-01-16_11h20.49.745,untitled,2023.2.3,60.00567653711023,2024-01-16 11h38.06.823428 -0500,
,"[0.3, 0]",None,,,,,,,,,0.0,8.0,8.0,8.0,1917.49825,,,,,,,,,,,,,,,,,,,,,,,,,,,,,,,,,,,,,,,,,,,,,,,,,,,,,,,,,,,,,,,,,,1917.4836926000005,1917.49825,1917.49825,1917.9981432,1917.9981432,1920.4980556,1920.4980556,1920.4823409999997,None,1.0,,,,,,,nback57,1.0,2024-01-16_11h20.49.745,untitled,2023.2.3,60.00567653711023,2024-01-16 11h38.06.823428 -0500,
,"[0.64, -0.4]",space,,,,,,,,,0.0,9.0,9.0,9.0,1920.4980556,,,,,,,,,,,,,,,,,,,,,,,,,,,,,,,,,,,,,,,,,,,,,,,,,,,,,,,,,,,,,,,,,,1920.4829213,1920.4980556,1920.4980556,1920.9980199,1920.9980199,1923.4982282999997,1923.4982282999997,1923.4825731,space,1.0,0.4547498000001724,None,,,,,nback57,1.0,2024-01-16_11h20.49.745,untitled,2023.2.3,60.00567653711023,2024-01-16 11h38.06.823428 -0500,
,"[-0.64, 0.4]",None,,,,,,,,,0.0,10.0,10.0,10.0,1923.4982282999997,,,,,,,,,,,,,,,,,,,,,,,,,,,,,,,,,,,,,,,,,,,,,,,,,,,,,,,,,,,,,,,,,,1923.4835164,1923.4982282999997,1923.4982282999997,1923.9981467,1923.9981467,1926.4981528000003,1926.4981528000003,1926.4821598000003,None,1.0,,,,,,,nback57,1.0,2024-01-16_11h20.49.745,untitled,2023.2.3,60.00567653711023,2024-01-16 11h38.06.823428 -0500,
,"[0.2, 0.1]",None,,,,,,,,,0.0,11.0,11.0,11.0,1926.4981528000003,,,,,,,,,,,,,,,,,,,,,,,,,,,,,,,,,,,,,,,,,,,,,,,,,,,,,,,,,,,,,,,,,,1926.4828084,1926.4981528000003,1926.4981528000003,1926.9981987999995,1926.9981987999995,1929.4980935,1929.4980935,1929.4822753000003,None,1.0,,,,,,,nback57,1.0,2024-01-16_11h20.49.745,untitled,2023.2.3,60.00567653711023,2024-01-16 11h38.06.823428 -0500,
,"[0.3, 0]",None,,,,,,,,,0.0,12.0,12.0,12.0,1929.4980935,,,,,,,,,,,,,,,,,,,,,,,,,,,,,,,,,,,,,,,,,,,,,,,,,,,,,,,,,,,,,,,,,,1929.4829463,1929.4980935,1929.4980935,1929.9980296,1929.9980296,1932.4979269,1932.4979269,1932.4820349,None,1.0,,,,,,,nback57,1.0,2024-01-16_11h20.49.745,untitled,2023.2.3,60.00567653711023,2024-01-16 11h38.06.823428 -0500,
,"[0.2, 0.1]",space,,,,,,,,,0.0,13.0,13.0,13.0,1932.4979269,,,,,,,,,,,,,,,,,,,,,,,,,,,,,,,,,,,,,,,,,,,,,,,,,,,,,,,,,,,,,,,,,,1932.4826800999997,1932.4979269,1932.4979269,1932.9979458000005,1932.9979458000005,1935.4980593999996,1935.4980593999996,1935.4823996,space,1.0,0.3553391000004922,None,,,,,nback57,1.0,2024-01-16_11h20.49.745,untitled,2023.2.3,60.00567653711023,2024-01-16 11h38.06.823428 -0500,
,"[-0.3, 0]",None,,,,,,,,,0.0,14.0,14.0,14.0,1935.4980593999996,,,,,,,,,,,,,,,,,,,,,,,,,,,,,,,,,,,,,,,,,,,,,,,,,,,,,,,,,,,,,,,,,,1935.4834645999997,1935.4980593999996,1935.4980593999996,1935.9979423,1935.9979423,1938.4978396,1938.4978396,1938.4820865999995,None,1.0,,,,,,,nback57,1.0,2024-01-16_11h20.49.745,untitled,2023.2.3,60.00567653711023,2024-01-16 11h38.06.823428 -0500,
,"[0, 0.2]",None,,,,,,,,,0.0,15.0,15.0,15.0,1938.4978396,,,,,,,,,,,,,,,,,,,,,,,,,,,,,,,,,,,,,,,,,,,,,,,,,,,,,,,,,,,,,,,,,,1938.4828284,1938.4978396,1938.4978396,1938.9979542,1938.9979542,1941.4978191999996,1941.4978191999996,1941.4821224,None,1.0,,,,,,,nback57,1.0,2024-01-16_11h20.49.745,untitled,2023.2.3,60.00567653711023,2024-01-16 11h38.06.823428 -0500,
,"[-0.3, 0]",space,,,,,,,,,0.0,16.0,16.0,16.0,1941.4978191999996,,,,,,,,,,,,,,,,,,,,,,,,,,,,,,,,,,,,,,,,,,,,,,,,,,,,,,,,,,,,,,,,,,1941.4828093,1941.4978191999996,1941.4978191999996,1941.9979413999995,1941.9979413999995,1944.4978105999996,1944.4978105999996,1944.4821239,space,1.0,0.832174500000292,None,,,,,nback57,1.0,2024-01-16_11h20.49.745,untitled,2023.2.3,60.00567653711023,2024-01-16 11h38.06.823428 -0500,
,"[-0.64, -0.4]",None,,,,,,,,,0.0,17.0,17.0,17.0,1944.4978105999996,,,,,,,,,,,,,,,,,,,,,,,,,,,,,,,,,,,,,,,,,,,,,,,,,,,,,,,,,,,,,,,,,,1944.48297,1944.4978105999996,1944.4978105999996,1944.9978036,1944.9978036,1947.4976338,1947.4976338,1947.4819455,None,1.0,,,,,,,nback57,1.0,2024-01-16_11h20.49.745,untitled,2023.2.3,60.00567653711023,2024-01-16 11h38.06.823428 -0500,
,"[-0.2, -0.1]",None,,,,,,,,,0.0,18.0,18.0,18.0,1947.4976338,,,,,,,,,,,,,,,,,,,,,,,,,,,,,,,,,,,,,,,,,,,,,,,,,,,,,,,,,,,,,,,,,,1947.4826646999995,1947.4976338,1947.4976338,1947.9978449,1947.9978449,1950.4975631,1950.4975631,1950.4823353,None,1.0,,,,,,,nback57,1.0,2024-01-16_11h20.49.745,untitled,2023.2.3,60.00567653711023,2024-01-16 11h38.06.823428 -0500,
,"[0.2, -0.1]",None,,,,,,,,,0.0,19.0,19.0,19.0,1950.4975631,,,,,,,,,,,,,,,,,,,,,,,,,,,,,,,,,,,,,,,,,,,,,,,,,,,,,,,,,,,,,,,,,,1950.4831469,1950.4975631,1950.4975631,1950.9975715999997,1950.9975715999997,1953.4975902,1953.4975902,1953.4816455,None,1.0,,,,,,,nback57,1.0,2024-01-16_11h20.49.745,untitled,2023.2.3,60.00567653711023,2024-01-16 11h38.06.823428 -0500,
,"[0.2, -0.1]",None,,,,,,,,,0.0,20.0,20.0,20.0,1953.4975902,,,,,,,,,,,,,,,,,,,,,,,,,,,,,,,,,,,,,,,,,,,,,,,,,,,,,,,,,,,,,,,,,,1953.4822426,1953.4975902,1953.4975902,1953.9977054,1953.9977054,1956.4974230000005,1956.4974230000005,1956.4816681,None,1.0,,,,,,,nback57,1.0,2024-01-16_11h20.49.745,untitled,2023.2.3,60.00567653711023,2024-01-16 11h38.06.823428 -0500,
,"[-0.64, 0.4]",None,,,,,,,,,0.0,21.0,21.0,21.0,1956.4974230000005,,,,,,,,,,,,,,,,,,,,,,,,,,,,,,,,,,,,,,,,,,,,,,,,,,,,,,,,,,,,,,,,,,1956.4822373,1956.4974230000005,1956.4974230000005,1956.9974996999997,1956.9974996999997,1959.4975322999996,1959.4975322999996,1959.4816854999997,None,1.0,,,,,,,nback57,1.0,2024-01-16_11h20.49.745,untitled,2023.2.3,60.00567653711023,2024-01-16 11h38.06.823428 -0500,
,"[0, 0.2]",None,,,,,,,,,0.0,22.0,22.0,22.0,1959.4975322999996,,,,,,,,,,,,,,,,,,,,,,,,,,,,,,,,,,,,,,,,,,,,,,,,,,,,,,,,,,,,,,,,,,1959.4823308,1959.4975322999996,1959.4975322999996,1959.9975721999997,1959.9975721999997,1962.4974139,1962.4974139,1962.481706,None,1.0,,,,,,,nback57,1.0,2024-01-16_11h20.49.745,untitled,2023.2.3,60.00567653711023,2024-01-16 11h38.06.823428 -0500,
,"[0.64, -0.4]",None,,,,,,,,,0.0,23.0,23.0,23.0,1962.4974139,,,,,,,,,,,,,,,,,,,,,,,,,,,,,,,,,,,,,,,,,,,,,,,,,,,,,,,,,,,,,,,,,,1962.4824904,1962.4974139,1962.4974139,1962.9973866999997,1962.9973866999997,1965.49738,1965.49738,1965.481622,None,1.0,,,,,,,nback57,1.0,2024-01-16_11h20.49.745,untitled,2023.2.3,60.00567653711023,2024-01-16 11h38.06.823428 -0500,
,"[0, 0.2]",space,,,,,,,,,0.0,24.0,24.0,24.0,1965.49738,,,,,,,,,,,,,,,,,,,,,,,,,,,,,,,,,,,,,,,,,,,,,,,,,,,,,,,,,,,,,,,,,,1965.4822928,1965.49738,1965.49738,1965.9975045999995,1965.9975045999995,1968.4972432,1968.4972432,1968.4815009,space,1.0,0.3802285000001575,None,,,,,nback57,1.0,2024-01-16_11h20.49.745,untitled,2023.2.3,60.00567653711023,2024-01-16 11h38.06.823428 -0500,
,"[-0.2, 0.1]",None,,,,,,,,,0.0,25.0,25.0,25.0,1968.4972432,,,,,,,,,,,,,,,,,,,,,,,,,,,,,,,,,,,,,,,,,,,,,,,,,,,,,,,,,,,,,,,,,,1968.4822258,1968.4972432,1968.4972432,1968.9972427,1968.9972427,1971.4974687,1971.4974687,1971.4818088,None,1.0,,,,,,,nback57,1.0,2024-01-16_11h20.49.745,untitled,2023.2.3,60.00567653711023,2024-01-16 11h38.06.823428 -0500,
,"[0.3, 0]",None,,,,,,,,,0.0,26.0,26.0,26.0,1971.4974687,,,,,,,,,,,,,,,,,,,,,,,,,,,,,,,,,,,,,,,,,,,,,,,,,,,,,,,,,,,,,,,,,,1971.4826139,1971.4974687,1971.4974687,1971.9971163999996,1971.9971163999996,1974.4972591,1974.4972591,1974.4812476,None,1.0,,,,,,,nback57,1.0,2024-01-16_11h20.49.745,untitled,2023.2.3,60.00567653711023,2024-01-16 11h38.06.823428 -0500,
,"[-0.2, 0.1]",space,,,,,,,,,0.0,27.0,27.0,27.0,1974.4972591,,,,,,,,,,,,,,,,,,,,,,,,,,,,,,,,,,,,,,,,,,,,,,,,,,,,,,,,,,,,,,,,,,1974.4819061000003,1974.4972591,1974.4972591,1974.9972307000005,1974.9972307000005,1977.4971533000005,1977.4971533000005,1977.4812078,space,1.0,0.9214242999996712,None,,,,,nback57,1.0,2024-01-16_11h20.49.745,untitled,2023.2.3,60.00567653711023,2024-01-16 11h38.06.823428 -0500,
,"[-0.2, 0.1]",None,,,,,,,,,0.0,28.0,28.0,28.0,1977.4971533000005,,,,,,,,,,,,,,,,,,,,,,,,,,,,,,,,,,,,,,,,,,,,,,,,,,,,,,,,,,,,,,,,,,1977.4819194,1977.4971533000005,1977.4971533000005,1977.9971349,1977.9971349,1980.4971046999997,1980.4971046999997,1980.4812872,space,0.0,0.6497605999993539,None,,,,,nback57,1.0,2024-01-16_11h20.49.745,untitled,2023.2.3,60.00567653711023,2024-01-16 11h38.06.823428 -0500,
,"[0.2, 0.1]",None,,,,,,,,,0.0,29.0,29.0,29.0,1980.4971046999997,,,,,,,,,,,,,,,,,,,,,,,,,,,,,,,,,,,,,,,,,,,,,,,,,,,,,,,,,,,,,,,,,,1980.4820684,1980.4971046999997,1980.4971046999997,1980.9973558,1980.9973558,1983.4969896,1983.4969896,1983.481004,None,1.0,,,,,,,nback57,1.0,2024-01-16_11h20.49.745,untitled,2023.2.3,60.00567653711023,2024-01-16 11h38.06.823428 -0500,
,"[-0.64, -0.4]",None,,,,,,,,,0.0,30.0,30.0,30.0,1983.4969896,,,,,,,,,,,,,,,,,,,,,,,,,,,,,,,,,,,,,,,,,,,,,,,,,,,,,,,,,,,,,,,,,,1983.4815410999995,1983.4969896,1983.4969896,1983.9970124999995,1983.9970124999995,1986.4970007,1986.4970007,1986.4814421999995,None,1.0,,,,,,,nback57,1.0,2024-01-16_11h20.49.745,untitled,2023.2.3,60.00567653711023,2024-01-16 11h38.06.823428 -0500,
,"[0, -0.2]",None,,,,,,,,,0.0,31.0,31.0,31.0,1986.4970007,,,,,,,,,,,,,,,,,,,,,,,,,,,,,,,,,,,,,,,,,,,,,,,,,,,,,,,,,,,,,,,,,,1986.4820141,1986.4970007,1986.4970007,1986.997081,1986.997081,1989.4969260000005,1989.4969260000005,1989.4813549999997,None,1.0,,,,,,,nback57,1.0,2024-01-16_11h20.49.745,untitled,2023.2.3,60.00567653711023,2024-01-16 11h38.06.823428 -0500,
,"[-0.64, -0.4]",space,,,,,,,,,0.0,32.0,32.0,32.0,1989.4969260000005,,,,,,,,,,,,,,,,,,,,,,,,,,,,,,,,,,,,,,,,,,,,,,,,,,,,,,,,,,,,,,,,,,1989.4819716,1989.4969260000005,1989.4969260000005,1989.9967839,1989.9967839,1992.4970442,1992.4970442,1992.4811597000005,None,0.0,,,,,,,nback57,1.0,2024-01-16_11h20.49.745,untitled,2023.2.3,60.00567653711023,2024-01-16 11h38.06.823428 -0500,
,"[0.64, 0.4]",None,,,,,,,,,0.0,33.0,33.0,33.0,1992.4970442,,,,,,,,,,,,,,,,,,,,,,,,,,,,,,,,,,,,,,,,,,,,,,,,,,,,,,,,,,,,,,,,,,1992.4817505999995,1992.4970442,1992.4970442,1992.9969352000005,1992.9969352000005,1995.4967364,1995.4967364,1995.4809371,None,1.0,,,,,,,nback57,1.0,2024-01-16_11h20.49.745,untitled,2023.2.3,60.00567653711023,2024-01-16 11h38.06.823428 -0500,
,"[-0.3, 0]",None,,,,,,,,,0.0,34.0,34.0,34.0,1995.4967364,,,,,,,,,,,,,,,,,,,,,,,,,,,,,,,,,,,,,,,,,,,,,,,,,,,,,,,,,,,,,,,,,,1995.4816255,1995.4967364,1995.4967364,1995.996709,1995.996709,1998.4969696000005,1998.4969696000005,1998.4810553,None,1.0,,,,,,,nback57,1.0,2024-01-16_11h20.49.745,untitled,2023.2.3,60.00567653711023,2024-01-16 11h38.06.823428 -0500,
,"[0.3, 0]",None,,,,,,,,,0.0,35.0,35.0,35.0,1998.4969696000005,,,,,,,,,,,,,,,,,,,,,,,,,,,,,,,,,,,,,,,,,,,,,,,,,,,,,,,,,,,,,,,,,,1998.4817057999996,1998.4969696000005,1998.4969696000005,1998.9969105,1998.9969105,2001.4966317000003,2001.4966317000003,2001.4810938,None,1.0,,,,,,,nback57,1.0,2024-01-16_11h20.49.745,untitled,2023.2.3,60.00567653711023,2024-01-16 11h38.06.823428 -0500,
,"[-0.3, 0]",space,,,,,,,,,0.0,36.0,36.0,36.0,2001.4966317000003,,,,,,,,,,,,,,,,,,,,,,,,,,,,,,,,,,,,,,,,,,,,,,,,,,,,,,,,,,,,,,,,,,2001.481767,2001.4966317000003,2001.4966317000003,2001.9969723,2001.9969723,2004.4967223,2004.4967223,2004.4808413,space,1.0,0.4682075000000623,None,,,,,nback57,1.0,2024-01-16_11h20.49.745,untitled,2023.2.3,60.00567653711023,2024-01-16 11h38.06.823428 -0500,
,"[0, -0.2]",None,,,,,,,,,0.0,37.0,37.0,37.0,2004.4967223,,,,,,,,,,,,,,,,,,,,,,,,,,,,,,,,,,,,,,,,,,,,,,,,,,,,,,,,,,,,,,,,,,2004.4815536,2004.4967223,2004.4967223,2004.99677,2004.99677,2007.4965588,2007.4965588,2007.4806727,None,1.0,,,,,,,nback57,1.0,2024-01-16_11h20.49.745,untitled,2023.2.3,60.00567653711023,2024-01-16 11h38.06.823428 -0500,
,"[0.3, 0]",None,,,,,,,,,0.0,38.0,38.0,38.0,2007.4965588,,,,,,,,,,,,,,,,,,,,,,,,,,,,,,,,,,,,,,,,,,,,,,,,,,,,,,,,,,,,,,,,,,2007.4812644,2007.4965588,2007.4965588,2007.9965398,2007.9965398,2010.4966088999995,2010.4966088999995,2010.4805793,None,1.0,,,,,,,nback57,1.0,2024-01-16_11h20.49.745,untitled,2023.2.3,60.00567653711023,2024-01-16 11h38.06.823428 -0500,
,"[0.2, 0.1]",None,,,,,,,,,0.0,39.0,39.0,39.0,2010.4966088999995,,,,,,,,,,,,,,,,,,,,,,,,,,,,,,,,,,,,,,,,,,,,,,,,,,,,,,,,,,,,,,,,,,2010.4811619,2010.4966088999995,2010.4966088999995,2010.9965557,2010.9965557,2013.4965071,2013.4965071,2013.4810837,None,1.0,,,,,,,nback57,1.0,2024-01-16_11h20.49.745,untitled,2023.2.3,60.00567653711023,2024-01-16 11h38.06.823428 -0500,
,,,,,,,,,,,,,,,,,,,,,,,,,,,,,,,,,,,,,,,,,,,,,,,,,,,,,,,,,,,,,,,,,,,,,,,,,,,,,,,,,,,,,,,,,,,,,2013.48153,2013.4965071,2016.4963808,2016.4805476,,,,,,,,
