square,location,corrAns,trials_0.thisRepN,trials_0.thisTrialN,trials_0.thisN,trials_0.thisIndex,trials_1.thisRepN,trials_1.thisTrialN,trials_1.thisN,trials_1.thisIndex,trials_2.thisRepN,trials_2.thisTrialN,trials_2.thisN,trials_2.thisIndex,thisRow.t,notes,Instructions.started,instructions.started,key_resp.started,inst_sq11.started,Instructions.stopped,key_resp.keys,key_resp.rt,key_resp.duration,All.started,sq_1.started,sq_2.started,sq_3.started,sq_4.started,sq_5.started,sq_6.started,sq_7.started,sq_8.started,sq_9.started,sq_10.started,sq_11.started,sq_12.started,All.stopped,Fixation.started,fixation_3.started,fixation_3.stopped,Fixation.stopped,N_back_0_Trial.started,target_square_0.started,response_0.started,fixation_0.started,target_square_0.stopped,fixation_0.stopped,response_0.stopped,N_back_0_Trial.stopped,response_0.keys,response_0.corr,response_0.rt,response_0.duration,Instructions_1.started,instructions_1.started,key_resp_1.started,Instructions_1.stopped,key_resp_1.keys,key_resp_1.rt,key_resp_1.duration,N_back_1_Trial.started,target_square_1.started,response_1.started,target_square_1.stopped,fixation_1.started,fixation_1.stopped,response_1.stopped,N_back_1_Trial.stopped,response_1.keys,response_1.corr,response_1.rt,response_1.duration,Instructions_2.started,instructions_2.started,key_resp_2.started,Instructions_2.stopped,key_resp_2.keys,key_resp_2.rt,key_resp_2.duration,N_back_2_trials.started,target_square_2.started,response_2.started,target_square_2.stopped,fixation_2.started,fixation_2.stopped,response_2.stopped,N_back_2_trials.stopped,response_2.keys,response_2.corr,response_2.rt,response_2.duration,End.started,thank_you.started,thank_you.stopped,End.stopped,participant,session,date,expName,psychopyVersion,frameRate,expStart,
,,,,,,,,,,,,,,,,,0.0013911999994888902,0.003997300002083648,0.003997300002083648,0.003997300002083648,27.5780565999994,space,27.56925549999869,None,,,,,,,,,,,,,,,,,,,,,,,,,,,,,,,,,,,,,,,,,,,,,,,,,,,,,,,,,,,,,,,,,,,,,,,,,nback23,001,2023-12-12_17h51.46.199,untitled,2023.2.3,60.03856877583442,2023-12-12 18h35.23.882538 -0500,
6,"[-0.3, 0]",None,0,0,0,0,,,,,,,,,29.592600799998763,,,,,,,,,,27.578102899999067,27.592804399999295,27.592804399999295,27.592804399999295,27.592804399999295,27.592804399999295,27.592804399999295,27.592804399999295,27.592804399999295,27.592804399999295,27.592804399999295,27.592804399999295,27.592804399999295,28.576564800001506,28.57658110000193,28.592715400001907,29.592600799998763,29.577122900001996,29.59060959999988,29.592600799998763,29.592600799998763,30.07620329999918,30.092819000001327,32.576177999999345,32.59293239999897,32.577297499999986,None,1,,,,,,,,,,,,,,,,,,,,,,,,,,,,,,,,,,,,,,,,,,,,,nback23,001,2023-12-12_17h51.46.199,untitled,2023.2.3,60.03856877583442,2023-12-12 18h35.23.882538 -0500,
10,"[0, -0.2]",None,0,1,1,1,,,,,,,,,32.59293239999897,,,,,,,,,,,,,,,,,,,,,,,,,,,,32.578357599999435,32.59293239999897,32.59293239999897,33.07607110000026,33.09281370000099,35.57605700000204,35.59283789999972,35.57715610000014,None,1,,,,,,,,,,,,,,,,,,,,,,,,,,,,,,,,,,,,,,,,,,,,,nback23,001,2023-12-12_17h51.46.199,untitled,2023.2.3,60.03856877583442,2023-12-12 18h35.23.882538 -0500,
11,"[-0.64, -0.4]",space,0,2,2,2,,,,,,,,,35.59283789999972,,,,,,,,,,,,,,,,,,,,,,,,,,,,35.57797589999973,35.59283789999972,35.59283789999972,36.076084100001026,36.09265310000046,38.57599349999873,38.5924672000001,38.57705260000148,space,1,0.4286413000008906,None,,,,,,,,,,,,,,,,,,,,,,,,,,,,,,,,,,,,,,,,,,,nback23,001,2023-12-12_17h51.46.199,untitled,2023.2.3,60.03856877583442,2023-12-12 18h35.23.882538 -0500,
12,"[0.64, -0.4]",None,0,3,3,3,,,,,,,,,38.5924672000001,,,,,,,,,,,,,,,,,,,,,,,,,,,,38.578089999999065,38.5924672000001,38.5924672000001,39.07608980000077,39.09276700000191,41.575938800000586,41.59271689999878,41.57694679999986,None,1,,,,,,,,,,,,,,,,,,,,,,,,,,,,,,,,,,,,,,,,,,,,,nback23,001,2023-12-12_17h51.46.199,untitled,2023.2.3,60.03856877583442,2023-12-12 18h35.23.882538 -0500,
1,"[-0.64, 0.4]",None,0,4,4,4,,,,,,,,,41.59271689999878,,,,,,,,,,,,,,,,,,,,,,,,,,,,41.57776889999877,41.59271689999878,41.59271689999878,42.075849600001675,42.09269250000216,44.57593590000033,44.592591799999354,44.57680280000204,None,1,,,,,,,,,,,,,,,,,,,,,,,,,,,,,,,,,,,,,,,,,,,,,nback23,001,2023-12-12_17h51.46.199,untitled,2023.2.3,60.03856877583442,2023-12-12 18h35.23.882538 -0500,
1,"[-0.64, 0.4]",None,0,5,5,5,,,,,,,,,44.592591799999354,,,,,,,,,,,,,,,,,,,,,,,,,,,,44.5775579000001,44.592591799999354,44.592591799999354,45.07581990000108,45.09276410000166,47.57589110000117,47.59252120000019,47.5768433000012,None,1,,,,,,,,,,,,,,,,,,,,,,,,,,,,,,,,,,,,,,,,,,,,,nback23,001,2023-12-12_17h51.46.199,untitled,2023.2.3,60.03856877583442,2023-12-12 18h35.23.882538 -0500,
4,"[-0.2, 0.1]",None,0,6,6,6,,,,,,,,,47.59252120000019,,,,,,,,,,,,,,,,,,,,,,,,,,,,47.577668699999776,47.59252120000019,47.59252120000019,48.07595660000152,48.09256540000206,50.575786600002175,50.59234170000127,50.57681660000162,None,1,,,,,,,,,,,,,,,,,,,,,,,,,,,,,,,,,,,,,,,,,,,,,nback23,001,2023-12-12_17h51.46.199,untitled,2023.2.3,60.03856877583442,2023-12-12 18h35.23.882538 -0500,
5,"[0.2, 0.1]",None,0,7,7,7,,,,,,,,,50.59234170000127,,,,,,,,,,,,,,,,,,,,,,,,,,,,50.57755520000137,50.59234170000127,50.59234170000127,51.075544700001046,51.09243150000111,53.575662600000214,53.59249660000205,53.576532700000826,None,1,,,,,,,,,,,,,,,,,,,,,,,,,,,,,,,,,,,,,,,,,,,,,nback23,001,2023-12-12_17h51.46.199,untitled,2023.2.3,60.03856877583442,2023-12-12 18h35.23.882538 -0500,
11,"[-0.64, -0.4]",space,0,8,8,8,,,,,,,,,53.59249660000205,,,,,,,,,,,,,,,,,,,,,,,,,,,,53.57734700000219,53.59249660000205,53.59249660000205,54.07577020000099,54.092266700001346,56.575697299998865,56.592321700001776,56.57657780000227,space,1,0.38519369999994524,None,,,,,,,,,,,,,,,,,,,,,,,,,,,,,,,,,,,,,,,,,,,nback23,001,2023-12-12_17h51.46.199,untitled,2023.2.3,60.03856877583442,2023-12-12 18h35.23.882538 -0500,
9,"[0.2, -0.1]",None,0,9,9,9,,,,,,,,,56.592321700001776,,,,,,,,,,,,,,,,,,,,,,,,,,,,56.57733889999872,56.592321700001776,56.592321700001776,57.075668600002246,57.09234529999958,59.575671700000385,59.59246490000078,59.57667969999966,None,1,,,,,,,,,,,,,,,,,,,,,,,,,,,,,,,,,,,,,,,,,,,,,nback23,001,2023-12-12_17h51.46.199,untitled,2023.2.3,60.03856877583442,2023-12-12 18h35.23.882538 -0500,
8,"[-0.2, -0.1]",None,0,10,10,10,,,,,,,,,59.59246490000078,,,,,,,,,,,,,,,,,,,,,,,,,,,,59.577496099998825,59.59246490000078,59.59246490000078,60.075612399999955,60.092292299999826,62.57561050000004,62.592303400000674,62.57660659999965,None,1,,,,,,,,,,,,,,,,,,,,,,,,,,,,,,,,,,,,,,,,,,,,,nback23,001,2023-12-12_17h51.46.199,untitled,2023.2.3,60.03856877583442,2023-12-12 18h35.23.882538 -0500,
9,"[0.2, -0.1]",None,0,11,11,11,,,,,,,,,62.592303400000674,,,,,,,,,,,,,,,,,,,,,,,,,,,,62.577421900001355,62.592303400000674,62.592303400000674,63.07534200000009,63.092269799999485,65.57551950000197,65.59205870000005,65.57640700000047,None,1,,,,,,,,,,,,,,,,,,,,,,,,,,,,,,,,,,,,,,,,,,,,,nback23,001,2023-12-12_17h51.46.199,untitled,2023.2.3,60.03856877583442,2023-12-12 18h35.23.882538 -0500,
6,"[-0.3, 0]",None,0,12,12,12,,,,,,,,,65.59205870000005,,,,,,,,,,,,,,,,,,,,,,,,,,,,65.57729390000168,65.59205870000005,65.59205870000005,66.09204790000149,66.09204790000149,68.5922043999999,68.5922043999999,68.57627919999868,None,1,,,,,,,,,,,,,,,,,,,,,,,,,,,,,,,,,,,,,,,,,,,,,nback23,001,2023-12-12_17h51.46.199,untitled,2023.2.3,60.03856877583442,2023-12-12 18h35.23.882538 -0500,
9,"[0.2, -0.1]",None,0,13,13,13,,,,,,,,,68.5922043999999,,,,,,,,,,,,,,,,,,,,,,,,,,,,68.57693819999986,68.5922043999999,68.5922043999999,69.09210620000158,69.09210620000158,71.59196670000165,71.59196670000165,71.57624950000172,None,1,,,,,,,,,,,,,,,,,,,,,,,,,,,,,,,,,,,,,,,,,,,,,nback23,001,2023-12-12_17h51.46.199,untitled,2023.2.3,60.03856877583442,2023-12-12 18h35.23.882538 -0500,
7,"[0.3, 0]",None,0,14,14,14,,,,,,,,,71.59196670000165,,,,,,,,,,,,,,,,,,,,,,,,,,,,71.57692360000146,71.59196670000165,71.59196670000165,72.07541770000171,72.09204529999988,74.57541109999875,74.5922066000021,74.57642699999997,None,1,,,,,,,,,,,,,,,,,,,,,,,,,,,,,,,,,,,,,,,,,,,,,nback23,001,2023-12-12_17h51.46.199,untitled,2023.2.3,60.03856877583442,2023-12-12 18h35.23.882538 -0500,
2,"[0.64, 0.4]",None,0,15,15,15,,,,,,,,,74.5922066000021,,,,,,,,,,,,,,,,,,,,,,,,,,,,74.57724800000142,74.5922066000021,74.5922066000021,75.09199019999869,75.09199019999869,77.59215730000142,77.59215730000142,77.57625929999995,None,1,,,,,,,,,,,,,,,,,,,,,,,,,,,,,,,,,,,,,,,,,,,,,nback23,001,2023-12-12_17h51.46.199,untitled,2023.2.3,60.03856877583442,2023-12-12 18h35.23.882538 -0500,
2,"[0.64, 0.4]",None,0,16,16,16,,,,,,,,,77.59215730000142,,,,,,,,,,,,,,,,,,,,,,,,,,,,77.5770780999992,77.59215730000142,77.59215730000142,78.09197209999911,78.09197209999911,80.59198209999886,80.59198209999886,80.57602970000153,None,1,,,,,,,,,,,,,,,,,,,,,,,,,,,,,,,,,,,,,,,,,,,,,nback23,001,2023-12-12_17h51.46.199,untitled,2023.2.3,60.03856877583442,2023-12-12 18h35.23.882538 -0500,
11,"[-0.64, -0.4]",space,0,17,17,17,,,,,,,,,80.59198209999886,,,,,,,,,,,,,,,,,,,,,,,,,,,,80.57674680000127,80.59198209999886,80.59198209999886,81.09206809999887,81.09206809999887,83.59183549999943,83.59183549999943,83.57595439999932,space,1,0.415663299998414,None,,,,,,,,,,,,,,,,,,,,,,,,,,,,,,,,,,,,,,,,,,,nback23,001,2023-12-12_17h51.46.199,untitled,2023.2.3,60.03856877583442,2023-12-12 18h35.23.882538 -0500,
11,"[-0.64, -0.4]",space,0,18,18,18,,,,,,,,,83.59183549999943,,,,,,,,,,,,,,,,,,,,,,,,,,,,83.57661740000185,83.59183549999943,83.59183549999943,84.09179660000154,84.09179660000154,86.59182359999977,86.59182359999977,86.5762993999997,space,1,0.41303749999860884,None,,,,,,,,,,,,,,,,,,,,,,,,,,,,,,,,,,,,,,,,,,,nback23,001,2023-12-12_17h51.46.199,untitled,2023.2.3,60.03856877583442,2023-12-12 18h35.23.882538 -0500,
7,"[0.3, 0]",None,0,19,19,19,,,,,,,,,86.59182359999977,,,,,,,,,,,,,,,,,,,,,,,,,,,,86.57724270000108,86.59182359999977,86.59182359999977,87.09174300000086,87.09174300000086,89.59184060000189,89.59184060000189,89.57610879999993,None,1,,,,,,,,,,,,,,,,,,,,,,,,,,,,,,,,,,,,,,,,,,,,,nback23,001,2023-12-12_17h51.46.199,untitled,2023.2.3,60.03856877583442,2023-12-12 18h35.23.882538 -0500,
3,"[0, 0.2]",None,0,20,20,20,,,,,,,,,89.59184060000189,,,,,,,,,,,,,,,,,,,,,,,,,,,,89.57691799999884,89.59184060000189,89.59184060000189,90.09181810000155,90.09181810000155,92.59185470000011,92.59185470000011,92.57624380000198,None,1,,,,,,,,,,,,,,,,,,,,,,,,,,,,,,,,,,,,,,,,,,,,,nback23,001,2023-12-12_17h51.46.199,untitled,2023.2.3,60.03856877583442,2023-12-12 18h35.23.882538 -0500,
10,"[0, -0.2]",None,0,21,21,21,,,,,,,,,92.59185470000011,,,,,,,,,,,,,,,,,,,,,,,,,,,,92.57704930000182,92.59185470000011,92.59185470000011,93.09178919999977,93.09178919999977,95.59188730000096,95.59188730000096,95.575965,None,1,,,,,,,,,,,,,,,,,,,,,,,,,,,,,,,,,,,,,,,,,,,,,nback23,001,2023-12-12_17h51.46.199,untitled,2023.2.3,60.03856877583442,2023-12-12 18h35.23.882538 -0500,
1,"[-0.64, 0.4]",None,0,22,22,22,,,,,,,,,95.59188730000096,,,,,,,,,,,,,,,,,,,,,,,,,,,,95.57670180000059,95.59188730000096,95.59188730000096,96.09196119999979,96.09196119999979,98.59181460000036,98.59181460000036,98.5760532000022,None,1,,,,,,,,,,,,,,,,,,,,,,,,,,,,,,,,,,,,,,,,,,,,,nback23,001,2023-12-12_17h51.46.199,untitled,2023.2.3,60.03856877583442,2023-12-12 18h35.23.882538 -0500,
2,"[0.64, 0.4]",None,0,23,23,23,,,,,,,,,98.59181460000036,,,,,,,,,,,,,,,,,,,,,,,,,,,,98.5768859000018,98.59181460000036,98.59181460000036,99.09179570000197,99.09179570000197,101.59150959999897,101.59150959999897,101.57593759999872,None,1,,,,,,,,,,,,,,,,,,,,,,,,,,,,,,,,,,,,,,,,,,,,,nback23,001,2023-12-12_17h51.46.199,untitled,2023.2.3,60.03856877583442,2023-12-12 18h35.23.882538 -0500,
6,"[-0.3, 0]",None,0,24,24,24,,,,,,,,,101.59150959999897,,,,,,,,,,,,,,,,,,,,,,,,,,,,101.57674070000212,101.59150959999897,101.59150959999897,102.09163640000043,102.09163640000043,104.59152829999948,104.59152829999948,104.57575780000116,None,1,,,,,,,,,,,,,,,,,,,,,,,,,,,,,,,,,,,,,,,,,,,,,nback23,001,2023-12-12_17h51.46.199,untitled,2023.2.3,60.03856877583442,2023-12-12 18h35.23.882538 -0500,
3,"[0, 0.2]",None,0,25,25,25,,,,,,,,,104.59152829999948,,,,,,,,,,,,,,,,,,,,,,,,,,,,104.57647980000183,104.59152829999948,104.59152829999948,105.09156020000228,105.09156020000228,107.59142229999998,107.59142229999998,107.57563740000114,None,1,,,,,,,,,,,,,,,,,,,,,,,,,,,,,,,,,,,,,,,,,,,,,nback23,001,2023-12-12_17h51.46.199,untitled,2023.2.3,60.03856877583442,2023-12-12 18h35.23.882538 -0500,
11,"[-0.64, -0.4]",space,0,26,26,26,,,,,,,,,107.59142229999998,,,,,,,,,,,,,,,,,,,,,,,,,,,,107.57637780000005,107.59142229999998,107.59142229999998,108.09153630000219,108.09153630000219,110.59138180000082,110.59138180000082,110.57586929999889,space,1,0.38501259999975446,None,,,,,,,,,,,,,,,,,,,,,,,,,,,,,,,,,,,,,,,,,,,nback23,001,2023-12-12_17h51.46.199,untitled,2023.2.3,60.03856877583442,2023-12-12 18h35.23.882538 -0500,
1,"[-0.64, 0.4]",None,0,27,27,27,,,,,,,,,110.59138180000082,,,,,,,,,,,,,,,,,,,,,,,,,,,,110.57687210000222,110.59138180000082,110.59138180000082,111.09152890000041,111.09152890000041,113.59148210000058,113.59148210000058,113.57558269999936,None,1,,,,,,,,,,,,,,,,,,,,,,,,,,,,,,,,,,,,,,,,,,,,,nback23,001,2023-12-12_17h51.46.199,untitled,2023.2.3,60.03856877583442,2023-12-12 18h35.23.882538 -0500,
3,"[0, 0.2]",None,0,28,28,28,,,,,,,,,113.59148210000058,,,,,,,,,,,,,,,,,,,,,,,,,,,,113.57630430000063,113.59148210000058,113.59148210000058,114.09146360000159,114.09146360000159,116.59129079999911,116.59129079999911,116.57534450000094,None,1,,,,,,,,,,,,,,,,,,,,,,,,,,,,,,,,,,,,,,,,,,,,,nback23,001,2023-12-12_17h51.46.199,untitled,2023.2.3,60.03856877583442,2023-12-12 18h35.23.882538 -0500,
9,"[0.2, -0.1]",None,0,29,29,29,,,,,,,,,116.59129079999911,,,,,,,,,,,,,,,,,,,,,,,,,,,,116.57595539999966,116.59129079999911,116.59129079999911,117.0913017999992,117.0913017999992,119.59135909999895,119.59135909999895,119.57563780000055,None,1,,,,,,,,,,,,,,,,,,,,,,,,,,,,,,,,,,,,,,,,,,,,,nback23,001,2023-12-12_17h51.46.199,untitled,2023.2.3,60.03856877583442,2023-12-12 18h35.23.882538 -0500,
8,"[-0.2, -0.1]",None,0,30,30,30,,,,,,,,,119.59135909999895,,,,,,,,,,,,,,,,,,,,,,,,,,,,119.57640140000149,119.59135909999895,119.59135909999895,120.0913862999987,120.0913862999987,122.5910799000012,122.5910799000012,122.57573799999955,None,1,,,,,,,,,,,,,,,,,,,,,,,,,,,,,,,,,,,,,,,,,,,,,nback23,001,2023-12-12_17h51.46.199,untitled,2023.2.3,60.03856877583442,2023-12-12 18h35.23.882538 -0500,
12,"[0.64, -0.4]",None,0,31,31,31,,,,,,,,,122.5910799000012,,,,,,,,,,,,,,,,,,,,,,,,,,,,122.57655390000218,122.5910799000012,122.5910799000012,123.09123299999919,123.09123299999919,125.59109520000129,125.59109520000129,125.57513019999897,None,1,,,,,,,,,,,,,,,,,,,,,,,,,,,,,,,,,,,,,,,,,,,,,nback23,001,2023-12-12_17h51.46.199,untitled,2023.2.3,60.03856877583442,2023-12-12 18h35.23.882538 -0500,
9,"[0.2, -0.1]",None,0,32,32,32,,,,,,,,,125.59109520000129,,,,,,,,,,,,,,,,,,,,,,,,,,,,125.57569010000225,125.59109520000129,125.59109520000129,126.09131640000123,126.09131640000123,128.5910900000017,128.5910900000017,128.57540420000078,None,1,,,,,,,,,,,,,,,,,,,,,,,,,,,,,,,,,,,,,,,,,,,,,nback23,001,2023-12-12_17h51.46.199,untitled,2023.2.3,60.03856877583442,2023-12-12 18h35.23.882538 -0500,
11,"[-0.64, -0.4]",space,0,33,33,33,,,,,,,,,128.5910900000017,,,,,,,,,,,,,,,,,,,,,,,,,,,,128.57614380000086,128.5910900000017,128.5910900000017,129.0911899999992,129.0911899999992,131.59117250000054,131.59117250000054,131.57541689999925,space,1,0.3874069999983476,None,,,,,,,,,,,,,,,,,,,,,,,,,,,,,,,,,,,,,,,,,,,nback23,001,2023-12-12_17h51.46.199,untitled,2023.2.3,60.03856877583442,2023-12-12 18h35.23.882538 -0500,
7,"[0.3, 0]",None,0,34,34,34,,,,,,,,,131.59117250000054,,,,,,,,,,,,,,,,,,,,,,,,,,,,131.57640059999903,131.59117250000054,131.59117250000054,132.0912329999992,132.0912329999992,134.59104790000129,134.59104790000129,134.57545329999994,None,1,,,,,,,,,,,,,,,,,,,,,,,,,,,,,,,,,,,,,,,,,,,,,nback23,001,2023-12-12_17h51.46.199,untitled,2023.2.3,60.03856877583442,2023-12-12 18h35.23.882538 -0500,
11,"[-0.64, -0.4]",space,0,35,35,35,,,,,,,,,134.59104790000129,,,,,,,,,,,,,,,,,,,,,,,,,,,,134.57630939999945,134.59104790000129,134.59104790000129,135.09108259999994,135.09108259999994,137.59090139999898,137.59090139999898,137.57523479999873,space,1,0.403260399998544,None,,,,,,,,,,,,,,,,,,,,,,,,,,,,,,,,,,,,,,,,,,,nback23,001,2023-12-12_17h51.46.199,untitled,2023.2.3,60.03856877583442,2023-12-12 18h35.23.882538 -0500,
4,"[-0.2, 0.1]",None,0,36,36,36,,,,,,,,,137.59090139999898,,,,,,,,,,,,,,,,,,,,,,,,,,,,137.57611890000044,137.59090139999898,137.59090139999898,138.09089460000177,138.09089460000177,140.59094050000203,140.59094050000203,140.575379599999,None,1,,,,,,,,,,,,,,,,,,,,,,,,,,,,,,,,,,,,,,,,,,,,,nback23,001,2023-12-12_17h51.46.199,untitled,2023.2.3,60.03856877583442,2023-12-12 18h35.23.882538 -0500,
5,"[0.2, 0.1]",None,0,37,37,37,,,,,,,,,140.59094050000203,,,,,,,,,,,,,,,,,,,,,,,,,,,,140.5761515000013,140.59094050000203,140.59094050000203,141.09100310000213,141.09100310000213,143.5907115000009,143.5907115000009,143.5750035000019,None,1,,,,,,,,,,,,,,,,,,,,,,,,,,,,,,,,,,,,,,,,,,,,,nback23,001,2023-12-12_17h51.46.199,untitled,2023.2.3,60.03856877583442,2023-12-12 18h35.23.882538 -0500,
6,"[-0.3, 0]",None,0,38,38,38,,,,,,,,,143.5907115000009,,,,,,,,,,,,,,,,,,,,,,,,,,,,143.57562870000038,143.5907115000009,143.5907115000009,144.0908672000005,144.0908672000005,146.59078430000227,146.59078430000227,146.57503949999955,None,1,,,,,,,,,,,,,,,,,,,,,,,,,,,,,,,,,,,,,,,,,,,,,nback23,001,2023-12-12_17h51.46.199,untitled,2023.2.3,60.03856877583442,2023-12-12 18h35.23.882538 -0500,
11,"[-0.64, -0.4]",space,0,39,39,39,,,,,,,,,146.59078430000227,,,,,,,,,,,,,,,,,,,,,,,,,,,,146.5756235000008,146.59078430000227,146.59078430000227,147.0908414000005,147.0908414000005,149.59089759999915,149.59089759999915,149.57536080000136,space,1,0.43686020000313874,None,,,,,,,,,,,,,,,,,,,,,,,,,,,,,,,,,,,,,,,,,,,nback23,001,2023-12-12_17h51.46.199,untitled,2023.2.3,60.03856877583442,2023-12-12 18h35.23.882538 -0500,
,,,,,,,,,,,,,,,,,,,,,,,,,,,,,,,,,,,,,,,,,,,,,,,,,,,,,,,149.5760842999989,149.59089759999915,149.59089759999915,177.82507550000082,space,28.228784899998573,None,,,,,,,,,,,,,,,,,,,,,,,,,,,,,,,,,,,,nback23,001,2023-12-12_17h51.46.199,untitled,2023.2.3,60.03856877583442,2023-12-12 18h35.23.882538 -0500,
10,"[0, -0.2]",None,,,,,0,0,0,0,,,,,178.84008800000083,,,,,,,,,,,,,,,,,,,,,,,,177.8251120999994,177.84020429999873,178.84008800000083,178.82450310000058,,,,,,,,,,,,,,,,,,,,178.83458080000128,178.84008800000083,178.84008800000083,179.34031310000137,179.34031310000137,181.8402055000006,181.8402055000006,181.82444380000015,None,1,,,,,,,,,,,,,,,,,,,,,,,,,,nback23,001,2023-12-12_17h51.46.199,untitled,2023.2.3,60.03856877583442,2023-12-12 18h35.23.882538 -0500,
5,"[0.2, 0.1]",None,,,,,0,1,1,1,,,,,181.8402055000006,,,,,,,,,,,,,,,,,,,,,,,,,,,,,,,,,,,,,,,,,,,,,,,181.82525410000017,181.8402055000006,181.8402055000006,182.3402876,182.3402876,184.8401441999995,184.8401441999995,184.82448619999923,None,1,,,,,,,,,,,,,,,,,,,,,,,,,,nback23,001,2023-12-12_17h51.46.199,untitled,2023.2.3,60.03856877583442,2023-12-12 18h35.23.882538 -0500,
6,"[-0.3, 0]",None,,,,,0,2,2,2,,,,,184.8401441999995,,,,,,,,,,,,,,,,,,,,,,,,,,,,,,,,,,,,,,,,,,,,,,,184.825230800001,184.8401441999995,184.8401441999995,185.34013590000177,185.34013590000177,187.84018060000017,187.84018060000017,187.8242852000003,None,1,,,,,,,,,,,,,,,,,,,,,,,,,,nback23,001,2023-12-12_17h51.46.199,untitled,2023.2.3,60.03856877583442,2023-12-12 18h35.23.882538 -0500,
6,"[-0.3, 0]",space,,,,,0,3,3,3,,,,,187.84018060000017,,,,,,,,,,,,,,,,,,,,,,,,,,,,,,,,,,,,,,,,,,,,,,,187.8250834999999,187.84018060000017,187.84018060000017,188.3400853000021,188.3400853000021,190.84008080000058,190.84008080000058,190.82413240000096,space,1,0.4839968999986013,None,,,,,,,,,,,,,,,,,,,,,,,,nback23,001,2023-12-12_17h51.46.199,untitled,2023.2.3,60.03856877583442,2023-12-12 18h35.23.882538 -0500,
12,"[0.64, -0.4]",None,,,,,0,4,4,4,,,,,190.84008080000058,,,,,,,,,,,,,,,,,,,,,,,,,,,,,,,,,,,,,,,,,,,,,,,190.82516419999956,190.84008080000058,190.84008080000058,191.3401789999989,191.3401789999989,193.84008080000058,193.84008080000058,193.82423650000055,None,1,,,,,,,,,,,,,,,,,,,,,,,,,,nback23,001,2023-12-12_17h51.46.199,untitled,2023.2.3,60.03856877583442,2023-12-12 18h35.23.882538 -0500,
10,"[0, -0.2]",None,,,,,0,5,5,5,,,,,193.84008080000058,,,,,,,,,,,,,,,,,,,,,,,,,,,,,,,,,,,,,,,,,,,,,,,193.824919900002,193.84008080000058,193.84008080000058,194.34005590000015,194.34005590000015,196.84001350000108,196.84001350000108,196.82459219999873,None,1,,,,,,,,,,,,,,,,,,,,,,,,,,nback23,001,2023-12-12_17h51.46.199,untitled,2023.2.3,60.03856877583442,2023-12-12 18h35.23.882538 -0500,
2,"[0.64, 0.4]",None,,,,,0,6,6,6,,,,,196.84001350000108,,,,,,,,,,,,,,,,,,,,,,,,,,,,,,,,,,,,,,,,,,,,,,,196.82541490000222,196.84001350000108,196.84001350000108,197.34005230000184,197.34005230000184,199.83987870000055,199.83987870000055,199.8242950999993,None,1,,,,,,,,,,,,,,,,,,,,,,,,,,nback23,001,2023-12-12_17h51.46.199,untitled,2023.2.3,60.03856877583442,2023-12-12 18h35.23.882538 -0500,
9,"[0.2, -0.1]",None,,,,,0,7,7,7,,,,,199.83987870000055,,,,,,,,,,,,,,,,,,,,,,,,,,,,,,,,,,,,,,,,,,,,,,,199.82502540000132,199.83987870000055,199.83987870000055,200.3399520999992,200.3399520999992,202.8397889000007,202.8397889000007,202.8239582999995,None,1,,,,,,,,,,,,,,,,,,,,,,,,,,nback23,001,2023-12-12_17h51.46.199,untitled,2023.2.3,60.03856877583442,2023-12-12 18h35.23.882538 -0500,
9,"[0.2, -0.1]",space,,,,,0,8,8,8,,,,,202.8397889000007,,,,,,,,,,,,,,,,,,,,,,,,,,,,,,,,,,,,,,,,,,,,,,,202.82458690000203,202.8397889000007,202.8397889000007,203.33989750000183,203.33989750000183,205.83988350000072,205.83988350000072,205.82415129999936,space,1,0.3484113999984402,None,,,,,,,,,,,,,,,,,,,,,,,,nback23,001,2023-12-12_17h51.46.199,untitled,2023.2.3,60.03856877583442,2023-12-12 18h35.23.882538 -0500,
6,"[-0.3, 0]",None,,,,,0,9,9,9,,,,,205.83988350000072,,,,,,,,,,,,,,,,,,,,,,,,,,,,,,,,,,,,,,,,,,,,,,,205.82502100000056,205.83988350000072,205.83988350000072,206.33991439999954,206.33991439999954,208.83970590000172,208.83970590000172,208.82437550000031,None,1,,,,,,,,,,,,,,,,,,,,,,,,,,nback23,001,2023-12-12_17h51.46.199,untitled,2023.2.3,60.03856877583442,2023-12-12 18h35.23.882538 -0500,
11,"[-0.64, -0.4]",None,,,,,0,10,10,10,,,,,208.83970590000172,,,,,,,,,,,,,,,,,,,,,,,,,,,,,,,,,,,,,,,,,,,,,,,208.82518400000117,208.83970590000172,208.83970590000172,209.33971369999927,209.33971369999927,211.83974650000164,211.83974650000164,211.82409910000206,None,1,,,,,,,,,,,,,,,,,,,,,,,,,,nback23,001,2023-12-12_17h51.46.199,untitled,2023.2.3,60.03856877583442,2023-12-12 18h35.23.882538 -0500,
11,"[-0.64, -0.4]",space,,,,,0,11,11,11,,,,,211.83974650000164,,,,,,,,,,,,,,,,,,,,,,,,,,,,,,,,,,,,,,,,,,,,,,,211.82493160000013,211.83974650000164,211.83974650000164,212.33982870000182,212.33982870000182,214.8396443999991,214.8396443999991,214.82390990000204,space,1,0.4383592999984103,None,,,,,,,,,,,,,,,,,,,,,,,,nback23,001,2023-12-12_17h51.46.199,untitled,2023.2.3,60.03856877583442,2023-12-12 18h35.23.882538 -0500,
4,"[-0.2, 0.1]",None,,,,,0,12,12,12,,,,,214.8396443999991,,,,,,,,,,,,,,,,,,,,,,,,,,,,,,,,,,,,,,,,,,,,,,,214.82493909999903,214.8396443999991,214.8396443999991,215.33972920000087,215.33972920000087,217.8396356000012,217.8396356000012,217.82387580000068,None,1,,,,,,,,,,,,,,,,,,,,,,,,,,nback23,001,2023-12-12_17h51.46.199,untitled,2023.2.3,60.03856877583442,2023-12-12 18h35.23.882538 -0500,
3,"[0, 0.2]",None,,,,,0,13,13,13,,,,,217.8396356000012,,,,,,,,,,,,,,,,,,,,,,,,,,,,,,,,,,,,,,,,,,,,,,,217.82457710000017,217.8396356000012,217.8396356000012,218.33951890000026,218.33951890000026,220.83939029999965,220.83939029999965,220.823760700001,None,1,,,,,,,,,,,,,,,,,,,,,,,,,,nback23,001,2023-12-12_17h51.46.199,untitled,2023.2.3,60.03856877583442,2023-12-12 18h35.23.882538 -0500,
3,"[0, 0.2]",space,,,,,0,14,14,14,,,,,220.83939029999965,,,,,,,,,,,,,,,,,,,,,,,,,,,,,,,,,,,,,,,,,,,,,,,220.82441850000032,220.83939029999965,220.83939029999965,221.33962919999976,221.33962919999976,223.83949099999882,223.83949099999882,223.82359970000107,space,1,0.3728436999990663,None,,,,,,,,,,,,,,,,,,,,,,,,nback23,001,2023-12-12_17h51.46.199,untitled,2023.2.3,60.03856877583442,2023-12-12 18h35.23.882538 -0500,
8,"[-0.2, -0.1]",None,,,,,0,15,15,15,,,,,223.83949099999882,,,,,,,,,,,,,,,,,,,,,,,,,,,,,,,,,,,,,,,,,,,,,,,223.82432379999955,223.83949099999882,223.83949099999882,224.33950330000152,224.33950330000152,226.83946540000034,226.83946540000034,226.82377980000092,None,1,,,,,,,,,,,,,,,,,,,,,,,,,,nback23,001,2023-12-12_17h51.46.199,untitled,2023.2.3,60.03856877583442,2023-12-12 18h35.23.882538 -0500,
1,"[-0.64, 0.4]",None,,,,,0,16,16,16,,,,,226.83946540000034,,,,,,,,,,,,,,,,,,,,,,,,,,,,,,,,,,,,,,,,,,,,,,,226.8244980999989,226.83946540000034,226.83946540000034,227.3393931999999,227.3393931999999,229.83941699999923,229.83941699999923,229.82372640000176,None,1,,,,,,,,,,,,,,,,,,,,,,,,,,nback23,001,2023-12-12_17h51.46.199,untitled,2023.2.3,60.03856877583442,2023-12-12 18h35.23.882538 -0500,
2,"[0.64, 0.4]",None,,,,,0,17,17,17,,,,,229.83941699999923,,,,,,,,,,,,,,,,,,,,,,,,,,,,,,,,,,,,,,,,,,,,,,,229.8244295000004,229.83941699999923,229.83941699999923,230.33936620000168,230.33936620000168,232.83947160000025,232.83947160000025,232.82363460000124,None,1,,,,,,,,,,,,,,,,,,,,,,,,,,nback23,001,2023-12-12_17h51.46.199,untitled,2023.2.3,60.03856877583442,2023-12-12 18h35.23.882538 -0500,
4,"[-0.2, 0.1]",None,,,,,0,18,18,18,,,,,232.83947160000025,,,,,,,,,,,,,,,,,,,,,,,,,,,,,,,,,,,,,,,,,,,,,,,232.82445300000109,232.83947160000025,232.83947160000025,233.33922220000022,233.33922220000022,235.83923010000217,235.83923010000217,235.82357260000208,None,1,,,,,,,,,,,,,,,,,,,,,,,,,,nback23,001,2023-12-12_17h51.46.199,untitled,2023.2.3,60.03856877583442,2023-12-12 18h35.23.882538 -0500,
4,"[-0.2, 0.1]",space,,,,,0,19,19,19,,,,,235.83923010000217,,,,,,,,,,,,,,,,,,,,,,,,,,,,,,,,,,,,,,,,,,,,,,,235.82456730000195,235.83923010000217,235.83923010000217,236.3393157999999,236.3393157999999,238.83911290000106,238.83911290000106,238.8234881999997,space,1,0.39220879999993485,None,,,,,,,,,,,,,,,,,,,,,,,,nback23,001,2023-12-12_17h51.46.199,untitled,2023.2.3,60.03856877583442,2023-12-12 18h35.23.882538 -0500,
8,"[-0.2, -0.1]",None,,,,,0,20,20,20,,,,,238.83911290000106,,,,,,,,,,,,,,,,,,,,,,,,,,,,,,,,,,,,,,,,,,,,,,,238.82438829999955,238.83911290000106,238.83911290000106,239.33929440000065,239.33929440000065,241.8392887000009,241.8392887000009,241.82321810000212,None,1,,,,,,,,,,,,,,,,,,,,,,,,,,nback23,001,2023-12-12_17h51.46.199,untitled,2023.2.3,60.03856877583442,2023-12-12 18h35.23.882538 -0500,
5,"[0.2, 0.1]",None,,,,,0,21,21,21,,,,,241.8392887000009,,,,,,,,,,,,,,,,,,,,,,,,,,,,,,,,,,,,,,,,,,,,,,,241.8239106000001,241.8392887000009,241.8392887000009,242.33921230000124,242.33921230000124,244.83908860000156,244.83908860000156,244.82370380000066,None,1,,,,,,,,,,,,,,,,,,,,,,,,,,nback23,001,2023-12-12_17h51.46.199,untitled,2023.2.3,60.03856877583442,2023-12-12 18h35.23.882538 -0500,
5,"[0.2, 0.1]",space,,,,,0,22,22,22,,,,,244.83908860000156,,,,,,,,,,,,,,,,,,,,,,,,,,,,,,,,,,,,,,,,,,,,,,,244.8245268999999,244.83908860000156,244.83908860000156,245.339190900002,245.339190900002,247.8391541000019,247.8391541000019,247.82346289999987,space,1,1.112104799998633,None,,,,,,,,,,,,,,,,,,,,,,,,nback23,001,2023-12-12_17h51.46.199,untitled,2023.2.3,60.03856877583442,2023-12-12 18h35.23.882538 -0500,
1,"[-0.64, 0.4]",None,,,,,0,23,23,23,,,,,247.8391541000019,,,,,,,,,,,,,,,,,,,,,,,,,,,,,,,,,,,,,,,,,,,,,,,247.82448250000016,247.8391541000019,247.8391541000019,248.33918389999963,248.33918389999963,250.8389903999996,250.8389903999996,250.82306590000007,None,1,,,,,,,,,,,,,,,,,,,,,,,,,,nback23,001,2023-12-12_17h51.46.199,untitled,2023.2.3,60.03856877583442,2023-12-12 18h35.23.882538 -0500,
3,"[0, 0.2]",None,,,,,0,24,24,24,,,,,250.8389903999996,,,,,,,,,,,,,,,,,,,,,,,,,,,,,,,,,,,,,,,,,,,,,,,250.82368230000066,250.8389903999996,250.8389903999996,251.3391272000008,251.3391272000008,253.83909649999987,253.83909649999987,253.82345899999927,None,1,,,,,,,,,,,,,,,,,,,,,,,,,,nback23,001,2023-12-12_17h51.46.199,untitled,2023.2.3,60.03856877583442,2023-12-12 18h35.23.882538 -0500,
6,"[-0.3, 0]",None,,,,,0,25,25,25,,,,,253.83909649999987,,,,,,,,,,,,,,,,,,,,,,,,,,,,,,,,,,,,,,,,,,,,,,,253.8243165999993,253.83909649999987,253.83909649999987,254.3388988000006,254.3388988000006,256.83871569999974,256.83871569999974,256.8228913000021,None,1,,,,,,,,,,,,,,,,,,,,,,,,,,nback23,001,2023-12-12_17h51.46.199,untitled,2023.2.3,60.03856877583442,2023-12-12 18h35.23.882538 -0500,
1,"[-0.64, 0.4]",None,,,,,0,26,26,26,,,,,256.83871569999974,,,,,,,,,,,,,,,,,,,,,,,,,,,,,,,,,,,,,,,,,,,,,,,256.82328979999875,256.83871569999974,256.83871569999974,257.33879230000093,257.33879230000093,259.8389580000003,259.8389580000003,259.82294700000057,None,1,,,,,,,,,,,,,,,,,,,,,,,,,,nback23,001,2023-12-12_17h51.46.199,untitled,2023.2.3,60.03856877583442,2023-12-12 18h35.23.882538 -0500,
1,"[-0.64, 0.4]",space,,,,,0,27,27,27,,,,,259.8389580000003,,,,,,,,,,,,,,,,,,,,,,,,,,,,,,,,,,,,,,,,,,,,,,,259.82363310000073,259.8389580000003,259.8389580000003,260.3389759999991,260.3389759999991,262.83892449999985,262.83892449999985,262.8232158999999,space,1,0.5518935000000056,None,,,,,,,,,,,,,,,,,,,,,,,,nback23,001,2023-12-12_17h51.46.199,untitled,2023.2.3,60.03856877583442,2023-12-12 18h35.23.882538 -0500,
1,"[-0.64, 0.4]",space,,,,,0,28,28,28,,,,,262.83892449999985,,,,,,,,,,,,,,,,,,,,,,,,,,,,,,,,,,,,,,,,,,,,,,,262.824098699999,262.83892449999985,262.83892449999985,263.33885759999976,263.33885759999976,265.8387382000001,265.8387382000001,265.82311370000025,None,0,,,,,,,,,,,,,,,,,,,,,,,,,,nback23,001,2023-12-12_17h51.46.199,untitled,2023.2.3,60.03856877583442,2023-12-12 18h35.23.882538 -0500,
3,"[0, 0.2]",None,,,,,0,29,29,29,,,,,265.8387382000001,,,,,,,,,,,,,,,,,,,,,,,,,,,,,,,,,,,,,,,,,,,,,,,265.82378080000126,265.8387382000001,265.8387382000001,266.3386720999988,266.3386720999988,268.83865549999973,268.83865549999973,268.8231154999994,None,1,,,,,,,,,,,,,,,,,,,,,,,,,,nback23,001,2023-12-12_17h51.46.199,untitled,2023.2.3,60.03856877583442,2023-12-12 18h35.23.882538 -0500,
12,"[0.64, -0.4]",None,,,,,0,30,30,30,,,,,268.83865549999973,,,,,,,,,,,,,,,,,,,,,,,,,,,,,,,,,,,,,,,,,,,,,,,268.8238593999995,268.83865549999973,268.83865549999973,269.3386920000012,269.3386920000012,271.83865700000024,271.83865700000024,271.82306009999957,None,1,,,,,,,,,,,,,,,,,,,,,,,,,,nback23,001,2023-12-12_17h51.46.199,untitled,2023.2.3,60.03856877583442,2023-12-12 18h35.23.882538 -0500,
12,"[0.64, -0.4]",space,,,,,0,31,31,31,,,,,271.83865700000024,,,,,,,,,,,,,,,,,,,,,,,,,,,,,,,,,,,,,,,,,,,,,,,271.8238162000016,271.83865700000024,271.83865700000024,272.3387982999993,272.3387982999993,274.8386505999988,274.8386505999988,274.8230485000022,space,1,0.5651298000011593,None,,,,,,,,,,,,,,,,,,,,,,,,nback23,001,2023-12-12_17h51.46.199,untitled,2023.2.3,60.03856877583442,2023-12-12 18h35.23.882538 -0500,
2,"[0.64, 0.4]",None,,,,,0,32,32,32,,,,,274.8386505999988,,,,,,,,,,,,,,,,,,,,,,,,,,,,,,,,,,,,,,,,,,,,,,,274.824034199999,274.8386505999988,274.8386505999988,275.3386649000022,275.3386649000022,277.8386004000022,277.8386004000022,277.82294589999947,None,1,,,,,,,,,,,,,,,,,,,,,,,,,,nback23,001,2023-12-12_17h51.46.199,untitled,2023.2.3,60.03856877583442,2023-12-12 18h35.23.882538 -0500,
1,"[-0.64, 0.4]",None,,,,,0,33,33,33,,,,,277.8386004000022,,,,,,,,,,,,,,,,,,,,,,,,,,,,,,,,,,,,,,,,,,,,,,,277.82374170000185,277.8386004000022,277.8386004000022,278.3384393000015,278.3384393000015,280.83854789999896,280.83854789999896,280.823002000001,None,1,,,,,,,,,,,,,,,,,,,,,,,,,,nback23,001,2023-12-12_17h51.46.199,untitled,2023.2.3,60.03856877583442,2023-12-12 18h35.23.882538 -0500,
7,"[0.3, 0]",None,,,,,0,34,34,34,,,,,280.83854789999896,,,,,,,,,,,,,,,,,,,,,,,,,,,,,,,,,,,,,,,,,,,,,,,280.8238261000006,280.83854789999896,280.83854789999896,281.3386590000009,281.3386590000009,283.83841680000114,283.83841680000114,283.8224799999989,None,1,,,,,,,,,,,,,,,,,,,,,,,,,,nback23,001,2023-12-12_17h51.46.199,untitled,2023.2.3,60.03856877583442,2023-12-12 18h35.23.882538 -0500,
7,"[0.3, 0]",space,,,,,0,35,35,35,,,,,283.83841680000114,,,,,,,,,,,,,,,,,,,,,,,,,,,,,,,,,,,,,,,,,,,,,,,283.8230899000009,283.83841680000114,283.83841680000114,284.33912020000207,284.33912020000207,286.83839400000215,286.83839400000215,286.8227493000013,space,1,0.39873810000062804,None,,,,,,,,,,,,,,,,,,,,,,,,nback23,001,2023-12-12_17h51.46.199,untitled,2023.2.3,60.03856877583442,2023-12-12 18h35.23.882538 -0500,
11,"[-0.64, -0.4]",None,,,,,0,36,36,36,,,,,286.83839400000215,,,,,,,,,,,,,,,,,,,,,,,,,,,,,,,,,,,,,,,,,,,,,,,286.8235683999992,286.83839400000215,286.83839400000215,287.3384260999992,287.3384260999992,289.8383662000015,289.8383662000015,289.8226705999987,None,1,,,,,,,,,,,,,,,,,,,,,,,,,,nback23,001,2023-12-12_17h51.46.199,untitled,2023.2.3,60.03856877583442,2023-12-12 18h35.23.882538 -0500,
2,"[0.64, 0.4]",None,,,,,0,37,37,37,,,,,289.8383662000015,,,,,,,,,,,,,,,,,,,,,,,,,,,,,,,,,,,,,,,,,,,,,,,289.82336249999935,289.8383662000015,289.8383662000015,290.33845230000225,290.33845230000225,292.83855720000065,292.83855720000065,292.82259460000205,None,1,,,,,,,,,,,,,,,,,,,,,,,,,,nback23,001,2023-12-12_17h51.46.199,untitled,2023.2.3,60.03856877583442,2023-12-12 18h35.23.882538 -0500,
6,"[-0.3, 0]",None,,,,,0,38,38,38,,,,,292.83855720000065,,,,,,,,,,,,,,,,,,,,,,,,,,,,,,,,,,,,,,,,,,,,,,,292.823417399999,292.83855720000065,292.83855720000065,293.3385137000005,293.3385137000005,295.8383212000008,295.8383212000008,295.82255689999874,None,1,,,,,,,,,,,,,,,,,,,,,,,,,,nback23,001,2023-12-12_17h51.46.199,untitled,2023.2.3,60.03856877583442,2023-12-12 18h35.23.882538 -0500,
10,"[0, -0.2]",None,,,,,0,39,39,39,,,,,295.8383212000008,,,,,,,,,,,,,,,,,,,,,,,,,,,,,,,,,,,,,,,,,,,,,,,295.8233509999991,295.8383212000008,295.8383212000008,296.33846260000064,296.33846260000064,298.83837380000114,298.83837380000114,298.8226472999995,None,1,,,,,,,,,,,,,,,,,,,,,,,,,,nback23,001,2023-12-12_17h51.46.199,untitled,2023.2.3,60.03856877583442,2023-12-12 18h35.23.882538 -0500,
,,,,,,,,,,,,,,,,,,,,,,,,,,,,,,,,,,,,,,,,,,,,,,,,,,,,,,,,,,,,,,,,,,,,,,,,,,298.82322230000136,298.83837380000114,298.83837380000114,338.40545380000185,space,39.55748890000177,None,,,,,,,,,,,,,,,,,nback23,001,2023-12-12_17h51.46.199,untitled,2023.2.3,60.03856877583442,2023-12-12 18h35.23.882538 -0500,
,"[0.2, 0.1]",None,,,,,,,,,0,0,0,0,339.42069719999927,,,,,,,,,,,,,,,,,,,,,,,,338.4054967000011,338.420765400002,339.42069719999927,339.40535010000167,,,,,,,,,,,,,,,,,,,,,,,,,,,,,,,,,,,,,,,339.4162309000021,339.42069719999927,339.42069719999927,339.92092870000124,339.92092870000124,342.42085249999946,342.42085249999946,342.4049191000013,None,1,,,,,,,nback23,001,2023-12-12_17h51.46.199,untitled,2023.2.3,60.03856877583442,2023-12-12 18h35.23.882538 -0500,
,"[0.64, 0.4]",None,,,,,,,,,0,1,1,1,342.42085249999946,,,,,,,,,,,,,,,,,,,,,,,,,,,,,,,,,,,,,,,,,,,,,,,,,,,,,,,,,,,,,,,,,,342.4056806000008,342.42085249999946,342.42085249999946,342.9207444999993,342.9207444999993,345.4207802000019,345.4207802000019,345.40485999999873,None,1,,,,,,,nback23,001,2023-12-12_17h51.46.199,untitled,2023.2.3,60.03856877583442,2023-12-12 18h35.23.882538 -0500,
,"[-0.3, 0]",None,,,,,,,,,0,2,2,2,345.4207802000019,,,,,,,,,,,,,,,,,,,,,,,,,,,,,,,,,,,,,,,,,,,,,,,,,,,,,,,,,,,,,,,,,,345.4054705999988,345.4207802000019,345.4207802000019,345.9206329000008,345.9206329000008,348.420761100002,348.420761100002,348.40490800000043,None,1,,,,,,,nback23,001,2023-12-12_17h51.46.199,untitled,2023.2.3,60.03856877583442,2023-12-12 18h35.23.882538 -0500,
,"[0.2, -0.1]",None,,,,,,,,,0,3,3,3,348.420761100002,,,,,,,,,,,,,,,,,,,,,,,,,,,,,,,,,,,,,,,,,,,,,,,,,,,,,,,,,,,,,,,,,,348.4055995000017,348.420761100002,348.420761100002,348.92046180000034,348.92046180000034,351.4206598000019,351.4206598000019,351.4047051999987,None,1,,,,,,,nback23,001,2023-12-12_17h51.46.199,untitled,2023.2.3,60.03856877583442,2023-12-12 18h35.23.882538 -0500,
,"[0, 0.2]",None,,,,,,,,,0,4,4,4,351.4206598000019,,,,,,,,,,,,,,,,,,,,,,,,,,,,,,,,,,,,,,,,,,,,,,,,,,,,,,,,,,,,,,,,,,351.4053279,351.4206598000019,351.4206598000019,351.9206696000001,351.9206696000001,354.4206980000017,354.4206980000017,354.4050825000013,None,1,,,,,,,nback23,001,2023-12-12_17h51.46.199,untitled,2023.2.3,60.03856877583442,2023-12-12 18h35.23.882538 -0500,
,"[0.2, -0.1]",space,,,,,,,,,0,5,5,5,354.4206980000017,,,,,,,,,,,,,,,,,,,,,,,,,,,,,,,,,,,,,,,,,,,,,,,,,,,,,,,,,,,,,,,,,,354.4059297999993,354.4206980000017,354.4206980000017,354.9206462000002,354.9206462000002,357.420487899999,357.420487899999,357.40447060000224,space,1,0.6034194999992906,None,,,,,nback23,001,2023-12-12_17h51.46.199,untitled,2023.2.3,60.03856877583442,2023-12-12 18h35.23.882538 -0500,
,"[0, -0.2]",None,,,,,,,,,0,6,6,6,357.420487899999,,,,,,,,,,,,,,,,,,,,,,,,,,,,,,,,,,,,,,,,,,,,,,,,,,,,,,,,,,,,,,,,,,357.4052905999997,357.420487899999,357.420487899999,357.9205694000011,357.9205694000011,360.4203551999999,360.4203551999999,360.40463420000015,space,0,0.9144311000018206,None,,,,,nback23,001,2023-12-12_17h51.46.199,untitled,2023.2.3,60.03856877583442,2023-12-12 18h35.23.882538 -0500,
,"[0.64, -0.4]",None,,,,,,,,,0,7,7,7,360.4203551999999,,,,,,,,,,,,,,,,,,,,,,,,,,,,,,,,,,,,,,,,,,,,,,,,,,,,,,,,,,,,,,,,,,360.4053344999993,360.4203551999999,360.4203551999999,360.9206102999997,360.9206102999997,363.42047319999983,363.42047319999983,363.40503660000104,None,1,,,,,,,nback23,001,2023-12-12_17h51.46.199,untitled,2023.2.3,60.03856877583442,2023-12-12 18h35.23.882538 -0500,
,"[0.3, 0]",None,,,,,,,,,0,8,8,8,363.42047319999983,,,,,,,,,,,,,,,,,,,,,,,,,,,,,,,,,,,,,,,,,,,,,,,,,,,,,,,,,,,,,,,,,,363.40586389999953,363.42047319999983,363.42047319999983,363.9204391000021,363.9204391000021,366.42034839999906,366.42034839999906,366.404662500001,None,1,,,,,,,nback23,001,2023-12-12_17h51.46.199,untitled,2023.2.3,60.03856877583442,2023-12-12 18h35.23.882538 -0500,
,"[0.64, -0.4]",space,,,,,,,,,0,9,9,9,366.42034839999906,,,,,,,,,,,,,,,,,,,,,,,,,,,,,,,,,,,,,,,,,,,,,,,,,,,,,,,,,,,,,,,,,,366.4053550999997,366.42034839999906,366.42034839999906,366.920485300001,366.920485300001,369.4203540999988,369.4203540999988,369.40476630000194,space,1,0.912785200001963,None,,,,,nback23,001,2023-12-12_17h51.46.199,untitled,2023.2.3,60.03856877583442,2023-12-12 18h35.23.882538 -0500,
,"[-0.64, 0.4]",None,,,,,,,,,0,10,10,10,369.4203540999988,,,,,,,,,,,,,,,,,,,,,,,,,,,,,,,,,,,,,,,,,,,,,,,,,,,,,,,,,,,,,,,,,,369.4055533999999,369.4203540999988,369.4203540999988,369.9204037999989,369.9204037999989,372.4203062000015,372.4203062000015,372.40467010000066,None,1,,,,,,,nback23,001,2023-12-12_17h51.46.199,untitled,2023.2.3,60.03856877583442,2023-12-12 18h35.23.882538 -0500,
,"[0.2, 0.1]",None,,,,,,,,,0,11,11,11,372.4203062000015,,,,,,,,,,,,,,,,,,,,,,,,,,,,,,,,,,,,,,,,,,,,,,,,,,,,,,,,,,,,,,,,,,372.40536129999964,372.4203062000015,372.4203062000015,372.92037680000067,372.92037680000067,375.420283200001,375.420283200001,375.4044667999988,None,1,,,,,,,nback23,001,2023-12-12_17h51.46.199,untitled,2023.2.3,60.03856877583442,2023-12-12 18h35.23.882538 -0500,
,"[0.3, 0]",None,,,,,,,,,0,12,12,12,375.420283200001,,,,,,,,,,,,,,,,,,,,,,,,,,,,,,,,,,,,,,,,,,,,,,,,,,,,,,,,,,,,,,,,,,375.40504710000096,375.420283200001,375.420283200001,375.9202483000008,375.9202483000008,378.4201690000009,378.4201690000009,378.40451360000225,None,1,,,,,,,nback23,001,2023-12-12_17h51.46.199,untitled,2023.2.3,60.03856877583442,2023-12-12 18h35.23.882538 -0500,
,"[0.2, 0.1]",space,,,,,,,,,0,13,13,13,378.4201690000009,,,,,,,,,,,,,,,,,,,,,,,,,,,,,,,,,,,,,,,,,,,,,,,,,,,,,,,,,,,,,,,,,,378.40512110000054,378.4201690000009,378.4201690000009,378.9202664000004,378.9202664000004,381.4200748000003,381.4200748000003,381.4040648000009,space,1,0.43247859999974025,None,,,,,nback23,001,2023-12-12_17h51.46.199,untitled,2023.2.3,60.03856877583442,2023-12-12 18h35.23.882538 -0500,
,"[-0.3, 0]",None,,,,,,,,,0,14,14,14,381.4200748000003,,,,,,,,,,,,,,,,,,,,,,,,,,,,,,,,,,,,,,,,,,,,,,,,,,,,,,,,,,,,,,,,,,381.40475779999906,381.4200748000003,381.4200748000003,381.92024270000184,381.92024270000184,384.42007419999936,384.42007419999936,384.40429230000154,None,1,,,,,,,nback23,001,2023-12-12_17h51.46.199,untitled,2023.2.3,60.03856877583442,2023-12-12 18h35.23.882538 -0500,
,"[0, 0.2]",None,,,,,,,,,0,15,15,15,384.42007419999936,,,,,,,,,,,,,,,,,,,,,,,,,,,,,,,,,,,,,,,,,,,,,,,,,,,,,,,,,,,,,,,,,,384.4048894000007,384.42007419999936,384.42007419999936,384.92014349999954,384.92014349999954,387.4199398000019,387.4199398000019,387.404224599999,None,1,,,,,,,nback23,001,2023-12-12_17h51.46.199,untitled,2023.2.3,60.03856877583442,2023-12-12 18h35.23.882538 -0500,
,"[-0.3, 0]",space,,,,,,,,,0,16,16,16,387.4199398000019,,,,,,,,,,,,,,,,,,,,,,,,,,,,,,,,,,,,,,,,,,,,,,,,,,,,,,,,,,,,,,,,,,387.40490130000035,387.4199398000019,387.4199398000019,387.9200415000014,387.9200415000014,390.42004160000215,390.42004160000215,390.40446950000114,space,1,0.4509778000028746,None,,,,,nback23,001,2023-12-12_17h51.46.199,untitled,2023.2.3,60.03856877583442,2023-12-12 18h35.23.882538 -0500,
,"[-0.64, -0.4]",None,,,,,,,,,0,17,17,17,390.42004160000215,,,,,,,,,,,,,,,,,,,,,,,,,,,,,,,,,,,,,,,,,,,,,,,,,,,,,,,,,,,,,,,,,,390.40535309999905,390.42004160000215,390.42004160000215,390.9199743999998,390.9199743999998,393.41995339999994,393.41995339999994,393.4043530000017,None,1,,,,,,,nback23,001,2023-12-12_17h51.46.199,untitled,2023.2.3,60.03856877583442,2023-12-12 18h35.23.882538 -0500,
,"[-0.2, -0.1]",None,,,,,,,,,0,18,18,18,393.41995339999994,,,,,,,,,,,,,,,,,,,,,,,,,,,,,,,,,,,,,,,,,,,,,,,,,,,,,,,,,,,,,,,,,,393.4052276000002,393.41995339999994,393.41995339999994,393.9198968000019,393.9198968000019,396.4197754000015,396.4197754000015,396.4036211999992,None,1,,,,,,,nback23,001,2023-12-12_17h51.46.199,untitled,2023.2.3,60.03856877583442,2023-12-12 18h35.23.882538 -0500,
,"[0.2, -0.1]",None,,,,,,,,,0,19,19,19,396.4197754000015,,,,,,,,,,,,,,,,,,,,,,,,,,,,,,,,,,,,,,,,,,,,,,,,,,,,,,,,,,,,,,,,,,396.40393290000065,396.4197754000015,396.4197754000015,396.91987209999934,396.91987209999934,399.4198304999991,399.4198304999991,399.4043750000019,None,1,,,,,,,nback23,001,2023-12-12_17h51.46.199,untitled,2023.2.3,60.03856877583442,2023-12-12 18h35.23.882538 -0500,
,"[0.2, -0.1]",None,,,,,,,,,0,20,20,20,399.4198304999991,,,,,,,,,,,,,,,,,,,,,,,,,,,,,,,,,,,,,,,,,,,,,,,,,,,,,,,,,,,,,,,,,,399.4051514999992,399.4198304999991,399.4198304999991,399.9199823000017,399.9199823000017,402.4196292000015,402.4196292000015,402.4040160000004,None,1,,,,,,,nback23,001,2023-12-12_17h51.46.199,untitled,2023.2.3,60.03856877583442,2023-12-12 18h35.23.882538 -0500,
,"[-0.64, 0.4]",None,,,,,,,,,0,21,21,21,402.4196292000015,,,,,,,,,,,,,,,,,,,,,,,,,,,,,,,,,,,,,,,,,,,,,,,,,,,,,,,,,,,,,,,,,,402.4047113000015,402.4196292000015,402.4196292000015,402.91979419999916,402.91979419999916,405.41980110000077,405.41980110000077,405.40378789999886,None,1,,,,,,,nback23,001,2023-12-12_17h51.46.199,untitled,2023.2.3,60.03856877583442,2023-12-12 18h35.23.882538 -0500,
,"[0, 0.2]",None,,,,,,,,,0,22,22,22,405.41980110000077,,,,,,,,,,,,,,,,,,,,,,,,,,,,,,,,,,,,,,,,,,,,,,,,,,,,,,,,,,,,,,,,,,405.40440189999936,405.41980110000077,405.41980110000077,405.9196978,405.9196978,408.4196200000006,408.4196200000006,408.4038604999987,None,1,,,,,,,nback23,001,2023-12-12_17h51.46.199,untitled,2023.2.3,60.03856877583442,2023-12-12 18h35.23.882538 -0500,
,"[0.64, -0.4]",None,,,,,,,,,0,23,23,23,408.4196200000006,,,,,,,,,,,,,,,,,,,,,,,,,,,,,,,,,,,,,,,,,,,,,,,,,,,,,,,,,,,,,,,,,,408.4045389999992,408.4196200000006,408.4196200000006,408.91984579999917,408.91984579999917,411.41975920000186,411.41975920000186,411.4039692000006,None,1,,,,,,,nback23,001,2023-12-12_17h51.46.199,untitled,2023.2.3,60.03856877583442,2023-12-12 18h35.23.882538 -0500,
,"[0, 0.2]",space,,,,,,,,,0,24,24,24,411.41975920000186,,,,,,,,,,,,,,,,,,,,,,,,,,,,,,,,,,,,,,,,,,,,,,,,,,,,,,,,,,,,,,,,,,411.4046178999997,411.41975920000186,411.41975920000186,411.9197157999988,411.9197157999988,414.4195217000015,414.4195217000015,414.40354600000137,space,1,0.41137700000035693,None,,,,,nback23,001,2023-12-12_17h51.46.199,untitled,2023.2.3,60.03856877583442,2023-12-12 18h35.23.882538 -0500,
,"[-0.2, 0.1]",None,,,,,,,,,0,25,25,25,414.4195217000015,,,,,,,,,,,,,,,,,,,,,,,,,,,,,,,,,,,,,,,,,,,,,,,,,,,,,,,,,,,,,,,,,,414.40433290000146,414.4195217000015,414.4195217000015,414.9195681000019,414.9195681000019,417.4196867999999,417.4196867999999,417.4041651000007,None,1,,,,,,,nback23,001,2023-12-12_17h51.46.199,untitled,2023.2.3,60.03856877583442,2023-12-12 18h35.23.882538 -0500,
,"[0.3, 0]",None,,,,,,,,,0,26,26,26,417.4196867999999,,,,,,,,,,,,,,,,,,,,,,,,,,,,,,,,,,,,,,,,,,,,,,,,,,,,,,,,,,,,,,,,,,417.40505530000155,417.4196867999999,417.4196867999999,417.91956610000125,417.91956610000125,420.4193320000013,420.4193320000013,420.4035141000022,None,1,,,,,,,nback23,001,2023-12-12_17h51.46.199,untitled,2023.2.3,60.03856877583442,2023-12-12 18h35.23.882538 -0500,
,"[-0.2, 0.1]",space,,,,,,,,,0,27,27,27,420.4193320000013,,,,,,,,,,,,,,,,,,,,,,,,,,,,,,,,,,,,,,,,,,,,,,,,,,,,,,,,,,,,,,,,,,420.4040003000009,420.4193320000013,420.4193320000013,420.9195867999988,420.9195867999988,423.41943549999996,423.41943549999996,423.40387810000175,space,1,0.4320179000023927,None,,,,,nback23,001,2023-12-12_17h51.46.199,untitled,2023.2.3,60.03856877583442,2023-12-12 18h35.23.882538 -0500,
,"[-0.2, 0.1]",None,,,,,,,,,0,28,28,28,423.41943549999996,,,,,,,,,,,,,,,,,,,,,,,,,,,,,,,,,,,,,,,,,,,,,,,,,,,,,,,,,,,,,,,,,,423.4049620000005,423.41943549999996,423.41943549999996,423.919377000002,423.919377000002,426.41932910000105,426.41932910000105,426.4035206000008,None,1,,,,,,,nback23,001,2023-12-12_17h51.46.199,untitled,2023.2.3,60.03856877583442,2023-12-12 18h35.23.882538 -0500,
,"[0.2, 0.1]",None,,,,,,,,,0,29,29,29,426.41932910000105,,,,,,,,,,,,,,,,,,,,,,,,,,,,,,,,,,,,,,,,,,,,,,,,,,,,,,,,,,,,,,,,,,426.404129999999,426.41932910000105,426.41932910000105,426.91936500000156,426.91936500000156,429.4194045000004,429.4194045000004,429.40369680000003,None,1,,,,,,,nback23,001,2023-12-12_17h51.46.199,untitled,2023.2.3,60.03856877583442,2023-12-12 18h35.23.882538 -0500,
,"[-0.64, -0.4]",None,,,,,,,,,0,30,30,30,429.4194045000004,,,,,,,,,,,,,,,,,,,,,,,,,,,,,,,,,,,,,,,,,,,,,,,,,,,,,,,,,,,,,,,,,,429.40452000000005,429.4194045000004,429.4194045000004,429.9192815999995,429.9192815999995,432.4192600999995,432.4192600999995,432.4038486999998,None,1,,,,,,,nback23,001,2023-12-12_17h51.46.199,untitled,2023.2.3,60.03856877583442,2023-12-12 18h35.23.882538 -0500,
,"[0, -0.2]",None,,,,,,,,,0,31,31,31,432.4192600999995,,,,,,,,,,,,,,,,,,,,,,,,,,,,,,,,,,,,,,,,,,,,,,,,,,,,,,,,,,,,,,,,,,432.4046949000003,432.4192600999995,432.4192600999995,432.9192375999992,432.9192375999992,435.41913399999976,435.41913399999976,435.4036481000003,None,1,,,,,,,nback23,001,2023-12-12_17h51.46.199,untitled,2023.2.3,60.03856877583442,2023-12-12 18h35.23.882538 -0500,
,"[-0.64, -0.4]",space,,,,,,,,,0,32,32,32,435.41913399999976,,,,,,,,,,,,,,,,,,,,,,,,,,,,,,,,,,,,,,,,,,,,,,,,,,,,,,,,,,,,,,,,,,435.4045446000018,435.41913399999976,435.41913399999976,435.9192532999987,435.9192532999987,438.4191686000013,438.4191686000013,438.40369009999995,space,1,0.4342839000019012,None,,,,,nback23,001,2023-12-12_17h51.46.199,untitled,2023.2.3,60.03856877583442,2023-12-12 18h35.23.882538 -0500,
,"[0.64, 0.4]",None,,,,,,,,,0,33,33,33,438.4191686000013,,,,,,,,,,,,,,,,,,,,,,,,,,,,,,,,,,,,,,,,,,,,,,,,,,,,,,,,,,,,,,,,,,438.40473589999965,438.4191686000013,438.4191686000013,438.9192423000022,438.9192423000022,441.41913059999933,441.41913059999933,441.40361610000036,None,1,,,,,,,nback23,001,2023-12-12_17h51.46.199,untitled,2023.2.3,60.03856877583442,2023-12-12 18h35.23.882538 -0500,
,"[-0.3, 0]",None,,,,,,,,,0,34,34,34,441.41913059999933,,,,,,,,,,,,,,,,,,,,,,,,,,,,,,,,,,,,,,,,,,,,,,,,,,,,,,,,,,,,,,,,,,441.4044544999997,441.41913059999933,441.41913059999933,441.9189068000014,441.9189068000014,444.4190321999995,444.4190321999995,444.40327360000083,None,1,,,,,,,nback23,001,2023-12-12_17h51.46.199,untitled,2023.2.3,60.03856877583442,2023-12-12 18h35.23.882538 -0500,
,"[0.3, 0]",None,,,,,,,,,0,35,35,35,444.4190321999995,,,,,,,,,,,,,,,,,,,,,,,,,,,,,,,,,,,,,,,,,,,,,,,,,,,,,,,,,,,,,,,,,,444.40411160000076,444.4190321999995,444.4190321999995,444.91904799999975,444.91904799999975,447.41891469999973,447.41891469999973,447.40313289999904,None,1,,,,,,,nback23,001,2023-12-12_17h51.46.199,untitled,2023.2.3,60.03856877583442,2023-12-12 18h35.23.882538 -0500,
,"[-0.3, 0]",space,,,,,,,,,0,36,36,36,447.41891469999973,,,,,,,,,,,,,,,,,,,,,,,,,,,,,,,,,,,,,,,,,,,,,,,,,,,,,,,,,,,,,,,,,,447.40380509999886,447.41891469999973,447.41891469999973,447.91883529999905,447.91883529999905,450.4189649,450.4189649,450.4033593999993,space,1,0.48386460000256193,None,,,,,nback23,001,2023-12-12_17h51.46.199,untitled,2023.2.3,60.03856877583442,2023-12-12 18h35.23.882538 -0500,
,"[0, -0.2]",None,,,,,,,,,0,37,37,37,450.4189649,,,,,,,,,,,,,,,,,,,,,,,,,,,,,,,,,,,,,,,,,,,,,,,,,,,,,,,,,,,,,,,,,,450.40430969999943,450.4189649,450.4189649,450.9190705000001,450.9190705000001,453.4191410000021,453.4191410000021,453.40348350000204,None,1,,,,,,,nback23,001,2023-12-12_17h51.46.199,untitled,2023.2.3,60.03856877583442,2023-12-12 18h35.23.882538 -0500,
,"[0.3, 0]",None,,,,,,,,,0,38,38,38,453.4191410000021,,,,,,,,,,,,,,,,,,,,,,,,,,,,,,,,,,,,,,,,,,,,,,,,,,,,,,,,,,,,,,,,,,453.4043214000012,453.4191410000021,453.4191410000021,453.91885620000176,453.91885620000176,456.41873150000174,456.41873150000174,456.40253139999913,None,1,,,,,,,nback23,001,2023-12-12_17h51.46.199,untitled,2023.2.3,60.03856877583442,2023-12-12 18h35.23.882538 -0500,
,"[0.2, 0.1]",None,,,,,,,,,0,39,39,39,456.41873150000174,,,,,,,,,,,,,,,,,,,,,,,,,,,,,,,,,,,,,,,,,,,,,,,,,,,,,,,,,,,,,,,,,,456.40286130000095,456.41873150000174,456.41873150000174,456.91881139999896,456.91881139999896,459.41897869999957,459.41897869999957,459.4030141000003,None,1,,,,,,,nback23,001,2023-12-12_17h51.46.199,untitled,2023.2.3,60.03856877583442,2023-12-12 18h35.23.882538 -0500,
,,,,,,,,,,,,,,,,,,,,,,,,,,,,,,,,,,,,,,,,,,,,,,,,,,,,,,,,,,,,,,,,,,,,,,,,,,,,,,,,,,,,,,,,,,,,,459.4034300000021,459.41897869999957,462.41892480000024,462.402933100002,,,,,,,,
