square,location,corrAns,trials_0.thisRepN,trials_0.thisTrialN,trials_0.thisN,trials_0.thisIndex,trials_1.thisRepN,trials_1.thisTrialN,trials_1.thisN,trials_1.thisIndex,trials_2.thisRepN,trials_2.thisTrialN,trials_2.thisN,trials_2.thisIndex,thisRow.t,notes,Instructions.started,instructions.started,key_resp.started,inst_sq11.started,Instructions.stopped,key_resp.keys,key_resp.rt,key_resp.duration,All.started,sq_1.started,sq_2.started,sq_3.started,sq_4.started,sq_5.started,sq_6.started,sq_7.started,sq_8.started,sq_9.started,sq_10.started,sq_11.started,sq_12.started,All.stopped,Fixation.started,fixation_3.started,fixation_3.stopped,Fixation.stopped,N_back_0_Trial.started,target_square_0.started,response_0.started,fixation_0.started,target_square_0.stopped,fixation_0.stopped,N_back_0_Trial.stopped,response_0.keys,response_0.corr,response_0.rt,response_0.duration,Instructions_1.started,instructions_1.started,key_resp_1.started,Instructions_1.stopped,key_resp_1.keys,key_resp_1.rt,key_resp_1.duration,N_back_1_Trial.started,target_square_1.started,response_1.started,target_square_1.stopped,fixation_1.started,fixation_1.stopped,response_1.stopped,N_back_1_Trial.stopped,response_1.keys,response_1.corr,response_1.rt,response_1.duration,Instructions_2.started,instructions_2.started,key_resp_2.started,Instructions_2.stopped,key_resp_2.keys,key_resp_2.rt,key_resp_2.duration,N_back_2_trials.started,target_square_2.started,response_2.started,target_square_2.stopped,fixation_2.started,fixation_2.stopped,response_2.stopped,N_back_2_trials.stopped,response_2.keys,response_2.corr,response_2.rt,response_2.duration,End.started,thank_you.started,thank_you.stopped,End.stopped,participant,session,date,expName,psychopyVersion,frameRate,expStart,
,,,,,,,,,,,,,,,,,0.0014959999971324578,0.004044799992698245,0.004044799992698245,0.004044799992698245,19.774712799990084,space,19.764144700006,None,,,,,,,,,,,,,,,,,,,,,,,,,,,,,,,,,,,,,,,,,,,,,,,,,,,,,,,,,,,,,,,,,,,,,,,,nback26,001,2023-12-14_14h15.22.840,untitled,2023.2.3,59.89254080255971,2023-12-14 14h55.16.524565 -0500,
6,"[-0.3, 0]",None,0,0,0,0,,,,,,,,,21.794931899989024,,,,,,,,,,19.77475319999212,19.789463099994464,19.789463099994464,19.789463099994464,19.789463099994464,19.789463099994464,19.789463099994464,19.789463099994464,19.789463099994464,19.789463099994464,19.789463099994464,19.789463099994464,19.789463099994464,20.773634400000446,20.77366209999309,20.789644199991017,21.794931899989024,21.7739489999949,21.79307410000183,21.794931899989024,21.794931899989024,22.28939309999987,22.306116299994756,24.78941019999911,24.789609300001757,None,1,,,,,,,,,,,,,,,,,,,,,,,,,,,,,,,,,,,,,,,,,,,,,nback26,001,2023-12-14_14h15.22.840,untitled,2023.2.3,59.89254080255971,2023-12-14 14h55.16.524565 -0500,
10,"[0, -0.2]",None,0,1,1,1,,,,,,,,,24.806192099989858,,,,,,,,,,,,,,,,,,,,,,,,,,,,24.790576400002465,24.806192099989858,24.806192099989858,25.272890699998243,25.30620269999781,27.77263179999136,27.789529699992272,None,1,,,,,,,,,,,,,,,,,,,,,,,,,,,,,,,,,,,,,,,,,,,,,nback26,001,2023-12-14_14h15.22.840,untitled,2023.2.3,59.89254080255971,2023-12-14 14h55.16.524565 -0500,
11,"[-0.64, -0.4]",space,0,2,2,2,,,,,,,,,27.80594759999076,,,,,,,,,,,,,,,,,,,,,,,,,,,,27.790155599999707,27.80594759999076,27.80594759999076,28.272721299988916,28.30607149998832,30.772562599988305,30.78981109999586,space,1,1.8755013000045437,None,,,,,,,,,,,,,,,,,,,,,,,,,,,,,,,,,,,,,,,,,,,nback26,001,2023-12-14_14h15.22.840,untitled,2023.2.3,59.89254080255971,2023-12-14 14h55.16.524565 -0500,
12,"[0.64, -0.4]",None,0,3,3,3,,,,,,,,,30.80608389999543,,,,,,,,,,,,,,,,,,,,,,,,,,,,30.79097119999642,30.80608389999543,30.80608389999543,31.272683999995934,31.306173299992224,33.772421799993026,33.789418000000296,None,1,,,,,,,,,,,,,,,,,,,,,,,,,,,,,,,,,,,,,,,,,,,,,nback26,001,2023-12-14_14h15.22.840,untitled,2023.2.3,59.89254080255971,2023-12-14 14h55.16.524565 -0500,
1,"[-0.64, 0.4]",None,0,4,4,4,,,,,,,,,33.80589479999617,,,,,,,,,,,,,,,,,,,,,,,,,,,,33.78989039998851,33.80589479999617,33.80589479999617,34.28928269998869,34.305798399989726,36.789262399994186,36.78943969999091,None,1,,,,,,,,,,,,,,,,,,,,,,,,,,,,,,,,,,,,,,,,,,,,,nback26,001,2023-12-14_14h15.22.840,untitled,2023.2.3,59.89254080255971,2023-12-14 14h55.16.524565 -0500,
1,"[-0.64, 0.4]",None,0,5,5,5,,,,,,,,,36.806061299997964,,,,,,,,,,,,,,,,,,,,,,,,,,,,36.790151099994546,36.806061299997964,36.806061299997964,37.28906749999442,37.305799699999625,39.78933439998946,39.78951029999007,None,1,,,,,,,,,,,,,,,,,,,,,,,,,,,,,,,,,,,,,,,,,,,,,nback26,001,2023-12-14_14h15.22.840,untitled,2023.2.3,59.89254080255971,2023-12-14 14h55.16.524565 -0500,
4,"[-0.2, 0.1]",None,0,6,6,6,,,,,,,,,39.80572229999234,,,,,,,,,,,,,,,,,,,,,,,,,,,,39.7900942999986,39.80572229999234,39.80572229999234,40.289137799991295,40.306014799993136,42.789294299989706,42.78949919999286,None,1,,,,,,,,,,,,,,,,,,,,,,,,,,,,,,,,,,,,,,,,,,,,,nback26,001,2023-12-14_14h15.22.840,untitled,2023.2.3,59.89254080255971,2023-12-14 14h55.16.524565 -0500,
5,"[0.2, 0.1]",None,0,7,7,7,,,,,,,,,42.80581279999751,,,,,,,,,,,,,,,,,,,,,,,,,,,,42.79027739999583,42.80581279999751,42.80581279999751,43.28913530000136,43.30589180000243,45.789006599996355,45.789177899991046,None,1,,,,,,,,,,,,,,,,,,,,,,,,,,,,,,,,,,,,,,,,,,,,,nback26,001,2023-12-14_14h15.22.840,untitled,2023.2.3,59.89254080255971,2023-12-14 14h55.16.524565 -0500,
11,"[-0.64, -0.4]",space,0,8,8,8,,,,,,,,,45.8058139999921,,,,,,,,,,,,,,,,,,,,,,,,,,,,45.78991649999807,45.8058139999921,45.8058139999921,46.289255499999854,46.305818199994974,48.78911569999764,48.7893153999903,None,0,,,,,,,,,,,,,,,,,,,,,,,,,,,,,,,,,,,,,,,,,,,,,nback26,001,2023-12-14_14h15.22.840,untitled,2023.2.3,59.89254080255971,2023-12-14 14h55.16.524565 -0500,
9,"[0.2, -0.1]",None,0,9,9,9,,,,,,,,,48.805605499990634,,,,,,,,,,,,,,,,,,,,,,,,,,,,48.79011439999158,48.805605499990634,48.805605499990634,49.28908339999907,49.30578369999421,51.789222999999765,51.78943569998955,None,1,,,,,,,,,,,,,,,,,,,,,,,,,,,,,,,,,,,,,,,,,,,,,nback26,001,2023-12-14_14h15.22.840,untitled,2023.2.3,59.89254080255971,2023-12-14 14h55.16.524565 -0500,
8,"[-0.2, -0.1]",None,0,10,10,10,,,,,,,,,51.80573129998811,,,,,,,,,,,,,,,,,,,,,,,,,,,,51.790291899989825,51.80573129998811,51.80573129998811,52.28915430000052,52.30577919998905,54.789001299999654,54.789175599988084,None,1,,,,,,,,,,,,,,,,,,,,,,,,,,,,,,,,,,,,,,,,,,,,,nback26,001,2023-12-14_14h15.22.840,untitled,2023.2.3,59.89254080255971,2023-12-14 14h55.16.524565 -0500,
9,"[0.2, -0.1]",None,0,11,11,11,,,,,,,,,54.80558519999613,,,,,,,,,,,,,,,,,,,,,,,,,,,,54.7899907999963,54.80558519999613,54.80558519999613,55.28882079999312,55.305667699998594,57.78883379999024,57.78900520000025,None,1,,,,,,,,,,,,,,,,,,,,,,,,,,,,,,,,,,,,,,,,,,,,,nback26,001,2023-12-14_14h15.22.840,untitled,2023.2.3,59.89254080255971,2023-12-14 14h55.16.524565 -0500,
6,"[-0.3, 0]",None,0,12,12,12,,,,,,,,,57.80568669999775,,,,,,,,,,,,,,,,,,,,,,,,,,,,57.7896686999884,57.80568669999775,57.80568669999775,58.28884829999879,58.30547819999629,60.788799799993285,60.78896249999525,None,1,,,,,,,,,,,,,,,,,,,,,,,,,,,,,,,,,,,,,,,,,,,,,nback26,001,2023-12-14_14h15.22.840,untitled,2023.2.3,59.89254080255971,2023-12-14 14h55.16.524565 -0500,
9,"[0.2, -0.1]",None,0,13,13,13,,,,,,,,,60.80535609999788,,,,,,,,,,,,,,,,,,,,,,,,,,,,60.78961989999516,60.80535609999788,60.80535609999788,61.28883629999473,61.305401799996616,63.788747999991756,63.788979099990684,None,1,,,,,,,,,,,,,,,,,,,,,,,,,,,,,,,,,,,,,,,,,,,,,nback26,001,2023-12-14_14h15.22.840,untitled,2023.2.3,59.89254080255971,2023-12-14 14h55.16.524565 -0500,
7,"[0.3, 0]",None,0,14,14,14,,,,,,,,,63.805447699996876,,,,,,,,,,,,,,,,,,,,,,,,,,,,63.78973859999678,63.805447699996876,63.805447699996876,64.28877449998981,64.30540219999966,66.78890049998881,66.78902889999154,None,1,,,,,,,,,,,,,,,,,,,,,,,,,,,,,,,,,,,,,,,,,,,,,nback26,001,2023-12-14_14h15.22.840,untitled,2023.2.3,59.89254080255971,2023-12-14 14h55.16.524565 -0500,
2,"[0.64, 0.4]",None,0,15,15,15,,,,,,,,,66.80540529999416,,,,,,,,,,,,,,,,,,,,,,,,,,,,66.78949949999515,66.80540529999416,66.80540529999416,67.28870350000216,67.30522179999389,69.78872430000047,69.78886010000133,None,1,,,,,,,,,,,,,,,,,,,,,,,,,,,,,,,,,,,,,,,,,,,,,nback26,001,2023-12-14_14h15.22.840,untitled,2023.2.3,59.89254080255971,2023-12-14 14h55.16.524565 -0500,
2,"[0.64, 0.4]",None,0,16,16,16,,,,,,,,,69.80531599999813,,,,,,,,,,,,,,,,,,,,,,,,,,,,69.78937559999758,69.80531599999813,69.80531599999813,70.28867979999632,70.30519759999879,72.78896749998967,72.78912669999409,None,1,,,,,,,,,,,,,,,,,,,,,,,,,,,,,,,,,,,,,,,,,,,,,nback26,001,2023-12-14_14h15.22.840,untitled,2023.2.3,59.89254080255971,2023-12-14 14h55.16.524565 -0500,
11,"[-0.64, -0.4]",space,0,17,17,17,,,,,,,,,72.8051817999949,,,,,,,,,,,,,,,,,,,,,,,,,,,,72.78973839999526,72.8051817999949,72.8051817999949,73.2885677000013,73.30519669999194,75.78862909998861,75.78880799999752,None,0,,,,,,,,,,,,,,,,,,,,,,,,,,,,,,,,,,,,,,,,,,,,,nback26,001,2023-12-14_14h15.22.840,untitled,2023.2.3,59.89254080255971,2023-12-14 14h55.16.524565 -0500,
11,"[-0.64, -0.4]",space,0,18,18,18,,,,,,,,,75.80527759999677,,,,,,,,,,,,,,,,,,,,,,,,,,,,75.78949939999438,75.80527759999677,75.80527759999677,76.28844849999587,76.30522039999778,78.78856659999292,78.78876409999793,None,0,,,,,,,,,,,,,,,,,,,,,,,,,,,,,,,,,,,,,,,,,,,,,nback26,001,2023-12-14_14h15.22.840,untitled,2023.2.3,59.89254080255971,2023-12-14 14h55.16.524565 -0500,
7,"[0.3, 0]",None,0,19,19,19,,,,,,,,,78.80514529999346,,,,,,,,,,,,,,,,,,,,,,,,,,,,78.78953719999117,78.80514529999346,78.80514529999346,79.28859309999098,79.30510279998998,81.78858459999901,81.78874499999802,None,1,,,,,,,,,,,,,,,,,,,,,,,,,,,,,,,,,,,,,,,,,,,,,nback26,001,2023-12-14_14h15.22.840,untitled,2023.2.3,59.89254080255971,2023-12-14 14h55.16.524565 -0500,
3,"[0, 0.2]",None,0,20,20,20,,,,,,,,,81.80507089999446,,,,,,,,,,,,,,,,,,,,,,,,,,,,81.78935529998853,81.80507089999446,81.80507089999446,82.28855969999859,82.30511099999421,84.78838069998892,84.7885593999963,None,1,,,,,,,,,,,,,,,,,,,,,,,,,,,,,,,,,,,,,,,,,,,,,nback26,001,2023-12-14_14h15.22.840,untitled,2023.2.3,59.89254080255971,2023-12-14 14h55.16.524565 -0500,
10,"[0, -0.2]",None,0,21,21,21,,,,,,,,,84.80513319998863,,,,,,,,,,,,,,,,,,,,,,,,,,,,84.78920929999731,84.80513319998863,84.80513319998863,85.28848699999799,85.30500959999335,87.78860869999335,87.78882439999143,None,1,,,,,,,,,,,,,,,,,,,,,,,,,,,,,,,,,,,,,,,,,,,,,nback26,001,2023-12-14_14h15.22.840,untitled,2023.2.3,59.89254080255971,2023-12-14 14h55.16.524565 -0500,
1,"[-0.64, 0.4]",None,0,22,22,22,,,,,,,,,87.80507229999057,,,,,,,,,,,,,,,,,,,,,,,,,,,,87.78966739999305,87.80507229999057,87.80507229999057,88.2885038999957,88.30507170000055,90.78843989998859,90.78860859999259,None,1,,,,,,,,,,,,,,,,,,,,,,,,,,,,,,,,,,,,,,,,,,,,,nback26,001,2023-12-14_14h15.22.840,untitled,2023.2.3,59.89254080255971,2023-12-14 14h55.16.524565 -0500,
2,"[0.64, 0.4]",None,0,23,23,23,,,,,,,,,90.80503429999226,,,,,,,,,,,,,,,,,,,,,,,,,,,,90.78921449999325,90.80503429999226,90.80503429999226,91.28833919999306,91.30489970000053,93.78825309999229,93.78844340000069,space,0,0.6814744000002975,None,,,,,,,,,,,,,,,,,,,,,,,,,,,,,,,,,,,,,,,,,,,nback26,001,2023-12-14_14h15.22.840,untitled,2023.2.3,59.89254080255971,2023-12-14 14h55.16.524565 -0500,
6,"[-0.3, 0]",None,0,24,24,24,,,,,,,,,93.80489309999393,,,,,,,,,,,,,,,,,,,,,,,,,,,,93.7892981999903,93.80489309999393,93.80489309999393,94.28812599999947,94.30477239999163,96.78831859999627,96.78850219999731,None,1,,,,,,,,,,,,,,,,,,,,,,,,,,,,,,,,,,,,,,,,,,,,,nback26,001,2023-12-14_14h15.22.840,untitled,2023.2.3,59.89254080255971,2023-12-14 14h55.16.524565 -0500,
3,"[0, 0.2]",None,0,25,25,25,,,,,,,,,96.80506179999793,,,,,,,,,,,,,,,,,,,,,,,,,,,,96.78926829999546,96.80506179999793,96.80506179999793,97.2881505999976,97.30476230000204,99.78804010000022,99.78819989999465,None,1,,,,,,,,,,,,,,,,,,,,,,,,,,,,,,,,,,,,,,,,,,,,,nback26,001,2023-12-14_14h15.22.840,untitled,2023.2.3,59.89254080255971,2023-12-14 14h55.16.524565 -0500,
11,"[-0.64, -0.4]",space,0,26,26,26,,,,,,,,,99.80484599999909,,,,,,,,,,,,,,,,,,,,,,,,,,,,99.78880719999142,99.80484599999909,99.80484599999909,100.28804139999556,100.30485029998817,102.78800849999243,102.7881711999944,space,1,0.41414999999688007,None,,,,,,,,,,,,,,,,,,,,,,,,,,,,,,,,,,,,,,,,,,,nback26,001,2023-12-14_14h15.22.840,untitled,2023.2.3,59.89254080255971,2023-12-14 14h55.16.524565 -0500,
1,"[-0.64, 0.4]",None,0,27,27,27,,,,,,,,,102.80458240000007,,,,,,,,,,,,,,,,,,,,,,,,,,,,102.7889228999993,102.80458240000007,102.80458240000007,103.28812839998864,103.30504799999471,105.78810469999735,105.78831360000186,None,1,,,,,,,,,,,,,,,,,,,,,,,,,,,,,,,,,,,,,,,,,,,,,nback26,001,2023-12-14_14h15.22.840,untitled,2023.2.3,59.89254080255971,2023-12-14 14h55.16.524565 -0500,
3,"[0, 0.2]",None,0,28,28,28,,,,,,,,,105.80485219998809,,,,,,,,,,,,,,,,,,,,,,,,,,,,105.78914300000179,105.80485219998809,105.80485219998809,106.28866489999928,106.30459410000185,108.78789929999039,108.78805699999793,None,1,,,,,,,,,,,,,,,,,,,,,,,,,,,,,,,,,,,,,,,,,,,,,nback26,001,2023-12-14_14h15.22.840,untitled,2023.2.3,59.89254080255971,2023-12-14 14h55.16.524565 -0500,
9,"[0.2, -0.1]",None,0,29,29,29,,,,,,,,,108.80457749999186,,,,,,,,,,,,,,,,,,,,,,,,,,,,108.7886537000013,108.80457749999186,108.80457749999186,109.28815379999287,109.30474419999518,111.78788629999326,111.7880504999921,None,1,,,,,,,,,,,,,,,,,,,,,,,,,,,,,,,,,,,,,,,,,,,,,nback26,001,2023-12-14_14h15.22.840,untitled,2023.2.3,59.89254080255971,2023-12-14 14h55.16.524565 -0500,
8,"[-0.2, -0.1]",None,0,30,30,30,,,,,,,,,111.80453129998932,,,,,,,,,,,,,,,,,,,,,,,,,,,,111.78869479999412,111.80453129998932,111.80453129998932,112.28818930000125,112.30450559999736,114.78819019999355,114.78837709999061,None,1,,,,,,,,,,,,,,,,,,,,,,,,,,,,,,,,,,,,,,,,,,,,,nback26,001,2023-12-14_14h15.22.840,untitled,2023.2.3,59.89254080255971,2023-12-14 14h55.16.524565 -0500,
12,"[0.64, -0.4]",None,0,31,31,31,,,,,,,,,114.80444909998914,,,,,,,,,,,,,,,,,,,,,,,,,,,,114.78910549999273,114.80444909998914,114.80444909998914,115.28775869999663,115.30461639999703,117.78815779999422,117.7883337999956,None,1,,,,,,,,,,,,,,,,,,,,,,,,,,,,,,,,,,,,,,,,,,,,,nback26,001,2023-12-14_14h15.22.840,untitled,2023.2.3,59.89254080255971,2023-12-14 14h55.16.524565 -0500,
9,"[0.2, -0.1]",None,0,32,32,32,,,,,,,,,117.80458919999364,,,,,,,,,,,,,,,,,,,,,,,,,,,,117.78902389999712,117.80458919999364,117.80458919999364,118.28787529999681,118.30460859999584,120.78786029999901,120.78804990000208,None,1,,,,,,,,,,,,,,,,,,,,,,,,,,,,,,,,,,,,,,,,,,,,,nback26,001,2023-12-14_14h15.22.840,untitled,2023.2.3,59.89254080255971,2023-12-14 14h55.16.524565 -0500,
11,"[-0.64, -0.4]",space,0,33,33,33,,,,,,,,,120.80449260000023,,,,,,,,,,,,,,,,,,,,,,,,,,,,120.78877649999049,120.80449260000023,120.80449260000023,121.28785989999596,121.30444269999862,123.78782240000146,123.78798199999437,space,1,0.40728249998937827,None,,,,,,,,,,,,,,,,,,,,,,,,,,,,,,,,,,,,,,,,,,,nback26,001,2023-12-14_14h15.22.840,untitled,2023.2.3,59.89254080255971,2023-12-14 14h55.16.524565 -0500,
7,"[0.3, 0]",None,0,34,34,34,,,,,,,,,123.80467630000203,,,,,,,,,,,,,,,,,,,,,,,,,,,,123.78865439999208,123.80467630000203,123.80467630000203,124.28779779998877,124.30442380000022,126.78751209999609,126.78767619999417,None,1,,,,,,,,,,,,,,,,,,,,,,,,,,,,,,,,,,,,,,,,,,,,,nback26,001,2023-12-14_14h15.22.840,untitled,2023.2.3,59.89254080255971,2023-12-14 14h55.16.524565 -0500,
11,"[-0.64, -0.4]",space,0,35,35,35,,,,,,,,,126.80418120000104,,,,,,,,,,,,,,,,,,,,,,,,,,,,126.78810079999676,126.80418120000104,126.80418120000104,127.28783770000155,127.30440609999641,129.7876314999885,129.78780520000146,space,1,0.5086558999901172,None,,,,,,,,,,,,,,,,,,,,,,,,,,,,,,,,,,,,,,,,,,,nback26,001,2023-12-14_14h15.22.840,untitled,2023.2.3,59.89254080255971,2023-12-14 14h55.16.524565 -0500,
4,"[-0.2, 0.1]",None,0,36,36,36,,,,,,,,,129.80434879999666,,,,,,,,,,,,,,,,,,,,,,,,,,,,129.7886376999959,129.80434879999666,129.80434879999666,130.28785239999706,130.30450629998813,132.78746120000142,132.78761439998925,None,1,,,,,,,,,,,,,,,,,,,,,,,,,,,,,,,,,,,,,,,,,,,,,nback26,001,2023-12-14_14h15.22.840,untitled,2023.2.3,59.89254080255971,2023-12-14 14h55.16.524565 -0500,
5,"[0.2, 0.1]",None,0,37,37,37,,,,,,,,,132.8044732999988,,,,,,,,,,,,,,,,,,,,,,,,,,,,132.78823269999702,132.8044732999988,132.8044732999988,133.2875522999966,133.30454109999118,135.78754330000083,135.7877029999945,None,1,,,,,,,,,,,,,,,,,,,,,,,,,,,,,,,,,,,,,,,,,,,,,nback26,001,2023-12-14_14h15.22.840,untitled,2023.2.3,59.89254080255971,2023-12-14 14h55.16.524565 -0500,
6,"[-0.3, 0]",None,0,38,38,38,,,,,,,,,135.80425509999623,,,,,,,,,,,,,,,,,,,,,,,,,,,,135.78830849999213,135.80425509999623,135.80425509999623,136.28738819999853,136.30429429998912,138.78762959998858,138.7878001999925,None,1,,,,,,,,,,,,,,,,,,,,,,,,,,,,,,,,,,,,,,,,,,,,,nback26,001,2023-12-14_14h15.22.840,untitled,2023.2.3,59.89254080255971,2023-12-14 14h55.16.524565 -0500,
11,"[-0.64, -0.4]",space,0,39,39,39,,,,,,,,,138.80404199998884,,,,,,,,,,,,,,,,,,,,,,,,,,,,138.78844749998825,138.80404199998884,138.80404199998884,139.28778729999613,139.30414049999672,141.78751280000142,141.78769289999036,space,1,1.045933800007333,None,,,,,,,,,,,,,,,,,,,,,,,,,,,,,,,,,,,,,,,,,,,nback26,001,2023-12-14_14h15.22.840,untitled,2023.2.3,59.89254080255971,2023-12-14 14h55.16.524565 -0500,
,,,,,,,,,,,,,,,,,,,,,,,,,,,,,,,,,,,,,,,,,,,,,,,,,,,,,,141.78837919999205,141.80413599999156,141.80413599999156,173.22195120000106,space,31.40903489998891,None,,,,,,,,,,,,,,,,,,,,,,,,,,,,,,,,,,,,nback26,001,2023-12-14_14h15.22.840,untitled,2023.2.3,59.89254080255971,2023-12-14 14h55.16.524565 -0500,
10,"[0, -0.2]",None,,,,,0,0,0,0,,,,,174.23719800000254,,,,,,,,,,,,,,,,,,,,,,,,173.2219924999954,173.2371759999951,174.23719800000254,174.2209797999967,,,,,,,,,,,,,,,,,,,174.23534410000138,174.23719800000254,174.23719800000254,174.7371204999945,174.7371204999945,177.2368812999921,177.2368812999921,177.2209557999886,None,1,,,,,,,,,,,,,,,,,,,,,,,,,,nback26,001,2023-12-14_14h15.22.840,untitled,2023.2.3,59.89254080255971,2023-12-14 14h55.16.524565 -0500,
5,"[0.2, 0.1]",None,,,,,0,1,1,1,,,,,177.2368812999921,,,,,,,,,,,,,,,,,,,,,,,,,,,,,,,,,,,,,,,,,,,,,,177.22172010000213,177.2368812999921,177.2368812999921,177.73698299999523,177.73698299999523,180.23696259999997,180.23696259999997,180.22111610000138,None,1,,,,,,,,,,,,,,,,,,,,,,,,,,nback26,001,2023-12-14_14h15.22.840,untitled,2023.2.3,59.89254080255971,2023-12-14 14h55.16.524565 -0500,
6,"[-0.3, 0]",None,,,,,0,2,2,2,,,,,180.23696259999997,,,,,,,,,,,,,,,,,,,,,,,,,,,,,,,,,,,,,,,,,,,,,,180.22176669999317,180.23696259999997,180.23696259999997,180.73674399999436,180.73674399999436,183.23706169999787,183.23706169999787,183.2213400999899,None,1,,,,,,,,,,,,,,,,,,,,,,,,,,nback26,001,2023-12-14_14h15.22.840,untitled,2023.2.3,59.89254080255971,2023-12-14 14h55.16.524565 -0500,
6,"[-0.3, 0]",space,,,,,0,3,3,3,,,,,183.23706169999787,,,,,,,,,,,,,,,,,,,,,,,,,,,,,,,,,,,,,,,,,,,,,,183.22220160000143,183.23706169999787,183.23706169999787,183.7367821999942,183.7367821999942,186.23673659999622,186.23673659999622,186.22079239999584,None,0,,,,,,,,,,,,,,,,,,,,,,,,,,nback26,001,2023-12-14_14h15.22.840,untitled,2023.2.3,59.89254080255971,2023-12-14 14h55.16.524565 -0500,
12,"[0.64, -0.4]",None,,,,,0,4,4,4,,,,,186.23673659999622,,,,,,,,,,,,,,,,,,,,,,,,,,,,,,,,,,,,,,,,,,,,,,186.22140819999913,186.23673659999622,186.23673659999622,186.73670319998928,186.73670319998928,189.2368134999997,189.2368134999997,189.22062089999963,None,1,,,,,,,,,,,,,,,,,,,,,,,,,,nback26,001,2023-12-14_14h15.22.840,untitled,2023.2.3,59.89254080255971,2023-12-14 14h55.16.524565 -0500,
10,"[0, -0.2]",None,,,,,0,5,5,5,,,,,189.2368134999997,,,,,,,,,,,,,,,,,,,,,,,,,,,,,,,,,,,,,,,,,,,,,,189.22120479999285,189.2368134999997,189.2368134999997,189.73670069999935,189.73670069999935,192.23651550000068,192.23651550000068,192.22049409999454,None,1,,,,,,,,,,,,,,,,,,,,,,,,,,nback26,001,2023-12-14_14h15.22.840,untitled,2023.2.3,59.89254080255971,2023-12-14 14h55.16.524565 -0500,
2,"[0.64, 0.4]",None,,,,,0,6,6,6,,,,,192.23651550000068,,,,,,,,,,,,,,,,,,,,,,,,,,,,,,,,,,,,,,,,,,,,,,192.22105649999867,192.23651550000068,192.23651550000068,192.73651560000144,192.73651560000144,195.23650089999137,195.23650089999137,195.220616599996,None,1,,,,,,,,,,,,,,,,,,,,,,,,,,nback26,001,2023-12-14_14h15.22.840,untitled,2023.2.3,59.89254080255971,2023-12-14 14h55.16.524565 -0500,
9,"[0.2, -0.1]",None,,,,,0,7,7,7,,,,,195.23650089999137,,,,,,,,,,,,,,,,,,,,,,,,,,,,,,,,,,,,,,,,,,,,,,195.22122579999268,195.23650089999137,195.23650089999137,195.7364080999978,195.7364080999978,198.2364884999988,198.2364884999988,198.22032509998826,None,1,,,,,,,,,,,,,,,,,,,,,,,,,,nback26,001,2023-12-14_14h15.22.840,untitled,2023.2.3,59.89254080255971,2023-12-14 14h55.16.524565 -0500,
9,"[0.2, -0.1]",space,,,,,0,8,8,8,,,,,198.2364884999988,,,,,,,,,,,,,,,,,,,,,,,,,,,,,,,,,,,,,,,,,,,,,,198.22079539998958,198.2364884999988,198.2364884999988,198.73646729999746,198.73646729999746,201.23643489999813,201.23643489999813,201.22022269999434,None,0,,,,,,,,,,,,,,,,,,,,,,,,,,nback26,001,2023-12-14_14h15.22.840,untitled,2023.2.3,59.89254080255971,2023-12-14 14h55.16.524565 -0500,
6,"[-0.3, 0]",None,,,,,0,9,9,9,,,,,201.23643489999813,,,,,,,,,,,,,,,,,,,,,,,,,,,,,,,,,,,,,,,,,,,,,,201.22075259999838,201.23643489999813,201.23643489999813,201.73676030000206,201.73676030000206,204.23641820000194,204.23641820000194,204.22053179999057,None,1,,,,,,,,,,,,,,,,,,,,,,,,,,nback26,001,2023-12-14_14h15.22.840,untitled,2023.2.3,59.89254080255971,2023-12-14 14h55.16.524565 -0500,
11,"[-0.64, -0.4]",None,,,,,0,10,10,10,,,,,204.23641820000194,,,,,,,,,,,,,,,,,,,,,,,,,,,,,,,,,,,,,,,,,,,,,,204.2211959999986,204.23641820000194,204.23641820000194,204.73653139999078,204.73653139999078,207.23625279999396,207.23625279999396,207.2205213999987,None,1,,,,,,,,,,,,,,,,,,,,,,,,,,nback26,001,2023-12-14_14h15.22.840,untitled,2023.2.3,59.89254080255971,2023-12-14 14h55.16.524565 -0500,
11,"[-0.64, -0.4]",space,,,,,0,11,11,11,,,,,207.23625279999396,,,,,,,,,,,,,,,,,,,,,,,,,,,,,,,,,,,,,,,,,,,,,,207.2211416999926,207.23625279999396,207.23625279999396,207.73674670000037,207.73674670000037,210.23659809998935,210.23659809998935,210.2204742999893,space,1,0.5228372999990825,None,,,,,,,,,,,,,,,,,,,,,,,,nback26,001,2023-12-14_14h15.22.840,untitled,2023.2.3,59.89254080255971,2023-12-14 14h55.16.524565 -0500,
4,"[-0.2, 0.1]",None,,,,,0,12,12,12,,,,,210.23659809998935,,,,,,,,,,,,,,,,,,,,,,,,,,,,,,,,,,,,,,,,,,,,,,210.2214443999983,210.23659809998935,210.23659809998935,210.73636409999745,210.73636409999745,213.23611519999395,213.23611519999395,213.2203382000007,None,1,,,,,,,,,,,,,,,,,,,,,,,,,,nback26,001,2023-12-14_14h15.22.840,untitled,2023.2.3,59.89254080255971,2023-12-14 14h55.16.524565 -0500,
3,"[0, 0.2]",None,,,,,0,13,13,13,,,,,213.23611519999395,,,,,,,,,,,,,,,,,,,,,,,,,,,,,,,,,,,,,,,,,,,,,,213.22084670000186,213.23611519999395,213.23611519999395,213.7363514999888,213.7363514999888,216.2360759000003,216.2360759000003,216.22027409999282,None,1,,,,,,,,,,,,,,,,,,,,,,,,,,nback26,001,2023-12-14_14h15.22.840,untitled,2023.2.3,59.89254080255971,2023-12-14 14h55.16.524565 -0500,
3,"[0, 0.2]",space,,,,,0,14,14,14,,,,,216.2360759000003,,,,,,,,,,,,,,,,,,,,,,,,,,,,,,,,,,,,,,,,,,,,,,216.22081929999695,216.2360759000003,216.2360759000003,216.73627169999236,216.73627169999236,219.23604740000155,219.23604740000155,219.22036759999173,None,0,,,,,,,,,,,,,,,,,,,,,,,,,,nback26,001,2023-12-14_14h15.22.840,untitled,2023.2.3,59.89254080255971,2023-12-14 14h55.16.524565 -0500,
8,"[-0.2, -0.1]",None,,,,,0,15,15,15,,,,,219.23604740000155,,,,,,,,,,,,,,,,,,,,,,,,,,,,,,,,,,,,,,,,,,,,,,219.2209901999886,219.23604740000155,219.23604740000155,219.73600910000096,219.73600910000096,222.2363750999939,222.2363750999939,222.22013249999145,None,1,,,,,,,,,,,,,,,,,,,,,,,,,,nback26,001,2023-12-14_14h15.22.840,untitled,2023.2.3,59.89254080255971,2023-12-14 14h55.16.524565 -0500,
1,"[-0.64, 0.4]",None,,,,,0,16,16,16,,,,,222.2363750999939,,,,,,,,,,,,,,,,,,,,,,,,,,,,,,,,,,,,,,,,,,,,,,222.22070140000142,222.2363750999939,222.2363750999939,222.73607759999868,222.73607759999868,225.23615569999674,225.23615569999674,225.22018459999526,None,1,,,,,,,,,,,,,,,,,,,,,,,,,,nback26,001,2023-12-14_14h15.22.840,untitled,2023.2.3,59.89254080255971,2023-12-14 14h55.16.524565 -0500,
2,"[0.64, 0.4]",None,,,,,0,17,17,17,,,,,225.23615569999674,,,,,,,,,,,,,,,,,,,,,,,,,,,,,,,,,,,,,,,,,,,,,,225.2208091999928,225.23615569999674,225.23615569999674,225.73608199998853,225.73608199998853,228.2360839999892,228.2360839999892,228.22018350000144,None,1,,,,,,,,,,,,,,,,,,,,,,,,,,nback26,001,2023-12-14_14h15.22.840,untitled,2023.2.3,59.89254080255971,2023-12-14 14h55.16.524565 -0500,
4,"[-0.2, 0.1]",None,,,,,0,18,18,18,,,,,228.2360839999892,,,,,,,,,,,,,,,,,,,,,,,,,,,,,,,,,,,,,,,,,,,,,,228.2208227999945,228.2360839999892,228.2360839999892,228.73593369999435,228.73593369999435,231.235937999998,231.235937999998,231.22002659999998,None,1,,,,,,,,,,,,,,,,,,,,,,,,,,nback26,001,2023-12-14_14h15.22.840,untitled,2023.2.3,59.89254080255971,2023-12-14 14h55.16.524565 -0500,
4,"[-0.2, 0.1]",space,,,,,0,19,19,19,,,,,231.235937999998,,,,,,,,,,,,,,,,,,,,,,,,,,,,,,,,,,,,,,,,,,,,,,231.2206398999988,231.235937999998,231.235937999998,231.7360028999974,231.7360028999974,234.23586249999062,234.23586249999062,234.22003319999203,None,0,,,,,,,,,,,,,,,,,,,,,,,,,,nback26,001,2023-12-14_14h15.22.840,untitled,2023.2.3,59.89254080255971,2023-12-14 14h55.16.524565 -0500,
8,"[-0.2, -0.1]",None,,,,,0,20,20,20,,,,,234.23586249999062,,,,,,,,,,,,,,,,,,,,,,,,,,,,,,,,,,,,,,,,,,,,,,234.22071409999626,234.23586249999062,234.23586249999062,234.7359657999914,234.7359657999914,237.23599770000146,237.23599770000146,237.21978909999598,None,1,,,,,,,,,,,,,,,,,,,,,,,,,,nback26,001,2023-12-14_14h15.22.840,untitled,2023.2.3,59.89254080255971,2023-12-14 14h55.16.524565 -0500,
5,"[0.2, 0.1]",None,,,,,0,21,21,21,,,,,237.23599770000146,,,,,,,,,,,,,,,,,,,,,,,,,,,,,,,,,,,,,,,,,,,,,,237.2203213999892,237.23599770000146,237.23599770000146,237.73602499999106,237.73602499999106,240.23580039999797,240.23580039999797,240.21988740000234,None,1,,,,,,,,,,,,,,,,,,,,,,,,,,nback26,001,2023-12-14_14h15.22.840,untitled,2023.2.3,59.89254080255971,2023-12-14 14h55.16.524565 -0500,
5,"[0.2, 0.1]",space,,,,,0,22,22,22,,,,,240.23580039999797,,,,,,,,,,,,,,,,,,,,,,,,,,,,,,,,,,,,,,,,,,,,,,240.2206015999982,240.23580039999797,240.23580039999797,240.73582109999552,240.73582109999552,243.2356446999911,243.2356446999911,243.2200800999999,None,0,,,,,,,,,,,,,,,,,,,,,,,,,,nback26,001,2023-12-14_14h15.22.840,untitled,2023.2.3,59.89254080255971,2023-12-14 14h55.16.524565 -0500,
1,"[-0.64, 0.4]",None,,,,,0,23,23,23,,,,,243.2356446999911,,,,,,,,,,,,,,,,,,,,,,,,,,,,,,,,,,,,,,,,,,,,,,243.220759799995,243.2356446999911,243.2356446999911,243.73578550000093,243.73578550000093,246.23559430000023,246.23559430000023,246.21977809999953,None,1,,,,,,,,,,,,,,,,,,,,,,,,,,nback26,001,2023-12-14_14h15.22.840,untitled,2023.2.3,59.89254080255971,2023-12-14 14h55.16.524565 -0500,
3,"[0, 0.2]",None,,,,,0,24,24,24,,,,,246.23559430000023,,,,,,,,,,,,,,,,,,,,,,,,,,,,,,,,,,,,,,,,,,,,,,246.2204209999909,246.23559430000023,246.23559430000023,246.7356773999927,246.7356773999927,249.23562700000184,249.23562700000184,249.21992959998897,None,1,,,,,,,,,,,,,,,,,,,,,,,,,,nback26,001,2023-12-14_14h15.22.840,untitled,2023.2.3,59.89254080255971,2023-12-14 14h55.16.524565 -0500,
6,"[-0.3, 0]",None,,,,,0,25,25,25,,,,,249.23562700000184,,,,,,,,,,,,,,,,,,,,,,,,,,,,,,,,,,,,,,,,,,,,,,249.2205321999936,249.23562700000184,249.23562700000184,249.735686,249.735686,252.2356132999994,252.2356132999994,252.21972349999123,None,1,,,,,,,,,,,,,,,,,,,,,,,,,,nback26,001,2023-12-14_14h15.22.840,untitled,2023.2.3,59.89254080255971,2023-12-14 14h55.16.524565 -0500,
1,"[-0.64, 0.4]",None,,,,,0,26,26,26,,,,,252.2356132999994,,,,,,,,,,,,,,,,,,,,,,,,,,,,,,,,,,,,,,,,,,,,,,252.22034449999046,252.2356132999994,252.2356132999994,252.73554569999396,252.73554569999396,255.23546499999065,255.23546499999065,255.21983409998938,None,1,,,,,,,,,,,,,,,,,,,,,,,,,,nback26,001,2023-12-14_14h15.22.840,untitled,2023.2.3,59.89254080255971,2023-12-14 14h55.16.524565 -0500,
1,"[-0.64, 0.4]",space,,,,,0,27,27,27,,,,,255.23546499999065,,,,,,,,,,,,,,,,,,,,,,,,,,,,,,,,,,,,,,,,,,,,,,255.2204364999925,255.23546499999065,255.23546499999065,255.73556349999853,255.73556349999853,258.2354473000014,258.2354473000014,258.2193843999994,None,0,,,,,,,,,,,,,,,,,,,,,,,,,,nback26,001,2023-12-14_14h15.22.840,untitled,2023.2.3,59.89254080255971,2023-12-14 14h55.16.524565 -0500,
1,"[-0.64, 0.4]",space,,,,,0,28,28,28,,,,,258.2354473000014,,,,,,,,,,,,,,,,,,,,,,,,,,,,,,,,,,,,,,,,,,,,,,258.2198837999895,258.2354473000014,258.2354473000014,258.735574499995,258.735574499995,261.2354092000023,261.2354092000023,261.21975809999276,None,0,,,,,,,,,,,,,,,,,,,,,,,,,,nback26,001,2023-12-14_14h15.22.840,untitled,2023.2.3,59.89254080255971,2023-12-14 14h55.16.524565 -0500,
3,"[0, 0.2]",None,,,,,0,29,29,29,,,,,261.2354092000023,,,,,,,,,,,,,,,,,,,,,,,,,,,,,,,,,,,,,,,,,,,,,,261.22032419999596,261.2354092000023,261.2354092000023,261.73578689999704,261.73578689999704,264.2352928999899,264.2352928999899,264.2194846999919,None,1,,,,,,,,,,,,,,,,,,,,,,,,,,nback26,001,2023-12-14_14h15.22.840,untitled,2023.2.3,59.89254080255971,2023-12-14 14h55.16.524565 -0500,
12,"[0.64, -0.4]",None,,,,,0,30,30,30,,,,,264.2352928999899,,,,,,,,,,,,,,,,,,,,,,,,,,,,,,,,,,,,,,,,,,,,,,264.21998480000184,264.2352928999899,264.2352928999899,264.73540389999107,264.73540389999107,267.2353034999978,267.2353034999978,267.21955989999697,None,1,,,,,,,,,,,,,,,,,,,,,,,,,,nback26,001,2023-12-14_14h15.22.840,untitled,2023.2.3,59.89254080255971,2023-12-14 14h55.16.524565 -0500,
12,"[0.64, -0.4]",space,,,,,0,31,31,31,,,,,267.2353034999978,,,,,,,,,,,,,,,,,,,,,,,,,,,,,,,,,,,,,,,,,,,,,,267.220247499994,267.2353034999978,267.2353034999978,267.73543139999674,267.73543139999674,270.23518299999705,270.23518299999705,270.2195275999984,None,0,,,,,,,,,,,,,,,,,,,,,,,,,,nback26,001,2023-12-14_14h15.22.840,untitled,2023.2.3,59.89254080255971,2023-12-14 14h55.16.524565 -0500,
2,"[0.64, 0.4]",None,,,,,0,32,32,32,,,,,270.23518299999705,,,,,,,,,,,,,,,,,,,,,,,,,,,,,,,,,,,,,,,,,,,,,,270.2202363999968,270.23518299999705,270.23518299999705,270.73543549999886,270.73543549999886,273.23525689999224,273.23525689999224,273.2198986000003,None,1,,,,,,,,,,,,,,,,,,,,,,,,,,nback26,001,2023-12-14_14h15.22.840,untitled,2023.2.3,59.89254080255971,2023-12-14 14h55.16.524565 -0500,
1,"[-0.64, 0.4]",None,,,,,0,33,33,33,,,,,273.23525689999224,,,,,,,,,,,,,,,,,,,,,,,,,,,,,,,,,,,,,,,,,,,,,,273.2205930999917,273.23525689999224,273.23525689999224,273.73545639999793,273.73545639999793,276.23511309998867,276.23511309998867,276.2193385999999,None,1,,,,,,,,,,,,,,,,,,,,,,,,,,nback26,001,2023-12-14_14h15.22.840,untitled,2023.2.3,59.89254080255971,2023-12-14 14h55.16.524565 -0500,
7,"[0.3, 0]",None,,,,,0,34,34,34,,,,,276.23511309998867,,,,,,,,,,,,,,,,,,,,,,,,,,,,,,,,,,,,,,,,,,,,,,276.22001809999347,276.23511309998867,276.23511309998867,276.7352395999915,276.7352395999915,279.23507280000194,279.23507280000194,279.2195572999917,None,1,,,,,,,,,,,,,,,,,,,,,,,,,,nback26,001,2023-12-14_14h15.22.840,untitled,2023.2.3,59.89254080255971,2023-12-14 14h55.16.524565 -0500,
7,"[0.3, 0]",space,,,,,0,35,35,35,,,,,279.23507280000194,,,,,,,,,,,,,,,,,,,,,,,,,,,,,,,,,,,,,,,,,,,,,,279.22011389999534,279.23507280000194,279.23507280000194,279.73530709999613,279.73530709999613,282.2351728999929,282.2351728999929,282.21919259999413,None,0,,,,,,,,,,,,,,,,,,,,,,,,,,nback26,001,2023-12-14_14h15.22.840,untitled,2023.2.3,59.89254080255971,2023-12-14 14h55.16.524565 -0500,
11,"[-0.64, -0.4]",None,,,,,0,36,36,36,,,,,282.2351728999929,,,,,,,,,,,,,,,,,,,,,,,,,,,,,,,,,,,,,,,,,,,,,,282.21980729998904,282.2351728999929,282.2351728999929,282.7351947999996,282.7351947999996,285.2349668999959,285.2349668999959,285.21929579999414,space,0,0.7078523999953177,None,,,,,,,,,,,,,,,,,,,,,,,,nback26,001,2023-12-14_14h15.22.840,untitled,2023.2.3,59.89254080255971,2023-12-14 14h55.16.524565 -0500,
2,"[0.64, 0.4]",None,,,,,0,37,37,37,,,,,285.2349668999959,,,,,,,,,,,,,,,,,,,,,,,,,,,,,,,,,,,,,,,,,,,,,,285.22002339999017,285.2349668999959,285.2349668999959,285.7352372000023,285.7352372000023,288.23506979999365,288.23506979999365,288.21917250000115,None,1,,,,,,,,,,,,,,,,,,,,,,,,,,nback26,001,2023-12-14_14h15.22.840,untitled,2023.2.3,59.89254080255971,2023-12-14 14h55.16.524565 -0500,
6,"[-0.3, 0]",None,,,,,0,38,38,38,,,,,288.23506979999365,,,,,,,,,,,,,,,,,,,,,,,,,,,,,,,,,,,,,,,,,,,,,,288.21986579999793,288.23506979999365,288.23506979999365,288.7352324999956,288.7352324999956,291.2347643999965,291.2347643999965,291.2189347999956,None,1,,,,,,,,,,,,,,,,,,,,,,,,,,nback26,001,2023-12-14_14h15.22.840,untitled,2023.2.3,59.89254080255971,2023-12-14 14h55.16.524565 -0500,
10,"[0, -0.2]",None,,,,,0,39,39,39,,,,,291.2347643999965,,,,,,,,,,,,,,,,,,,,,,,,,,,,,,,,,,,,,,,,,,,,,,291.219585999992,291.2347643999965,291.2347643999965,291.73484520000056,291.73484520000056,294.2349577999994,294.2349577999994,294.2190325999982,None,1,,,,,,,,,,,,,,,,,,,,,,,,,,nback26,001,2023-12-14_14h15.22.840,untitled,2023.2.3,59.89254080255971,2023-12-14 14h55.16.524565 -0500,
,,,,,,,,,,,,,,,,,,,,,,,,,,,,,,,,,,,,,,,,,,,,,,,,,,,,,,,,,,,,,,,,,,,,,,,,,294.21945639999467,294.2349577999994,294.2349577999994,314.0860883999994,space,19.840353999999934,None,,,,,,,,,,,,,,,,,nback26,001,2023-12-14_14h15.22.840,untitled,2023.2.3,59.89254080255971,2023-12-14 14h55.16.524565 -0500,
,"[0.2, 0.1]",None,,,,,,,,,0,0,0,0,315.10171449999325,,,,,,,,,,,,,,,,,,,,,,,,314.08612949999224,314.1012627000018,315.10171449999325,315.0853403999936,,,,,,,,,,,,,,,,,,,,,,,,,,,,,,,,,,,,,,315.09960200000205,315.10171449999325,315.10171449999325,315.60116330000164,315.60116330000164,318.1013934999937,318.1013934999937,318.0851815999922,None,1,,,,,,,nback26,001,2023-12-14_14h15.22.840,untitled,2023.2.3,59.89254080255971,2023-12-14 14h55.16.524565 -0500,
,"[0.64, 0.4]",None,,,,,,,,,0,1,1,1,318.1013934999937,,,,,,,,,,,,,,,,,,,,,,,,,,,,,,,,,,,,,,,,,,,,,,,,,,,,,,,,,,,,,,,,,318.0859305999911,318.1013934999937,318.1013934999937,318.601176799988,318.601176799988,321.10120999999344,321.10120999999344,321.08516769998823,None,1,,,,,,,nback26,001,2023-12-14_14h15.22.840,untitled,2023.2.3,59.89254080255971,2023-12-14 14h55.16.524565 -0500,
,"[-0.3, 0]",None,,,,,,,,,0,2,2,2,321.10120999999344,,,,,,,,,,,,,,,,,,,,,,,,,,,,,,,,,,,,,,,,,,,,,,,,,,,,,,,,,,,,,,,,,321.08570809999947,321.10120999999344,321.10120999999344,321.6012297999987,321.6012297999987,324.10126859998854,324.10126859998854,324.08542069999385,None,1,,,,,,,nback26,001,2023-12-14_14h15.22.840,untitled,2023.2.3,59.89254080255971,2023-12-14 14h55.16.524565 -0500,
,"[0.2, -0.1]",None,,,,,,,,,0,3,3,3,324.10126859998854,,,,,,,,,,,,,,,,,,,,,,,,,,,,,,,,,,,,,,,,,,,,,,,,,,,,,,,,,,,,,,,,,324.0861949999962,324.10126859998854,324.10126859998854,324.60113949999504,324.60113949999504,327.1012291999941,327.1012291999941,327.08551199999056,None,1,,,,,,,nback26,001,2023-12-14_14h15.22.840,untitled,2023.2.3,59.89254080255971,2023-12-14 14h55.16.524565 -0500,
,"[0, 0.2]",None,,,,,,,,,0,4,4,4,327.1012291999941,,,,,,,,,,,,,,,,,,,,,,,,,,,,,,,,,,,,,,,,,,,,,,,,,,,,,,,,,,,,,,,,,327.08630569999514,327.1012291999941,327.1012291999941,327.60102269999334,327.60102269999334,330.1010346999974,330.1010346999974,330.0851410999894,None,1,,,,,,,nback26,001,2023-12-14_14h15.22.840,untitled,2023.2.3,59.89254080255971,2023-12-14 14h55.16.524565 -0500,
,"[0.2, -0.1]",space,,,,,,,,,0,5,5,5,330.1010346999974,,,,,,,,,,,,,,,,,,,,,,,,,,,,,,,,,,,,,,,,,,,,,,,,,,,,,,,,,,,,,,,,,330.08582919999026,330.1010346999974,330.1010346999974,330.60098439999274,330.60098439999274,333.10100019999663,333.10100019999663,333.08527080000204,None,0,,,,,,,nback26,001,2023-12-14_14h15.22.840,untitled,2023.2.3,59.89254080255971,2023-12-14 14h55.16.524565 -0500,
,"[0, -0.2]",None,,,,,,,,,0,6,6,6,333.10100019999663,,,,,,,,,,,,,,,,,,,,,,,,,,,,,,,,,,,,,,,,,,,,,,,,,,,,,,,,,,,,,,,,,333.0859913000022,333.10100019999663,333.10100019999663,333.6008475999988,333.6008475999988,336.10078809999686,336.10078809999686,336.08504179999,None,1,,,,,,,nback26,001,2023-12-14_14h15.22.840,untitled,2023.2.3,59.89254080255971,2023-12-14 14h55.16.524565 -0500,
,"[0.64, -0.4]",None,,,,,,,,,0,7,7,7,336.10078809999686,,,,,,,,,,,,,,,,,,,,,,,,,,,,,,,,,,,,,,,,,,,,,,,,,,,,,,,,,,,,,,,,,336.0856802999915,336.10078809999686,336.10078809999686,336.60091389999434,336.60091389999434,339.10087359999306,339.10087359999306,339.08535739999206,None,1,,,,,,,nback26,001,2023-12-14_14h15.22.840,untitled,2023.2.3,59.89254080255971,2023-12-14 14h55.16.524565 -0500,
,"[0.3, 0]",None,,,,,,,,,0,8,8,8,339.10087359999306,,,,,,,,,,,,,,,,,,,,,,,,,,,,,,,,,,,,,,,,,,,,,,,,,,,,,,,,,,,,,,,,,339.08628769998904,339.10087359999306,339.10087359999306,339.6009081999946,339.6009081999946,342.10083949999535,342.10083949999535,342.08513039999525,None,1,,,,,,,nback26,001,2023-12-14_14h15.22.840,untitled,2023.2.3,59.89254080255971,2023-12-14 14h55.16.524565 -0500,
,"[0.64, -0.4]",space,,,,,,,,,0,9,9,9,342.10083949999535,,,,,,,,,,,,,,,,,,,,,,,,,,,,,,,,,,,,,,,,,,,,,,,,,,,,,,,,,,,,,,,,,342.08585469999525,342.10083949999535,342.10083949999535,342.6009714999964,342.6009714999964,345.1006992999901,345.1006992999901,345.08485729999666,None,0,,,,,,,nback26,001,2023-12-14_14h15.22.840,untitled,2023.2.3,59.89254080255971,2023-12-14 14h55.16.524565 -0500,
,"[-0.64, 0.4]",None,,,,,,,,,0,10,10,10,345.1006992999901,,,,,,,,,,,,,,,,,,,,,,,,,,,,,,,,,,,,,,,,,,,,,,,,,,,,,,,,,,,,,,,,,345.0854709999985,345.1006992999901,345.1006992999901,345.6008432999952,345.6008432999952,348.1007469999895,348.1007469999895,348.0850126000005,None,1,,,,,,,nback26,001,2023-12-14_14h15.22.840,untitled,2023.2.3,59.89254080255971,2023-12-14 14h55.16.524565 -0500,
,"[0.2, 0.1]",None,,,,,,,,,0,11,11,11,348.1007469999895,,,,,,,,,,,,,,,,,,,,,,,,,,,,,,,,,,,,,,,,,,,,,,,,,,,,,,,,,,,,,,,,,348.08573289999913,348.1007469999895,348.1007469999895,348.6006774999987,348.6006774999987,351.10052569999243,351.10052569999243,351.0847228999919,None,1,,,,,,,nback26,001,2023-12-14_14h15.22.840,untitled,2023.2.3,59.89254080255971,2023-12-14 14h55.16.524565 -0500,
,"[0.3, 0]",None,,,,,,,,,0,12,12,12,351.10052569999243,,,,,,,,,,,,,,,,,,,,,,,,,,,,,,,,,,,,,,,,,,,,,,,,,,,,,,,,,,,,,,,,,351.0853403999936,351.10052569999243,351.10052569999243,351.60065599999507,351.60065599999507,354.1008170999994,354.1008170999994,354.0847719000012,None,1,,,,,,,nback26,001,2023-12-14_14h15.22.840,untitled,2023.2.3,59.89254080255971,2023-12-14 14h55.16.524565 -0500,
,"[0.2, 0.1]",space,,,,,,,,,0,13,13,13,354.1008170999994,,,,,,,,,,,,,,,,,,,,,,,,,,,,,,,,,,,,,,,,,,,,,,,,,,,,,,,,,,,,,,,,,354.0855537999887,354.1008170999994,354.1008170999994,354.6005804000015,354.6005804000015,357.1005131999991,357.1005131999991,357.0848569999944,None,0,,,,,,,nback26,001,2023-12-14_14h15.22.840,untitled,2023.2.3,59.89254080255971,2023-12-14 14h55.16.524565 -0500,
,"[-0.3, 0]",None,,,,,,,,,0,14,14,14,357.1005131999991,,,,,,,,,,,,,,,,,,,,,,,,,,,,,,,,,,,,,,,,,,,,,,,,,,,,,,,,,,,,,,,,,357.0855409999931,357.1005131999991,357.1005131999991,357.6006089000002,357.6006089000002,360.1004610999953,360.1004610999953,360.0844680000009,None,1,,,,,,,nback26,001,2023-12-14_14h15.22.840,untitled,2023.2.3,59.89254080255971,2023-12-14 14h55.16.524565 -0500,
,"[0, 0.2]",None,,,,,,,,,0,15,15,15,360.1004610999953,,,,,,,,,,,,,,,,,,,,,,,,,,,,,,,,,,,,,,,,,,,,,,,,,,,,,,,,,,,,,,,,,360.0850105999998,360.1004610999953,360.1004610999953,360.60036989999935,360.60036989999935,363.10030749998987,363.10030749998987,363.0846101999923,None,1,,,,,,,nback26,001,2023-12-14_14h15.22.840,untitled,2023.2.3,59.89254080255971,2023-12-14 14h55.16.524565 -0500,
,"[-0.3, 0]",space,,,,,,,,,0,16,16,16,363.10030749998987,,,,,,,,,,,,,,,,,,,,,,,,,,,,,,,,,,,,,,,,,,,,,,,,,,,,,,,,,,,,,,,,,363.0852482999908,363.10030749998987,363.10030749998987,363.600314299998,363.600314299998,366.10024390000035,366.10024390000035,366.0843080999912,None,0,,,,,,,nback26,001,2023-12-14_14h15.22.840,untitled,2023.2.3,59.89254080255971,2023-12-14 14h55.16.524565 -0500,
,"[-0.64, -0.4]",None,,,,,,,,,0,17,17,17,366.10024390000035,,,,,,,,,,,,,,,,,,,,,,,,,,,,,,,,,,,,,,,,,,,,,,,,,,,,,,,,,,,,,,,,,366.08497579999676,366.10024390000035,366.10024390000035,366.60043379999115,366.60043379999115,369.1003318000003,369.1003318000003,369.0843931999989,None,1,,,,,,,nback26,001,2023-12-14_14h15.22.840,untitled,2023.2.3,59.89254080255971,2023-12-14 14h55.16.524565 -0500,
,"[-0.2, -0.1]",None,,,,,,,,,0,18,18,18,369.1003318000003,,,,,,,,,,,,,,,,,,,,,,,,,,,,,,,,,,,,,,,,,,,,,,,,,,,,,,,,,,,,,,,,,369.08507010000176,369.1003318000003,369.1003318000003,369.6003020999924,369.6003020999924,372.1001380999951,372.1001380999951,372.0842732999881,None,1,,,,,,,nback26,001,2023-12-14_14h15.22.840,untitled,2023.2.3,59.89254080255971,2023-12-14 14h55.16.524565 -0500,
,"[0.2, -0.1]",None,,,,,,,,,0,19,19,19,372.1001380999951,,,,,,,,,,,,,,,,,,,,,,,,,,,,,,,,,,,,,,,,,,,,,,,,,,,,,,,,,,,,,,,,,372.08483769999293,372.1001380999951,372.1001380999951,372.60023759999603,372.60023759999603,375.1003300000011,375.1003300000011,375.0840246000007,None,1,,,,,,,nback26,001,2023-12-14_14h15.22.840,untitled,2023.2.3,59.89254080255971,2023-12-14 14h55.16.524565 -0500,
,"[0.2, -0.1]",None,,,,,,,,,0,20,20,20,375.1003300000011,,,,,,,,,,,,,,,,,,,,,,,,,,,,,,,,,,,,,,,,,,,,,,,,,,,,,,,,,,,,,,,,,375.08455590000085,375.1003300000011,375.1003300000011,375.6000472000014,375.6000472000014,378.1001213999989,378.1001213999989,378.08444409999356,None,1,,,,,,,nback26,001,2023-12-14_14h15.22.840,untitled,2023.2.3,59.89254080255971,2023-12-14 14h55.16.524565 -0500,
,"[-0.64, 0.4]",None,,,,,,,,,0,21,21,21,378.1001213999989,,,,,,,,,,,,,,,,,,,,,,,,,,,,,,,,,,,,,,,,,,,,,,,,,,,,,,,,,,,,,,,,,378.08512340000016,378.1001213999989,378.1001213999989,378.60027249999985,378.60027249999985,381.10030469999765,381.10030469999765,381.0842849999899,None,1,,,,,,,nback26,001,2023-12-14_14h15.22.840,untitled,2023.2.3,59.89254080255971,2023-12-14 14h55.16.524565 -0500,
,"[0, 0.2]",None,,,,,,,,,0,22,22,22,381.10030469999765,,,,,,,,,,,,,,,,,,,,,,,,,,,,,,,,,,,,,,,,,,,,,,,,,,,,,,,,,,,,,,,,,381.0849393999961,381.10030469999765,381.10030469999765,381.6000286999915,381.6000286999915,384.1002761999989,384.1002761999989,384.0840884999925,None,1,,,,,,,nback26,001,2023-12-14_14h15.22.840,untitled,2023.2.3,59.89254080255971,2023-12-14 14h55.16.524565 -0500,
,"[0.64, -0.4]",None,,,,,,,,,0,23,23,23,384.1002761999989,,,,,,,,,,,,,,,,,,,,,,,,,,,,,,,,,,,,,,,,,,,,,,,,,,,,,,,,,,,,,,,,,384.0847300000023,384.1002761999989,384.1002761999989,384.5999310999905,384.5999310999905,387.1001236000011,387.1001236000011,387.08418749998964,None,1,,,,,,,nback26,001,2023-12-14_14h15.22.840,untitled,2023.2.3,59.89254080255971,2023-12-14 14h55.16.524565 -0500,
,"[0, 0.2]",space,,,,,,,,,0,24,24,24,387.1001236000011,,,,,,,,,,,,,,,,,,,,,,,,,,,,,,,,,,,,,,,,,,,,,,,,,,,,,,,,,,,,,,,,,387.08496149998973,387.1001236000011,387.1001236000011,387.59979829999793,387.59979829999793,390.0999850999942,390.0999850999942,390.0843787999911,None,0,,,,,,,nback26,001,2023-12-14_14h15.22.840,untitled,2023.2.3,59.89254080255971,2023-12-14 14h55.16.524565 -0500,
,"[-0.2, 0.1]",None,,,,,,,,,0,25,25,25,390.0999850999942,,,,,,,,,,,,,,,,,,,,,,,,,,,,,,,,,,,,,,,,,,,,,,,,,,,,,,,,,,,,,,,,,390.08513669999957,390.0999850999942,390.0999850999942,390.6000902999949,390.6000902999949,393.09995119999803,393.09995119999803,393.08397700000205,space,0,0.6832646000111708,None,,,,,nback26,001,2023-12-14_14h15.22.840,untitled,2023.2.3,59.89254080255971,2023-12-14 14h55.16.524565 -0500,
,"[0.3, 0]",None,,,,,,,,,0,26,26,26,393.09995119999803,,,,,,,,,,,,,,,,,,,,,,,,,,,,,,,,,,,,,,,,,,,,,,,,,,,,,,,,,,,,,,,,,393.0847403999942,393.09995119999803,393.09995119999803,393.59990169999946,393.59990169999946,396.0998872999917,396.0998872999917,396.0841359999904,None,1,,,,,,,nback26,001,2023-12-14_14h15.22.840,untitled,2023.2.3,59.89254080255971,2023-12-14 14h55.16.524565 -0500,
,"[-0.2, 0.1]",space,,,,,,,,,0,27,27,27,396.0998872999917,,,,,,,,,,,,,,,,,,,,,,,,,,,,,,,,,,,,,,,,,,,,,,,,,,,,,,,,,,,,,,,,,396.08478629999445,396.0998872999917,396.0998872999917,396.6000581999979,396.6000581999979,399.10008029999153,399.10008029999153,399.08439999999246,None,0,,,,,,,nback26,001,2023-12-14_14h15.22.840,untitled,2023.2.3,59.89254080255971,2023-12-14 14h55.16.524565 -0500,
,"[-0.2, 0.1]",None,,,,,,,,,0,28,28,28,399.10008029999153,,,,,,,,,,,,,,,,,,,,,,,,,,,,,,,,,,,,,,,,,,,,,,,,,,,,,,,,,,,,,,,,,399.08508989999245,399.10008029999153,399.10008029999153,399.5997694999969,399.5997694999969,402.09983700000157,402.09983700000157,402.08413160000055,None,1,,,,,,,nback26,001,2023-12-14_14h15.22.840,untitled,2023.2.3,59.89254080255971,2023-12-14 14h55.16.524565 -0500,
,"[0.2, 0.1]",None,,,,,,,,,0,29,29,29,402.09983700000157,,,,,,,,,,,,,,,,,,,,,,,,,,,,,,,,,,,,,,,,,,,,,,,,,,,,,,,,,,,,,,,,,402.0848011999915,402.09983700000157,402.09983700000157,402.5996712999913,402.5996712999913,405.0996607999987,405.0996607999987,405.0837070999987,None,1,,,,,,,nback26,001,2023-12-14_14h15.22.840,untitled,2023.2.3,59.89254080255971,2023-12-14 14h55.16.524565 -0500,
,"[-0.64, -0.4]",None,,,,,,,,,0,30,30,30,405.0996607999987,,,,,,,,,,,,,,,,,,,,,,,,,,,,,,,,,,,,,,,,,,,,,,,,,,,,,,,,,,,,,,,,,405.08429289999185,405.0996607999987,405.0996607999987,405.5999260999961,405.5999260999961,408.0997090999881,408.0997090999881,408.0837482999923,space,0,0.3761149999918416,None,,,,,nback26,001,2023-12-14_14h15.22.840,untitled,2023.2.3,59.89254080255971,2023-12-14 14h55.16.524565 -0500,
,"[0, -0.2]",None,,,,,,,,,0,31,31,31,408.0997090999881,,,,,,,,,,,,,,,,,,,,,,,,,,,,,,,,,,,,,,,,,,,,,,,,,,,,,,,,,,,,,,,,,408.08441660000244,408.0997090999881,408.0997090999881,408.5996943999926,408.5996943999926,411.09952969998994,411.09952969998994,411.08371369999077,None,1,,,,,,,nback26,001,2023-12-14_14h15.22.840,untitled,2023.2.3,59.89254080255971,2023-12-14 14h55.16.524565 -0500,
,"[-0.64, -0.4]",space,,,,,,,,,0,32,32,32,411.09952969998994,,,,,,,,,,,,,,,,,,,,,,,,,,,,,,,,,,,,,,,,,,,,,,,,,,,,,,,,,,,,,,,,,411.08429420000175,411.09952969998994,411.09952969998994,411.5998959999997,411.5998959999997,414.0997911000013,414.0997911000013,414.0837542999943,space,1,0.6013781000074232,None,,,,,nback26,001,2023-12-14_14h15.22.840,untitled,2023.2.3,59.89254080255971,2023-12-14 14h55.16.524565 -0500,
,"[0.64, 0.4]",None,,,,,,,,,0,33,33,33,414.0997911000013,,,,,,,,,,,,,,,,,,,,,,,,,,,,,,,,,,,,,,,,,,,,,,,,,,,,,,,,,,,,,,,,,414.0844042999961,414.0997911000013,414.0997911000013,414.59987479999836,414.59987479999836,417.09942479999154,417.09942479999154,417.08376639999915,None,1,,,,,,,nback26,001,2023-12-14_14h15.22.840,untitled,2023.2.3,59.89254080255971,2023-12-14 14h55.16.524565 -0500,
,"[-0.3, 0]",None,,,,,,,,,0,34,34,34,417.09942479999154,,,,,,,,,,,,,,,,,,,,,,,,,,,,,,,,,,,,,,,,,,,,,,,,,,,,,,,,,,,,,,,,,417.08451989998866,417.09942479999154,417.09942479999154,417.5994769999961,417.5994769999961,420.0995123999892,420.0995123999892,420.0836392999918,None,1,,,,,,,nback26,001,2023-12-14_14h15.22.840,untitled,2023.2.3,59.89254080255971,2023-12-14 14h55.16.524565 -0500,
,"[0.3, 0]",None,,,,,,,,,0,35,35,35,420.0995123999892,,,,,,,,,,,,,,,,,,,,,,,,,,,,,,,,,,,,,,,,,,,,,,,,,,,,,,,,,,,,,,,,,420.08420909999404,420.0995123999892,420.0995123999892,420.5993802000012,420.5993802000012,423.0994827999966,423.0994827999966,423.083716299996,None,1,,,,,,,nback26,001,2023-12-14_14h15.22.840,untitled,2023.2.3,59.89254080255971,2023-12-14 14h55.16.524565 -0500,
,"[-0.3, 0]",space,,,,,,,,,0,36,36,36,423.0994827999966,,,,,,,,,,,,,,,,,,,,,,,,,,,,,,,,,,,,,,,,,,,,,,,,,,,,,,,,,,,,,,,,,423.0844217999984,423.0994827999966,423.0994827999966,423.59948489999806,423.59948489999806,426.0993344000017,426.0993344000017,426.0834876000008,None,0,,,,,,,nback26,001,2023-12-14_14h15.22.840,untitled,2023.2.3,59.89254080255971,2023-12-14 14h55.16.524565 -0500,
,"[0, -0.2]",None,,,,,,,,,0,37,37,37,426.0993344000017,,,,,,,,,,,,,,,,,,,,,,,,,,,,,,,,,,,,,,,,,,,,,,,,,,,,,,,,,,,,,,,,,426.0841347999958,426.0993344000017,426.0993344000017,426.59949909998977,426.59949909998977,429.09932959999423,429.09932959999423,429.08381139999256,None,1,,,,,,,nback26,001,2023-12-14_14h15.22.840,untitled,2023.2.3,59.89254080255971,2023-12-14 14h55.16.524565 -0500,
,"[0.3, 0]",None,,,,,,,,,0,38,38,38,429.09932959999423,,,,,,,,,,,,,,,,,,,,,,,,,,,,,,,,,,,,,,,,,,,,,,,,,,,,,,,,,,,,,,,,,429.08460069999273,429.09932959999423,429.09932959999423,429.5991473999893,429.5991473999893,432.0993477000011,432.0993477000011,432.0831862999912,None,1,,,,,,,nback26,001,2023-12-14_14h15.22.840,untitled,2023.2.3,59.89254080255971,2023-12-14 14h55.16.524565 -0500,
,"[0.2, 0.1]",None,,,,,,,,,0,39,39,39,432.0993477000011,,,,,,,,,,,,,,,,,,,,,,,,,,,,,,,,,,,,,,,,,,,,,,,,,,,,,,,,,,,,,,,,,432.0837881999905,432.0993477000011,432.0993477000011,432.59937149999314,432.59937149999314,435.0997070000012,435.0997070000012,435.08340989999124,None,1,,,,,,,nback26,001,2023-12-14_14h15.22.840,untitled,2023.2.3,59.89254080255971,2023-12-14 14h55.16.524565 -0500,
,,,,,,,,,,,,,,,,,,,,,,,,,,,,,,,,,,,,,,,,,,,,,,,,,,,,,,,,,,,,,,,,,,,,,,,,,,,,,,,,,,,,,,,,,,,,435.0838231999951,435.0997070000012,438.0990899999888,438.0832240000018,,,,,,,,
