square,location,corrAns,trials_0.thisRepN,trials_0.thisTrialN,trials_0.thisN,trials_0.thisIndex,trials_1.thisRepN,trials_1.thisTrialN,trials_1.thisN,trials_1.thisIndex,trials_2.thisRepN,trials_2.thisTrialN,trials_2.thisN,trials_2.thisIndex,thisRow.t,notes,Instructions.started,instructions.started,key_resp.started,inst_sq11.started,Instructions.stopped,key_resp.keys,key_resp.rt,key_resp.duration,All.started,sq_1.started,sq_2.started,sq_3.started,sq_4.started,sq_5.started,sq_6.started,sq_7.started,sq_8.started,sq_9.started,sq_10.started,sq_11.started,sq_12.started,All.stopped,Fixation.started,fixation_3.started,fixation_3.stopped,Fixation.stopped,N_back_0_Trial.started,target_square_0.started,response_0.started,fixation_0.started,target_square_0.stopped,fixation_0.stopped,N_back_0_Trial.stopped,response_0.keys,response_0.corr,response_0.rt,response_0.duration,Instructions_1.started,instructions_1.started,key_resp_1.started,Instructions_1.stopped,key_resp_1.keys,key_resp_1.rt,key_resp_1.duration,N_back_1_Trial.started,target_square_1.started,response_1.started,target_square_1.stopped,fixation_1.started,fixation_1.stopped,response_1.stopped,N_back_1_Trial.stopped,response_1.keys,response_1.corr,response_1.rt,response_1.duration,Instructions_2.started,instructions_2.started,key_resp_2.started,Instructions_2.stopped,key_resp_2.keys,key_resp_2.rt,key_resp_2.duration,N_back_2_trials.started,target_square_2.started,response_2.started,fixation_2.started,target_square_2.stopped,fixation_2.stopped,response_2.stopped,N_back_2_trials.stopped,response_2.keys,response_2.corr,response_2.rt,response_2.duration,End.started,thank_you.started,End.stopped,participant,session,date,expName,psychopyVersion,frameRate,expStart,
,,,,,,,,,,,,,,,,,0.001886700000000019,0.004754800000000614,0.004754800000000614,0.004754800000000614,1737.4267141999999,space,1737.4201936,None,,,,,,,,,,,,,,,,,,,,,,,,,,,,,,,,,,,,,,,,,,,,,,,,,,,,,,,,,,,,,,,,,,,,,,,nback16,001,2023-12-11_16h21.30.750,untitled,2023.2.3,60.033414598564455,2023-12-11 16h21.40.403837 -0500,
6,"[-0.3, 0]",None,0,0,0,0,,,,,,,,,1739.4454848999999,,,,,,,,,,1737.4267662,1737.4407787999999,1737.4407787999999,1737.4407787999999,1737.4407787999999,1737.4407787999999,1737.4407787999999,1737.4407787999999,1737.4407787999999,1737.4407787999999,1737.4407787999999,1737.4407787999999,1737.4407787999999,1738.424793,1738.4248098,1738.4409240999998,1739.4454848999999,1739.4251589,1739.4435601999999,1739.4454848999999,1739.4454848999999,1739.9243351999999,1739.9575793,1742.4242697,1742.4411172,None,1,,,,,,,,,,,,,,,,,,,,,,,,,,,,,,,,,,,,,,,,,,,,nback16,001,2023-12-11_16h21.30.750,untitled,2023.2.3,60.033414598564455,2023-12-11 16h21.40.403837 -0500,
10,"[0, -0.2]",None,0,1,1,1,,,,,,,,,1742.4573888,,,,,,,,,,,,,,,,,,,,,,,,,,,,1742.4420456999999,1742.4573888,1742.4573888,1742.9244489,1742.9575702,1745.4242692,1745.441091,None,1,,,,,,,,,,,,,,,,,,,,,,,,,,,,,,,,,,,,,,,,,,,,nback16,001,2023-12-11_16h21.30.750,untitled,2023.2.3,60.033414598564455,2023-12-11 16h21.40.403837 -0500,
11,"[-0.64, -0.4]",space,0,2,2,2,,,,,,,,,1745.457414,,,,,,,,,,,,,,,,,,,,,,,,,,,,1745.4418604,1745.457414,1745.457414,1745.9242686999999,1745.9575969,1748.4241503,1748.4410498,space,1,0.9282573999998931,None,,,,,,,,,,,,,,,,,,,,,,,,,,,,,,,,,,,,,,,,,,nback16,001,2023-12-11_16h21.30.750,untitled,2023.2.3,60.033414598564455,2023-12-11 16h21.40.403837 -0500,
12,"[0.64, -0.4]",None,0,3,3,3,,,,,,,,,1748.4575055999999,,,,,,,,,,,,,,,,,,,,,,,,,,,,1748.4421261999998,1748.4575055999999,1748.4575055999999,1748.9241826999998,1748.9573407999999,1751.4243076999999,1751.4410689,None,1,,,,,,,,,,,,,,,,,,,,,,,,,,,,,,,,,,,,,,,,,,,,nback16,001,2023-12-11_16h21.30.750,untitled,2023.2.3,60.033414598564455,2023-12-11 16h21.40.403837 -0500,
1,"[-0.64, 0.4]",None,0,4,4,4,,,,,,,,,1751.4574046999999,,,,,,,,,,,,,,,,,,,,,,,,,,,,1751.4419341,1751.4574046999999,1751.4574046999999,1751.9243169,1751.9575378,1754.4242096,1754.4407826,None,1,,,,,,,,,,,,,,,,,,,,,,,,,,,,,,,,,,,,,,,,,,,,nback16,001,2023-12-11_16h21.30.750,untitled,2023.2.3,60.033414598564455,2023-12-11 16h21.40.403837 -0500,
1,"[-0.64, 0.4]",None,0,5,5,5,,,,,,,,,1754.4574142,,,,,,,,,,,,,,,,,,,,,,,,,,,,1754.4415288999999,1754.4574142,1754.4574142,1754.9239711,1754.9573785,1757.4237999,1757.4406887999999,None,1,,,,,,,,,,,,,,,,,,,,,,,,,,,,,,,,,,,,,,,,,,,,nback16,001,2023-12-11_16h21.30.750,untitled,2023.2.3,60.033414598564455,2023-12-11 16h21.40.403837 -0500,
4,"[-0.2, 0.1]",None,0,6,6,6,,,,,,,,,1757.4572787,,,,,,,,,,,,,,,,,,,,,,,,,,,,1757.441125,1757.4572787,1757.4572787,1757.923959,1757.9573596,1760.4239339,1760.4409938,None,1,,,,,,,,,,,,,,,,,,,,,,,,,,,,,,,,,,,,,,,,,,,,nback16,001,2023-12-11_16h21.30.750,untitled,2023.2.3,60.033414598564455,2023-12-11 16h21.40.403837 -0500,
5,"[0.2, 0.1]",None,0,7,7,7,,,,,,,,,1760.4573199,,,,,,,,,,,,,,,,,,,,,,,,,,,,1760.4417177999999,1760.4573199,1760.4573199,1760.9238985,1760.9571411,1763.4240379,1763.4408196,None,1,,,,,,,,,,,,,,,,,,,,,,,,,,,,,,,,,,,,,,,,,,,,nback16,001,2023-12-11_16h21.30.750,untitled,2023.2.3,60.033414598564455,2023-12-11 16h21.40.403837 -0500,
11,"[-0.64, -0.4]",space,0,8,8,8,,,,,,,,,1763.4572418,,,,,,,,,,,,,,,,,,,,,,,,,,,,1763.4415604,1763.4572418,1763.4572418,1763.9239043,1763.957244,1766.4239448,1766.4407339,space,1,0.6836809999999787,None,,,,,,,,,,,,,,,,,,,,,,,,,,,,,,,,,,,,,,,,,,nback16,001,2023-12-11_16h21.30.750,untitled,2023.2.3,60.033414598564455,2023-12-11 16h21.40.403837 -0500,
9,"[0.2, -0.1]",None,0,9,9,9,,,,,,,,,1766.4573335,,,,,,,,,,,,,,,,,,,,,,,,,,,,1766.4416136,1766.4573335,1766.4573335,1766.923923,1766.9573204,1769.4238083,1769.4406491,None,1,,,,,,,,,,,,,,,,,,,,,,,,,,,,,,,,,,,,,,,,,,,,nback16,001,2023-12-11_16h21.30.750,untitled,2023.2.3,60.033414598564455,2023-12-11 16h21.40.403837 -0500,
8,"[-0.2, -0.1]",None,0,10,10,10,,,,,,,,,1769.4570472,,,,,,,,,,,,,,,,,,,,,,,,,,,,1769.4414321,1769.4570472,1769.4570472,1769.9237732,1769.9571359,1772.4237593999999,1772.4406652999999,None,1,,,,,,,,,,,,,,,,,,,,,,,,,,,,,,,,,,,,,,,,,,,,nback16,001,2023-12-11_16h21.30.750,untitled,2023.2.3,60.033414598564455,2023-12-11 16h21.40.403837 -0500,
9,"[0.2, -0.1]",None,0,11,11,11,,,,,,,,,1772.4570489,,,,,,,,,,,,,,,,,,,,,,,,,,,,1772.4413518,1772.4570489,1772.4570489,1772.9237431,1772.9569887999999,1775.4237182,1775.4403987,None,1,,,,,,,,,,,,,,,,,,,,,,,,,,,,,,,,,,,,,,,,,,,,nback16,001,2023-12-11_16h21.30.750,untitled,2023.2.3,60.033414598564455,2023-12-11 16h21.40.403837 -0500,
6,"[-0.3, 0]",None,0,12,12,12,,,,,,,,,1775.4568725,,,,,,,,,,,,,,,,,,,,,,,,,,,,1775.4408942,1775.4568725,1775.4568725,1775.9235985999999,1775.9569847,1778.4236799999999,1778.4402291,None,1,,,,,,,,,,,,,,,,,,,,,,,,,,,,,,,,,,,,,,,,,,,,nback16,001,2023-12-11_16h21.30.750,untitled,2023.2.3,60.033414598564455,2023-12-11 16h21.40.403837 -0500,
9,"[0.2, -0.1]",None,0,13,13,13,,,,,,,,,1778.456565,,,,,,,,,,,,,,,,,,,,,,,,,,,,1778.4409976,1778.456565,1778.456565,1778.9403435,1778.9569460999999,1781.44027,1781.4404485999999,None,1,,,,,,,,,,,,,,,,,,,,,,,,,,,,,,,,,,,,,,,,,,,,nback16,001,2023-12-11_16h21.30.750,untitled,2023.2.3,60.033414598564455,2023-12-11 16h21.40.403837 -0500,
7,"[0.3, 0]",None,0,14,14,14,,,,,,,,,1781.4568933,,,,,,,,,,,,,,,,,,,,,,,,,,,,1781.4411582999999,1781.4568933,1781.4568933,1781.940194,1781.9567682,1784.4404147,1784.4406155,None,1,,,,,,,,,,,,,,,,,,,,,,,,,,,,,,,,,,,,,,,,,,,,nback16,001,2023-12-11_16h21.30.750,untitled,2023.2.3,60.033414598564455,2023-12-11 16h21.40.403837 -0500,
2,"[0.64, 0.4]",None,0,15,15,15,,,,,,,,,1784.4569379,,,,,,,,,,,,,,,,,,,,,,,,,,,,1784.4414592,1784.4569379,1784.4569379,1784.9403327999999,1784.9569483999999,1787.4401801,1787.4403416,None,1,,,,,,,,,,,,,,,,,,,,,,,,,,,,,,,,,,,,,,,,,,,,nback16,001,2023-12-11_16h21.30.750,untitled,2023.2.3,60.033414598564455,2023-12-11 16h21.40.403837 -0500,
2,"[0.64, 0.4]",None,0,16,16,16,,,,,,,,,1787.4565995,,,,,,,,,,,,,,,,,,,,,,,,,,,,1787.4409618,1787.4565995,1787.4565995,1787.9401266,1787.9567292,1790.4401288,1790.4403186,None,1,,,,,,,,,,,,,,,,,,,,,,,,,,,,,,,,,,,,,,,,,,,,nback16,001,2023-12-11_16h21.30.750,untitled,2023.2.3,60.033414598564455,2023-12-11 16h21.40.403837 -0500,
11,"[-0.64, -0.4]",space,0,17,17,17,,,,,,,,,1790.4567915999999,,,,,,,,,,,,,,,,,,,,,,,,,,,,1790.441057,1790.4567915999999,1790.4567915999999,1790.9403055999999,1790.9566949,1793.4401412,1793.4403232,space,1,0.4207045000000562,None,,,,,,,,,,,,,,,,,,,,,,,,,,,,,,,,,,,,,,,,,,nback16,001,2023-12-11_16h21.30.750,untitled,2023.2.3,60.033414598564455,2023-12-11 16h21.40.403837 -0500,
11,"[-0.64, -0.4]",space,0,18,18,18,,,,,,,,,1793.4567895,,,,,,,,,,,,,,,,,,,,,,,,,,,,1793.441137,1793.4567895,1793.4567895,1793.9401002,1793.9566888,1796.4400057,1796.440191,space,1,0.42125209999994695,None,,,,,,,,,,,,,,,,,,,,,,,,,,,,,,,,,,,,,,,,,,nback16,001,2023-12-11_16h21.30.750,untitled,2023.2.3,60.033414598564455,2023-12-11 16h21.40.403837 -0500,
7,"[0.3, 0]",None,0,19,19,19,,,,,,,,,1796.4565532,,,,,,,,,,,,,,,,,,,,,,,,,,,,1796.4410192999999,1796.4565532,1796.4565532,1796.9399819999999,1796.9564799,1799.4400249999999,1799.440212,None,1,,,,,,,,,,,,,,,,,,,,,,,,,,,,,,,,,,,,,,,,,,,,nback16,001,2023-12-11_16h21.30.750,untitled,2023.2.3,60.033414598564455,2023-12-11 16h21.40.403837 -0500,
3,"[0, 0.2]",None,0,20,20,20,,,,,,,,,1799.4567216,,,,,,,,,,,,,,,,,,,,,,,,,,,,1799.4408848,1799.4567216,1799.4567216,1799.940135,1799.9566193,1802.4400896,1802.4402823,None,1,,,,,,,,,,,,,,,,,,,,,,,,,,,,,,,,,,,,,,,,,,,,nback16,001,2023-12-11_16h21.30.750,untitled,2023.2.3,60.033414598564455,2023-12-11 16h21.40.403837 -0500,
10,"[0, -0.2]",None,0,21,21,21,,,,,,,,,1802.4566661,,,,,,,,,,,,,,,,,,,,,,,,,,,,1802.4411074,1802.4566661,1802.4566661,1802.9401724,1802.9566143,1805.4399967,1805.4402066999999,None,1,,,,,,,,,,,,,,,,,,,,,,,,,,,,,,,,,,,,,,,,,,,,nback16,001,2023-12-11_16h21.30.750,untitled,2023.2.3,60.033414598564455,2023-12-11 16h21.40.403837 -0500,
1,"[-0.64, 0.4]",None,0,22,22,22,,,,,,,,,1805.4564024,,,,,,,,,,,,,,,,,,,,,,,,,,,,1805.4410117,1805.4564024,1805.4564024,1805.9398400999999,1805.9565441,1808.439886,1808.4400664,None,1,,,,,,,,,,,,,,,,,,,,,,,,,,,,,,,,,,,,,,,,,,,,nback16,001,2023-12-11_16h21.30.750,untitled,2023.2.3,60.033414598564455,2023-12-11 16h21.40.403837 -0500,
2,"[0.64, 0.4]",None,0,23,23,23,,,,,,,,,1808.4564526,,,,,,,,,,,,,,,,,,,,,,,,,,,,1808.4407389,1808.4564526,1808.4564526,1808.939779,1808.9564999,1811.4397841999998,1811.4399761,None,1,,,,,,,,,,,,,,,,,,,,,,,,,,,,,,,,,,,,,,,,,,,,nback16,001,2023-12-11_16h21.30.750,untitled,2023.2.3,60.033414598564455,2023-12-11 16h21.40.403837 -0500,
6,"[-0.3, 0]",None,0,24,24,24,,,,,,,,,1811.4564906,,,,,,,,,,,,,,,,,,,,,,,,,,,,1811.440682,1811.4564906,1811.4564906,1811.9399422,1811.9564407999999,1814.4398595,1814.4400817,None,1,,,,,,,,,,,,,,,,,,,,,,,,,,,,,,,,,,,,,,,,,,,,nback16,001,2023-12-11_16h21.30.750,untitled,2023.2.3,60.033414598564455,2023-12-11 16h21.40.403837 -0500,
3,"[0, 0.2]",None,0,25,25,25,,,,,,,,,1814.4565337,,,,,,,,,,,,,,,,,,,,,,,,,,,,1814.440942,1814.4565337,1814.4565337,1814.9397898,1814.9563862999998,1817.4398984,1817.4401006,None,1,,,,,,,,,,,,,,,,,,,,,,,,,,,,,,,,,,,,,,,,,,,,nback16,001,2023-12-11_16h21.30.750,untitled,2023.2.3,60.033414598564455,2023-12-11 16h21.40.403837 -0500,
11,"[-0.64, -0.4]",space,0,26,26,26,,,,,,,,,1817.4564513999999,,,,,,,,,,,,,,,,,,,,,,,,,,,,1817.4408862,1817.4564513999999,1817.4564513999999,1817.9397179,1817.9564245,1820.4397927999999,1820.4399848,space,1,0.3675883999999314,None,,,,,,,,,,,,,,,,,,,,,,,,,,,,,,,,,,,,,,,,,,nback16,001,2023-12-11_16h21.30.750,untitled,2023.2.3,60.033414598564455,2023-12-11 16h21.40.403837 -0500,
1,"[-0.64, 0.4]",None,0,27,27,27,,,,,,,,,1820.4563142,,,,,,,,,,,,,,,,,,,,,,,,,,,,1820.4408813999999,1820.4563142,1820.4563142,1820.9397302,1820.9562833,1823.4397021,1823.439897,None,1,,,,,,,,,,,,,,,,,,,,,,,,,,,,,,,,,,,,,,,,,,,,nback16,001,2023-12-11_16h21.30.750,untitled,2023.2.3,60.033414598564455,2023-12-11 16h21.40.403837 -0500,
3,"[0, 0.2]",None,0,28,28,28,,,,,,,,,1823.4562725,,,,,,,,,,,,,,,,,,,,,,,,,,,,1823.44066,1823.4562725,1823.4562725,1823.9397041,1823.9562418,1826.4396105,1826.4398021,None,1,,,,,,,,,,,,,,,,,,,,,,,,,,,,,,,,,,,,,,,,,,,,nback16,001,2023-12-11_16h21.30.750,untitled,2023.2.3,60.033414598564455,2023-12-11 16h21.40.403837 -0500,
9,"[0.2, -0.1]",None,0,29,29,29,,,,,,,,,1826.4561144,,,,,,,,,,,,,,,,,,,,,,,,,,,,1826.4404354,1826.4561144,1826.4561144,1826.9395372,1826.9561119999998,1829.4395612,1829.4397416,None,1,,,,,,,,,,,,,,,,,,,,,,,,,,,,,,,,,,,,,,,,,,,,nback16,001,2023-12-11_16h21.30.750,untitled,2023.2.3,60.033414598564455,2023-12-11 16h21.40.403837 -0500,
8,"[-0.2, -0.1]",None,0,30,30,30,,,,,,,,,1829.4562756999999,,,,,,,,,,,,,,,,,,,,,,,,,,,,1829.4404295,1829.4562756999999,1829.4562756999999,1829.9395835999999,1829.9563066,1832.4392783,1832.4393767,None,1,,,,,,,,,,,,,,,,,,,,,,,,,,,,,,,,,,,,,,,,,,,,nback16,001,2023-12-11_16h21.30.750,untitled,2023.2.3,60.033414598564455,2023-12-11 16h21.40.403837 -0500,
12,"[0.64, -0.4]",None,0,31,31,31,,,,,,,,,1832.4558554,,,,,,,,,,,,,,,,,,,,,,,,,,,,1832.4397059,1832.4558554,1832.4558554,1832.9394091,1832.9560721,1835.4396043,1835.4398136,None,1,,,,,,,,,,,,,,,,,,,,,,,,,,,,,,,,,,,,,,,,,,,,nback16,001,2023-12-11_16h21.30.750,untitled,2023.2.3,60.033414598564455,2023-12-11 16h21.40.403837 -0500,
9,"[0.2, -0.1]",None,0,32,32,32,,,,,,,,,1835.4561231,,,,,,,,,,,,,,,,,,,,,,,,,,,,1835.4406274,1835.4561231,1835.4561231,1835.9393662999998,1835.9558832,1838.439478,1838.4397013999999,None,1,,,,,,,,,,,,,,,,,,,,,,,,,,,,,,,,,,,,,,,,,,,,nback16,001,2023-12-11_16h21.30.750,untitled,2023.2.3,60.033414598564455,2023-12-11 16h21.40.403837 -0500,
11,"[-0.64, -0.4]",space,0,33,33,33,,,,,,,,,1838.4558511,,,,,,,,,,,,,,,,,,,,,,,,,,,,1838.4404561,1838.4558511,1838.4558511,1838.9392421,1838.9559646,1841.4394032,1841.4395915999999,space,1,0.4279901999998401,None,,,,,,,,,,,,,,,,,,,,,,,,,,,,,,,,,,,,,,,,,,nback16,001,2023-12-11_16h21.30.750,untitled,2023.2.3,60.033414598564455,2023-12-11 16h21.40.403837 -0500,
7,"[0.3, 0]",None,0,34,34,34,,,,,,,,,1841.4560162999999,,,,,,,,,,,,,,,,,,,,,,,,,,,,1841.4404519,1841.4560162999999,1841.4560162999999,1841.9391116,1841.9560268,1844.4393708999999,1844.4395851,None,1,,,,,,,,,,,,,,,,,,,,,,,,,,,,,,,,,,,,,,,,,,,,nback16,001,2023-12-11_16h21.30.750,untitled,2023.2.3,60.033414598564455,2023-12-11 16h21.40.403837 -0500,
11,"[-0.64, -0.4]",space,0,35,35,35,,,,,,,,,1844.4558978,,,,,,,,,,,,,,,,,,,,,,,,,,,,1844.4403625,1844.4558978,1844.4558978,1844.9392013,1844.955864,1847.4394554,1847.4396620999999,space,1,0.3548714999999447,None,,,,,,,,,,,,,,,,,,,,,,,,,,,,,,,,,,,,,,,,,,nback16,001,2023-12-11_16h21.30.750,untitled,2023.2.3,60.033414598564455,2023-12-11 16h21.40.403837 -0500,
4,"[-0.2, 0.1]",None,0,36,36,36,,,,,,,,,1847.4558525,,,,,,,,,,,,,,,,,,,,,,,,,,,,1847.4405843,1847.4558525,1847.4558525,1847.9393972,1847.9561598,1850.439202,1850.4393943,None,1,,,,,,,,,,,,,,,,,,,,,,,,,,,,,,,,,,,,,,,,,,,,nback16,001,2023-12-11_16h21.30.750,untitled,2023.2.3,60.033414598564455,2023-12-11 16h21.40.403837 -0500,
5,"[0.2, 0.1]",None,0,37,37,37,,,,,,,,,1850.4557788,,,,,,,,,,,,,,,,,,,,,,,,,,,,1850.4401596,1850.4557788,1850.4557788,1850.9392039,1850.955882,1853.4392648,1853.4394696,None,1,,,,,,,,,,,,,,,,,,,,,,,,,,,,,,,,,,,,,,,,,,,,nback16,001,2023-12-11_16h21.30.750,untitled,2023.2.3,60.033414598564455,2023-12-11 16h21.40.403837 -0500,
6,"[-0.3, 0]",None,0,38,38,38,,,,,,,,,1853.4556049999999,,,,,,,,,,,,,,,,,,,,,,,,,,,,1853.4402134,1853.4556049999999,1853.4556049999999,1853.9392221,1853.9559027,1856.4390733,1856.4392672,None,1,,,,,,,,,,,,,,,,,,,,,,,,,,,,,,,,,,,,,,,,,,,,nback16,001,2023-12-11_16h21.30.750,untitled,2023.2.3,60.033414598564455,2023-12-11 16h21.40.403837 -0500,
11,"[-0.64, -0.4]",space,0,39,39,39,,,,,,,,,1856.4557705,,,,,,,,,,,,,,,,,,,,,,,,,,,,1856.4399555999998,1856.4557705,1856.4557705,1856.9389782,1856.9557983,1859.4389251999999,1859.4391147,space,1,0.34634890000006635,None,,,,,,,,,,,,,,,,,,,,,,,,,,,,,,,,,,,,,,,,,,nback16,001,2023-12-11_16h21.30.750,untitled,2023.2.3,60.033414598564455,2023-12-11 16h21.40.403837 -0500,
,,,,,,,,,,,,,,,,,,,,,,,,,,,,,,,,,,,,,,,,,,,,,,,,,,,,,,1859.4397212,1859.4557507,1859.4557507,1887.2399853,space,27.774484799999982,None,,,,,,,,,,,,,,,,,,,,,,,,,,,,,,,,,,,nback16,001,2023-12-11_16h21.30.750,untitled,2023.2.3,60.033414598564455,2023-12-11 16h21.40.403837 -0500,
10,"[0, -0.2]",None,,,,,0,0,0,0,,,,,1888.2555909,,,,,,,,,,,,,,,,,,,,,,,,1887.2400258,1887.2550496000001,1888.2555909,1888.2395330000002,,,,,,,,,,,,,,,,,,,1888.2537061,1888.2555909,1888.2555909,1888.7552471000001,1888.7552471000001,1891.2550591000002,1891.2550591000002,1891.2393900999998,None,1,,,,,,,,,,,,,,,,,,,,,,,,,nback16,001,2023-12-11_16h21.30.750,untitled,2023.2.3,60.033414598564455,2023-12-11 16h21.40.403837 -0500,
5,"[0.2, 0.1]",None,,,,,0,1,1,1,,,,,1891.2550591000002,,,,,,,,,,,,,,,,,,,,,,,,,,,,,,,,,,,,,,,,,,,,,,1891.2402501999998,1891.2550591000002,1891.2550591000002,1891.7550512,1891.7550512,1894.2549591,1894.2549591,1894.2392864,None,1,,,,,,,,,,,,,,,,,,,,,,,,,nback16,001,2023-12-11_16h21.30.750,untitled,2023.2.3,60.033414598564455,2023-12-11 16h21.40.403837 -0500,
6,"[-0.3, 0]",None,,,,,0,2,2,2,,,,,1894.2549591,,,,,,,,,,,,,,,,,,,,,,,,,,,,,,,,,,,,,,,,,,,,,,1894.2399434000001,1894.2549591,1894.2549591,1894.7550648,1894.7550648,1897.2550307999998,1897.2550307999998,1897.2395402999998,None,1,,,,,,,,,,,,,,,,,,,,,,,,,nback16,001,2023-12-11_16h21.30.750,untitled,2023.2.3,60.033414598564455,2023-12-11 16h21.40.403837 -0500,
6,"[-0.3, 0]",space,,,,,0,3,3,3,,,,,1897.2550307999998,,,,,,,,,,,,,,,,,,,,,,,,,,,,,,,,,,,,,,,,,,,,,,1897.2403652,1897.2550307999998,1897.2550307999998,1897.7548493000002,1897.7548493000002,1900.2548568,1900.2548568,1900.2392289000002,space,1,1.2976079000000027,None,,,,,,,,,,,,,,,,,,,,,,,nback16,001,2023-12-11_16h21.30.750,untitled,2023.2.3,60.033414598564455,2023-12-11 16h21.40.403837 -0500,
12,"[0.64, -0.4]",None,,,,,0,4,4,4,,,,,1900.2548568,,,,,,,,,,,,,,,,,,,,,,,,,,,,,,,,,,,,,,,,,,,,,,1900.2401389,1900.2548568,1900.2548568,1900.7552222000002,1900.7552222000002,1903.2549980000001,1903.2549980000001,1903.2393054000001,None,1,,,,,,,,,,,,,,,,,,,,,,,,,nback16,001,2023-12-11_16h21.30.750,untitled,2023.2.3,60.033414598564455,2023-12-11 16h21.40.403837 -0500,
10,"[0, -0.2]",None,,,,,0,5,5,5,,,,,1903.2549980000001,,,,,,,,,,,,,,,,,,,,,,,,,,,,,,,,,,,,,,,,,,,,,,1903.2400455999998,1903.2549980000001,1903.2549980000001,1903.7549778,1903.7549778,1906.2549265999999,1906.2549265999999,1906.2390573,None,1,,,,,,,,,,,,,,,,,,,,,,,,,nback16,001,2023-12-11_16h21.30.750,untitled,2023.2.3,60.033414598564455,2023-12-11 16h21.40.403837 -0500,
2,"[0.64, 0.4]",None,,,,,0,6,6,6,,,,,1906.2549265999999,,,,,,,,,,,,,,,,,,,,,,,,,,,,,,,,,,,,,,,,,,,,,,1906.2398617000001,1906.2549265999999,1906.2549265999999,1906.7549440999999,1906.7549440999999,1909.2550257,1909.2550257,1909.2389305999998,None,1,,,,,,,,,,,,,,,,,,,,,,,,,nback16,001,2023-12-11_16h21.30.750,untitled,2023.2.3,60.033414598564455,2023-12-11 16h21.40.403837 -0500,
9,"[0.2, -0.1]",None,,,,,0,7,7,7,,,,,1909.2550257,,,,,,,,,,,,,,,,,,,,,,,,,,,,,,,,,,,,,,,,,,,,,,1909.2395531,1909.2550257,1909.2550257,1909.7548089,1909.7548089,1912.2548805,1912.2548805,1912.2391052,None,1,,,,,,,,,,,,,,,,,,,,,,,,,nback16,001,2023-12-11_16h21.30.750,untitled,2023.2.3,60.033414598564455,2023-12-11 16h21.40.403837 -0500,
9,"[0.2, -0.1]",space,,,,,0,8,8,8,,,,,1912.2548805,,,,,,,,,,,,,,,,,,,,,,,,,,,,,,,,,,,,,,,,,,,,,,1912.2397542,1912.2548805,1912.2548805,1912.7548530000001,1912.7548530000001,1915.2547932999998,1915.2547932999998,1915.2393217000001,space,1,0.5013361999999688,None,,,,,,,,,,,,,,,,,,,,,,,nback16,001,2023-12-11_16h21.30.750,untitled,2023.2.3,60.033414598564455,2023-12-11 16h21.40.403837 -0500,
6,"[-0.3, 0]",None,,,,,0,9,9,9,,,,,1915.2547932999998,,,,,,,,,,,,,,,,,,,,,,,,,,,,,,,,,,,,,,,,,,,,,,1915.2402965999997,1915.2547932999998,1915.2547932999998,1915.7549468,1915.7549468,1918.2545638999998,1918.2545638999998,1918.2387683999998,None,1,,,,,,,,,,,,,,,,,,,,,,,,,nback16,001,2023-12-11_16h21.30.750,untitled,2023.2.3,60.033414598564455,2023-12-11 16h21.40.403837 -0500,
11,"[-0.64, -0.4]",None,,,,,0,10,10,10,,,,,1918.2545638999998,,,,,,,,,,,,,,,,,,,,,,,,,,,,,,,,,,,,,,,,,,,,,,1918.2393364000002,1918.2545638999998,1918.2545638999998,1918.7547585999998,1918.7547585999998,1921.2544372,1921.2544372,1921.2386020000001,None,1,,,,,,,,,,,,,,,,,,,,,,,,,nback16,001,2023-12-11_16h21.30.750,untitled,2023.2.3,60.033414598564455,2023-12-11 16h21.40.403837 -0500,
11,"[-0.64, -0.4]",space,,,,,0,11,11,11,,,,,1921.2544372,,,,,,,,,,,,,,,,,,,,,,,,,,,,,,,,,,,,,,,,,,,,,,1921.2392882000001,1921.2544372,1921.2544372,1921.7547782,1921.7547782,1924.2545202999997,1924.2545202999997,1924.2383899999998,space,1,0.38157630000023346,None,,,,,,,,,,,,,,,,,,,,,,,nback16,001,2023-12-11_16h21.30.750,untitled,2023.2.3,60.033414598564455,2023-12-11 16h21.40.403837 -0500,
4,"[-0.2, 0.1]",None,,,,,0,12,12,12,,,,,1924.2545202999997,,,,,,,,,,,,,,,,,,,,,,,,,,,,,,,,,,,,,,,,,,,,,,1924.2390598999998,1924.2545202999997,1924.2545202999997,1924.7545407,1924.7545407,1927.2545317000001,1927.2545317000001,1927.2386586,None,1,,,,,,,,,,,,,,,,,,,,,,,,,nback16,001,2023-12-11_16h21.30.750,untitled,2023.2.3,60.033414598564455,2023-12-11 16h21.40.403837 -0500,
3,"[0, 0.2]",None,,,,,0,13,13,13,,,,,1927.2545317000001,,,,,,,,,,,,,,,,,,,,,,,,,,,,,,,,,,,,,,,,,,,,,,1927.2393325,1927.2545317000001,1927.2545317000001,1927.7546360999997,1927.7546360999997,1930.2545198,1930.2545198,1930.238267,None,1,,,,,,,,,,,,,,,,,,,,,,,,,nback16,001,2023-12-11_16h21.30.750,untitled,2023.2.3,60.033414598564455,2023-12-11 16h21.40.403837 -0500,
3,"[0, 0.2]",space,,,,,0,14,14,14,,,,,1930.2545198,,,,,,,,,,,,,,,,,,,,,,,,,,,,,,,,,,,,,,,,,,,,,,1930.2387837999997,1930.2545198,1930.2545198,1930.7544725999999,1930.7544725999999,1933.2545546,1933.2545546,1933.2386804999999,space,1,0.4184525999999096,None,,,,,,,,,,,,,,,,,,,,,,,nback16,001,2023-12-11_16h21.30.750,untitled,2023.2.3,60.033414598564455,2023-12-11 16h21.40.403837 -0500,
8,"[-0.2, -0.1]",None,,,,,0,15,15,15,,,,,1933.2545546,,,,,,,,,,,,,,,,,,,,,,,,,,,,,,,,,,,,,,,,,,,,,,1933.2394326,1933.2545546,1933.2545546,1933.7544218,1933.7544218,1936.2544689,1936.2544689,1936.2385102,None,1,,,,,,,,,,,,,,,,,,,,,,,,,nback16,001,2023-12-11_16h21.30.750,untitled,2023.2.3,60.033414598564455,2023-12-11 16h21.40.403837 -0500,
1,"[-0.64, 0.4]",None,,,,,0,16,16,16,,,,,1936.2544689,,,,,,,,,,,,,,,,,,,,,,,,,,,,,,,,,,,,,,,,,,,,,,1936.2390607999998,1936.2544689,1936.2544689,1936.7544391,1936.7544391,1939.2543868,1939.2543868,1939.2386957,None,1,,,,,,,,,,,,,,,,,,,,,,,,,nback16,001,2023-12-11_16h21.30.750,untitled,2023.2.3,60.033414598564455,2023-12-11 16h21.40.403837 -0500,
2,"[0.64, 0.4]",None,,,,,0,17,17,17,,,,,1939.2543868,,,,,,,,,,,,,,,,,,,,,,,,,,,,,,,,,,,,,,,,,,,,,,1939.2393356999999,1939.2543868,1939.2543868,1939.7542833999998,1939.7542833999998,1942.2542581999999,1942.2542581999999,1942.2384878,None,1,,,,,,,,,,,,,,,,,,,,,,,,,nback16,001,2023-12-11_16h21.30.750,untitled,2023.2.3,60.033414598564455,2023-12-11 16h21.40.403837 -0500,
4,"[-0.2, 0.1]",None,,,,,0,18,18,18,,,,,1942.2542581999999,,,,,,,,,,,,,,,,,,,,,,,,,,,,,,,,,,,,,,,,,,,,,,1942.2391989999999,1942.2542581999999,1942.2542581999999,1942.7543324,1942.7543324,1945.2542052000001,1945.2542052000001,1945.2379641999999,None,1,,,,,,,,,,,,,,,,,,,,,,,,,nback16,001,2023-12-11_16h21.30.750,untitled,2023.2.3,60.033414598564455,2023-12-11 16h21.40.403837 -0500,
4,"[-0.2, 0.1]",space,,,,,0,19,19,19,,,,,1945.2542052000001,,,,,,,,,,,,,,,,,,,,,,,,,,,,,,,,,,,,,,,,,,,,,,1945.2382915,1945.2542052000001,1945.2542052000001,1945.7541269,1945.7541269,1948.2542336,1948.2542336,1948.2387554,space,1,0.5475482000001648,None,,,,,,,,,,,,,,,,,,,,,,,nback16,001,2023-12-11_16h21.30.750,untitled,2023.2.3,60.033414598564455,2023-12-11 16h21.40.403837 -0500,
8,"[-0.2, -0.1]",None,,,,,0,20,20,20,,,,,1948.2542336,,,,,,,,,,,,,,,,,,,,,,,,,,,,,,,,,,,,,,,,,,,,,,1948.2397807999998,1948.2542336,1948.2542336,1948.7543242999998,1948.7543242999998,1951.2540456,1951.2540456,1951.2380620000001,None,1,,,,,,,,,,,,,,,,,,,,,,,,,nback16,001,2023-12-11_16h21.30.750,untitled,2023.2.3,60.033414598564455,2023-12-11 16h21.40.403837 -0500,
5,"[0.2, 0.1]",None,,,,,0,21,21,21,,,,,1951.2540456,,,,,,,,,,,,,,,,,,,,,,,,,,,,,,,,,,,,,,,,,,,,,,1951.2386392,1951.2540456,1951.2540456,1951.7541816,1951.7541816,1954.2541718,1954.2541718,1954.2387256,None,1,,,,,,,,,,,,,,,,,,,,,,,,,nback16,001,2023-12-11_16h21.30.750,untitled,2023.2.3,60.033414598564455,2023-12-11 16h21.40.403837 -0500,
5,"[0.2, 0.1]",space,,,,,0,22,22,22,,,,,1954.2541718,,,,,,,,,,,,,,,,,,,,,,,,,,,,,,,,,,,,,,,,,,,,,,1954.2395644,1954.2541718,1954.2541718,1954.7541156,1954.7541156,1957.2541476999997,1957.2541476999997,1957.2382485,space,1,0.3580186000003778,None,,,,,,,,,,,,,,,,,,,,,,,nback16,001,2023-12-11_16h21.30.750,untitled,2023.2.3,60.033414598564455,2023-12-11 16h21.40.403837 -0500,
1,"[-0.64, 0.4]",None,,,,,0,23,23,23,,,,,1957.2541476999997,,,,,,,,,,,,,,,,,,,,,,,,,,,,,,,,,,,,,,,,,,,,,,1957.2389891,1957.2541476999997,1957.2541476999997,1957.7541112000001,1957.7541112000001,1960.2538858,1960.2538858,1960.2382344,None,1,,,,,,,,,,,,,,,,,,,,,,,,,nback16,001,2023-12-11_16h21.30.750,untitled,2023.2.3,60.033414598564455,2023-12-11 16h21.40.403837 -0500,
3,"[0, 0.2]",None,,,,,0,24,24,24,,,,,1960.2538858,,,,,,,,,,,,,,,,,,,,,,,,,,,,,,,,,,,,,,,,,,,,,,1960.2389323,1960.2538858,1960.2538858,1960.7540351999999,1960.7540351999999,1963.2538529,1963.2538529,1963.2384329,None,1,,,,,,,,,,,,,,,,,,,,,,,,,nback16,001,2023-12-11_16h21.30.750,untitled,2023.2.3,60.033414598564455,2023-12-11 16h21.40.403837 -0500,
6,"[-0.3, 0]",None,,,,,0,25,25,25,,,,,1963.2538529,,,,,,,,,,,,,,,,,,,,,,,,,,,,,,,,,,,,,,,,,,,,,,1963.2392066999998,1963.2538529,1963.2538529,1963.7540450999998,1963.7540450999998,1966.2539525,1966.2539525,1966.2381039,None,1,,,,,,,,,,,,,,,,,,,,,,,,,nback16,001,2023-12-11_16h21.30.750,untitled,2023.2.3,60.033414598564455,2023-12-11 16h21.40.403837 -0500,
1,"[-0.64, 0.4]",None,,,,,0,26,26,26,,,,,1966.2539525,,,,,,,,,,,,,,,,,,,,,,,,,,,,,,,,,,,,,,,,,,,,,,1966.2387757999998,1966.2539525,1966.2539525,1966.7539737999998,1966.7539737999998,1969.2538515999997,1969.2538515999997,1969.2380655999998,None,1,,,,,,,,,,,,,,,,,,,,,,,,,nback16,001,2023-12-11_16h21.30.750,untitled,2023.2.3,60.033414598564455,2023-12-11 16h21.40.403837 -0500,
1,"[-0.64, 0.4]",space,,,,,0,27,27,27,,,,,1969.2538515999997,,,,,,,,,,,,,,,,,,,,,,,,,,,,,,,,,,,,,,,,,,,,,,1969.238732,1969.2538515999997,1969.2538515999997,1969.7537102999997,1969.7537102999997,1972.2538536999998,1972.2538536999998,1972.2380753999998,space,1,0.45515819999991436,None,,,,,,,,,,,,,,,,,,,,,,,nback16,001,2023-12-11_16h21.30.750,untitled,2023.2.3,60.033414598564455,2023-12-11 16h21.40.403837 -0500,
1,"[-0.64, 0.4]",space,,,,,0,28,28,28,,,,,1972.2538536999998,,,,,,,,,,,,,,,,,,,,,,,,,,,,,,,,,,,,,,,,,,,,,,1972.2389563,1972.2538536999998,1972.2538536999998,1972.7538966999998,1972.7538966999998,1975.2537399999999,1975.2537399999999,1975.2378797999997,None,0,,,,,,,,,,,,,,,,,,,,,,,,,nback16,001,2023-12-11_16h21.30.750,untitled,2023.2.3,60.033414598564455,2023-12-11 16h21.40.403837 -0500,
3,"[0, 0.2]",None,,,,,0,29,29,29,,,,,1975.2537399999999,,,,,,,,,,,,,,,,,,,,,,,,,,,,,,,,,,,,,,,,,,,,,,1975.2385284,1975.2537399999999,1975.2537399999999,1975.7537187,1975.7537187,1978.2537688,1978.2537688,1978.2377244000002,None,1,,,,,,,,,,,,,,,,,,,,,,,,,nback16,001,2023-12-11_16h21.30.750,untitled,2023.2.3,60.033414598564455,2023-12-11 16h21.40.403837 -0500,
12,"[0.64, -0.4]",None,,,,,0,30,30,30,,,,,1978.2537688,,,,,,,,,,,,,,,,,,,,,,,,,,,,,,,,,,,,,,,,,,,,,,1978.2383251999997,1978.2537688,1978.2537688,1978.7536589,1978.7536589,1981.2536901,1981.2536901,1981.2380553,None,1,,,,,,,,,,,,,,,,,,,,,,,,,nback16,001,2023-12-11_16h21.30.750,untitled,2023.2.3,60.033414598564455,2023-12-11 16h21.40.403837 -0500,
12,"[0.64, -0.4]",space,,,,,0,31,31,31,,,,,1981.2536901,,,,,,,,,,,,,,,,,,,,,,,,,,,,,,,,,,,,,,,,,,,,,,1981.2388472,1981.2536901,1981.2536901,1981.7538223999998,1981.7538223999998,1984.2535476,1984.2535476,1984.2380001,space,1,0.5828661999998985,None,,,,,,,,,,,,,,,,,,,,,,,nback16,001,2023-12-11_16h21.30.750,untitled,2023.2.3,60.033414598564455,2023-12-11 16h21.40.403837 -0500,
2,"[0.64, 0.4]",None,,,,,0,32,32,32,,,,,1984.2535476,,,,,,,,,,,,,,,,,,,,,,,,,,,,,,,,,,,,,,,,,,,,,,1984.2391021,1984.2535476,1984.2535476,1984.7536048999998,1984.7536048999998,1987.253625,1987.253625,1987.2379101,None,1,,,,,,,,,,,,,,,,,,,,,,,,,nback16,001,2023-12-11_16h21.30.750,untitled,2023.2.3,60.033414598564455,2023-12-11 16h21.40.403837 -0500,
1,"[-0.64, 0.4]",None,,,,,0,33,33,33,,,,,1987.253625,,,,,,,,,,,,,,,,,,,,,,,,,,,,,,,,,,,,,,,,,,,,,,1987.2387431999998,1987.253625,1987.253625,1987.7536254,1987.7536254,1990.2536164,1990.2536164,1990.2382148999998,None,1,,,,,,,,,,,,,,,,,,,,,,,,,nback16,001,2023-12-11_16h21.30.750,untitled,2023.2.3,60.033414598564455,2023-12-11 16h21.40.403837 -0500,
7,"[0.3, 0]",None,,,,,0,34,34,34,,,,,1990.2536164,,,,,,,,,,,,,,,,,,,,,,,,,,,,,,,,,,,,,,,,,,,,,,1990.2390699,1990.2536164,1990.2536164,1990.7534561999998,1990.7534561999998,1993.2534220999999,1993.2534220999999,1993.2376741,None,1,,,,,,,,,,,,,,,,,,,,,,,,,nback16,001,2023-12-11_16h21.30.750,untitled,2023.2.3,60.033414598564455,2023-12-11 16h21.40.403837 -0500,
7,"[0.3, 0]",space,,,,,0,35,35,35,,,,,1993.2534220999999,,,,,,,,,,,,,,,,,,,,,,,,,,,,,,,,,,,,,,,,,,,,,,1993.2382906,1993.2534220999999,1993.2534220999999,1993.7535805999999,1993.7535805999999,1996.2534167000001,1996.2534167000001,1996.2375994000001,space,1,0.3629731000000902,None,,,,,,,,,,,,,,,,,,,,,,,nback16,001,2023-12-11_16h21.30.750,untitled,2023.2.3,60.033414598564455,2023-12-11 16h21.40.403837 -0500,
11,"[-0.64, -0.4]",None,,,,,0,36,36,36,,,,,1996.2534167000001,,,,,,,,,,,,,,,,,,,,,,,,,,,,,,,,,,,,,,,,,,,,,,1996.2384905000001,1996.2534167000001,1996.2534167000001,1996.7535618999998,1996.7535618999998,1999.2533065,1999.2533065,1999.2374211,None,1,,,,,,,,,,,,,,,,,,,,,,,,,nback16,001,2023-12-11_16h21.30.750,untitled,2023.2.3,60.033414598564455,2023-12-11 16h21.40.403837 -0500,
2,"[0.64, 0.4]",None,,,,,0,37,37,37,,,,,1999.2533065,,,,,,,,,,,,,,,,,,,,,,,,,,,,,,,,,,,,,,,,,,,,,,1999.237984,1999.2533065,1999.2533065,1999.753196,1999.753196,2002.2533769999998,2002.2533769999998,2002.2376477999999,None,1,,,,,,,,,,,,,,,,,,,,,,,,,nback16,001,2023-12-11_16h21.30.750,untitled,2023.2.3,60.033414598564455,2023-12-11 16h21.40.403837 -0500,
6,"[-0.3, 0]",None,,,,,0,38,38,38,,,,,2002.2533769999998,,,,,,,,,,,,,,,,,,,,,,,,,,,,,,,,,,,,,,,,,,,,,,2002.2383498000002,2002.2533769999998,2002.2533769999998,2002.7533391999998,2002.7533391999998,2005.2531421,2005.2531421,2005.2373249,None,1,,,,,,,,,,,,,,,,,,,,,,,,,nback16,001,2023-12-11_16h21.30.750,untitled,2023.2.3,60.033414598564455,2023-12-11 16h21.40.403837 -0500,
10,"[0, -0.2]",None,,,,,0,39,39,39,,,,,2005.2531421,,,,,,,,,,,,,,,,,,,,,,,,,,,,,,,,,,,,,,,,,,,,,,2005.2379853,2005.2531421,2005.2531421,2005.7533652999998,2005.7533652999998,2008.2533695,2008.2533695,2008.2370128,None,1,,,,,,,,,,,,,,,,,,,,,,,,,nback16,001,2023-12-11_16h21.30.750,untitled,2023.2.3,60.033414598564455,2023-12-11 16h21.40.403837 -0500,
,,,,,,,,,,,,,,,,,,,,,,,,,,,,,,,,,,,,,,,,,,,,,,,,,,,,,,,,,,,,,,,,,,,,,,,,,2008.2373436999999,2008.2533695,2008.2533695,2062.1539087,space,53.89917240000045,None,,,,,,,,,,,,,,,,nback16,001,2023-12-11_16h21.30.750,untitled,2023.2.3,60.033414598564455,2023-12-11 16h21.40.403837 -0500,
,"[0.2, 0.1]",None,,,,,,,,,0,0,0,0,2063.1700766000004,,,,,,,,,,,,,,,,,,,,,,,,2062.1539487,2062.1690352,2063.1700766000004,2063.1531097,,,,,,,,,,,,,,,,,,,,,,,,,,,,,,,,,,,,,,2063.1682282,2063.1700766000004,2063.1700766000004,2063.6689631000004,2063.6858646,2066.1692285000004,2066.1692285000004,2066.1535114000003,None,1,,,,,,nback16,001,2023-12-11_16h21.30.750,untitled,2023.2.3,60.033414598564455,2023-12-11 16h21.40.403837 -0500,
,"[0.64, 0.4]",None,,,,,,,,,0,1,1,1,2066.1692285000004,,,,,,,,,,,,,,,,,,,,,,,,,,,,,,,,,,,,,,,,,,,,,,,,,,,,,,,,,,,,,,,,,2066.1545294000002,2066.1692285000004,2066.1692285000004,2066.6688291,2066.6688291,2069.1688612000003,2069.1688612000003,2069.1531201000003,None,1,,,,,,nback16,001,2023-12-11_16h21.30.750,untitled,2023.2.3,60.033414598564455,2023-12-11 16h21.40.403837 -0500,
,"[-0.3, 0]",None,,,,,,,,,0,2,2,2,2069.1688612000003,,,,,,,,,,,,,,,,,,,,,,,,,,,,,,,,,,,,,,,,,,,,,,,,,,,,,,,,,,,,,,,,,2069.1537791,2069.1688612000003,2069.1688612000003,2069.6689997000003,2069.6689997000003,2072.1690325000004,2072.1690325000004,2072.1531623,None,1,,,,,,nback16,001,2023-12-11_16h21.30.750,untitled,2023.2.3,60.033414598564455,2023-12-11 16h21.40.403837 -0500,
,"[0.2, -0.1]",None,,,,,,,,,0,3,3,3,2072.1690325000004,,,,,,,,,,,,,,,,,,,,,,,,,,,,,,,,,,,,,,,,,,,,,,,,,,,,,,,,,,,,,,,,,2072.1538131,2072.1690325000004,2072.1690325000004,2072.6688936,2072.6688936,2075.1688473000004,2075.1688473000004,2075.1530034,None,1,,,,,,nback16,001,2023-12-11_16h21.30.750,untitled,2023.2.3,60.033414598564455,2023-12-11 16h21.40.403837 -0500,
,"[0, 0.2]",None,,,,,,,,,0,4,4,4,2075.1688473000004,,,,,,,,,,,,,,,,,,,,,,,,,,,,,,,,,,,,,,,,,,,,,,,,,,,,,,,,,,,,,,,,,2075.1537815,2075.1688473000004,2075.1688473000004,2075.6688878,2075.6688878,2078.1687451000003,2078.1687451000003,2078.1531895000003,None,1,,,,,,nback16,001,2023-12-11_16h21.30.750,untitled,2023.2.3,60.033414598564455,2023-12-11 16h21.40.403837 -0500,
,"[0.2, -0.1]",space,,,,,,,,,0,5,5,5,2078.1687451000003,,,,,,,,,,,,,,,,,,,,,,,,,,,,,,,,,,,,,,,,,,,,,,,,,,,,,,,,,,,,,,,,,2078.1540713000004,2078.1687451000003,2078.1687451000003,2078.6686912,2078.6686912,2081.1687676,2081.1687676,2081.1526336,space,1,0.6451658000000862,None,,,,nback16,001,2023-12-11_16h21.30.750,untitled,2023.2.3,60.033414598564455,2023-12-11 16h21.40.403837 -0500,
,"[0, -0.2]",None,,,,,,,,,0,6,6,6,2081.1687676,,,,,,,,,,,,,,,,,,,,,,,,,,,,,,,,,,,,,,,,,,,,,,,,,,,,,,,,,,,,,,,,,2081.1535235,2081.1687676,2081.1687676,2081.6687326,2081.6687326,2084.1689178,2084.1689178,2084.1530486,None,1,,,,,,nback16,001,2023-12-11_16h21.30.750,untitled,2023.2.3,60.033414598564455,2023-12-11 16h21.40.403837 -0500,
,"[0.64, -0.4]",None,,,,,,,,,0,7,7,7,2084.1689178,,,,,,,,,,,,,,,,,,,,,,,,,,,,,,,,,,,,,,,,,,,,,,,,,,,,,,,,,,,,,,,,,2084.1538947000004,2084.1689178,2084.1689178,2084.6689509000003,2084.6689509000003,2087.1687271,2087.1687271,2087.1527425000004,None,1,,,,,,nback16,001,2023-12-11_16h21.30.750,untitled,2023.2.3,60.033414598564455,2023-12-11 16h21.40.403837 -0500,
,"[0.3, 0]",None,,,,,,,,,0,8,8,8,2087.1687271,,,,,,,,,,,,,,,,,,,,,,,,,,,,,,,,,,,,,,,,,,,,,,,,,,,,,,,,,,,,,,,,,2087.1533678,2087.1687271,2087.1687271,2087.668463,2087.668463,2090.1685928,2090.1685928,2090.1529602,None,1,,,,,,nback16,001,2023-12-11_16h21.30.750,untitled,2023.2.3,60.033414598564455,2023-12-11 16h21.40.403837 -0500,
,"[0.64, -0.4]",space,,,,,,,,,0,9,9,9,2090.1685928,,,,,,,,,,,,,,,,,,,,,,,,,,,,,,,,,,,,,,,,,,,,,,,,,,,,,,,,,,,,,,,,,2090.1536979,2090.1685928,2090.1685928,2090.6686871,2090.6686871,2093.16854,2093.16854,2093.1525559,space,1,0.7775867999998809,None,,,,nback16,001,2023-12-11_16h21.30.750,untitled,2023.2.3,60.033414598564455,2023-12-11 16h21.40.403837 -0500,
,"[-0.64, 0.4]",None,,,,,,,,,0,10,10,10,2093.16854,,,,,,,,,,,,,,,,,,,,,,,,,,,,,,,,,,,,,,,,,,,,,,,,,,,,,,,,,,,,,,,,,2093.1533027,2093.16854,2093.16854,2093.6685438000004,2093.6685438000004,2096.1684379000003,2096.1684379000003,2096.1519809,None,1,,,,,,nback16,001,2023-12-11_16h21.30.750,untitled,2023.2.3,60.033414598564455,2023-12-11 16h21.40.403837 -0500,
,"[0.2, 0.1]",None,,,,,,,,,0,11,11,11,2096.1684379000003,,,,,,,,,,,,,,,,,,,,,,,,,,,,,,,,,,,,,,,,,,,,,,,,,,,,,,,,,,,,,,,,,2096.1522876000004,2096.1684379000003,2096.1684379000003,2096.6685637,2096.6685637,2099.1685863000002,2099.1685863000002,2099.1527586,None,1,,,,,,nback16,001,2023-12-11_16h21.30.750,untitled,2023.2.3,60.033414598564455,2023-12-11 16h21.40.403837 -0500,
,"[0.3, 0]",None,,,,,,,,,0,12,12,12,2099.1685863000002,,,,,,,,,,,,,,,,,,,,,,,,,,,,,,,,,,,,,,,,,,,,,,,,,,,,,,,,,,,,,,,,,2099.1535846,2099.1685863000002,2099.1685863000002,2099.6685361,2099.6685361,2102.1682659000003,2102.1682659000003,2102.1524783,None,1,,,,,,nback16,001,2023-12-11_16h21.30.750,untitled,2023.2.3,60.033414598564455,2023-12-11 16h21.40.403837 -0500,
,"[0.2, 0.1]",space,,,,,,,,,0,13,13,13,2102.1682659000003,,,,,,,,,,,,,,,,,,,,,,,,,,,,,,,,,,,,,,,,,,,,,,,,,,,,,,,,,,,,,,,,,2102.1531428000003,2102.1682659000003,2102.1682659000003,2102.6683190000003,2102.6683190000003,2105.1682764,2105.1682764,2105.1522857,space,1,0.5586708000000726,None,,,,nback16,001,2023-12-11_16h21.30.750,untitled,2023.2.3,60.033414598564455,2023-12-11 16h21.40.403837 -0500,
,"[-0.3, 0]",None,,,,,,,,,0,14,14,14,2105.1682764,,,,,,,,,,,,,,,,,,,,,,,,,,,,,,,,,,,,,,,,,,,,,,,,,,,,,,,,,,,,,,,,,2105.1528985,2105.1682764,2105.1682764,2105.6683859,2105.6683859,2108.1683708,2108.1683708,2108.152645,None,1,,,,,,nback16,001,2023-12-11_16h21.30.750,untitled,2023.2.3,60.033414598564455,2023-12-11 16h21.40.403837 -0500,
,"[0, 0.2]",None,,,,,,,,,0,15,15,15,2108.1683708,,,,,,,,,,,,,,,,,,,,,,,,,,,,,,,,,,,,,,,,,,,,,,,,,,,,,,,,,,,,,,,,,2108.1534616000004,2108.1683708,2108.1683708,2108.6683733,2108.6683733,2111.1681792000004,2111.1681792000004,2111.1523996,None,1,,,,,,nback16,001,2023-12-11_16h21.30.750,untitled,2023.2.3,60.033414598564455,2023-12-11 16h21.40.403837 -0500,
,"[-0.3, 0]",space,,,,,,,,,0,16,16,16,2111.1681792000004,,,,,,,,,,,,,,,,,,,,,,,,,,,,,,,,,,,,,,,,,,,,,,,,,,,,,,,,,,,,,,,,,2111.1531828,2111.1681792000004,2111.1681792000004,2111.6681892,2111.6681892,2114.1681209000003,2114.1681209000003,2114.1525033000003,space,1,0.3998660000002019,None,,,,nback16,001,2023-12-11_16h21.30.750,untitled,2023.2.3,60.033414598564455,2023-12-11 16h21.40.403837 -0500,
,"[-0.64, -0.4]",None,,,,,,,,,0,17,17,17,2114.1681209000003,,,,,,,,,,,,,,,,,,,,,,,,,,,,,,,,,,,,,,,,,,,,,,,,,,,,,,,,,,,,,,,,,2114.1535514,2114.1681209000003,2114.1681209000003,2114.6681822,2114.6681822,2117.1682100000003,2117.1682100000003,2117.1524587000004,None,1,,,,,,nback16,001,2023-12-11_16h21.30.750,untitled,2023.2.3,60.033414598564455,2023-12-11 16h21.40.403837 -0500,
,"[-0.2, -0.1]",None,,,,,,,,,0,18,18,18,2117.1682100000003,,,,,,,,,,,,,,,,,,,,,,,,,,,,,,,,,,,,,,,,,,,,,,,,,,,,,,,,,,,,,,,,,2117.1532173,2117.1682100000003,2117.1682100000003,2117.6684871,2117.6684871,2120.168007,2120.168007,2120.1520983,None,1,,,,,,nback16,001,2023-12-11_16h21.30.750,untitled,2023.2.3,60.033414598564455,2023-12-11 16h21.40.403837 -0500,
,"[0.2, -0.1]",None,,,,,,,,,0,19,19,19,2120.168007,,,,,,,,,,,,,,,,,,,,,,,,,,,,,,,,,,,,,,,,,,,,,,,,,,,,,,,,,,,,,,,,,2120.1527357,2120.168007,2120.168007,2120.6682812000004,2120.6682812000004,2123.1680303000003,2123.1680303000003,2123.1521166,None,1,,,,,,nback16,001,2023-12-11_16h21.30.750,untitled,2023.2.3,60.033414598564455,2023-12-11 16h21.40.403837 -0500,
,"[0.2, -0.1]",None,,,,,,,,,0,20,20,20,2123.1680303000003,,,,,,,,,,,,,,,,,,,,,,,,,,,,,,,,,,,,,,,,,,,,,,,,,,,,,,,,,,,,,,,,,2123.1527062,2123.1680303000003,2123.1680303000003,2123.6679474000002,2123.6679474000002,2126.1681755,2126.1681755,2126.1523782000004,None,1,,,,,,nback16,001,2023-12-11_16h21.30.750,untitled,2023.2.3,60.033414598564455,2023-12-11 16h21.40.403837 -0500,
,"[-0.64, 0.4]",None,,,,,,,,,0,21,21,21,2126.1681755,,,,,,,,,,,,,,,,,,,,,,,,,,,,,,,,,,,,,,,,,,,,,,,,,,,,,,,,,,,,,,,,,2126.1531427,2126.1681755,2126.1681755,2126.6679943000004,2126.6679943000004,2129.1677721,2129.1677721,2129.1518344,None,1,,,,,,nback16,001,2023-12-11_16h21.30.750,untitled,2023.2.3,60.033414598564455,2023-12-11 16h21.40.403837 -0500,
,"[0, 0.2]",None,,,,,,,,,0,22,22,22,2129.1677721,,,,,,,,,,,,,,,,,,,,,,,,,,,,,,,,,,,,,,,,,,,,,,,,,,,,,,,,,,,,,,,,,2129.1524202,2129.1677721,2129.1677721,2129.6680126,2129.6680126,2132.1679323000003,2132.1679323000003,2132.1520735000004,None,1,,,,,,nback16,001,2023-12-11_16h21.30.750,untitled,2023.2.3,60.033414598564455,2023-12-11 16h21.40.403837 -0500,
,"[0.64, -0.4]",None,,,,,,,,,0,23,23,23,2132.1679323000003,,,,,,,,,,,,,,,,,,,,,,,,,,,,,,,,,,,,,,,,,,,,,,,,,,,,,,,,,,,,,,,,,2132.1527568,2132.1679323000003,2132.1679323000003,2132.6681688000003,2132.6681688000003,2135.1679518,2135.1679518,2135.1522955,None,1,,,,,,nback16,001,2023-12-11_16h21.30.750,untitled,2023.2.3,60.033414598564455,2023-12-11 16h21.40.403837 -0500,
,"[0, 0.2]",space,,,,,,,,,0,24,24,24,2135.1679518,,,,,,,,,,,,,,,,,,,,,,,,,,,,,,,,,,,,,,,,,,,,,,,,,,,,,,,,,,,,,,,,,2135.1530860000003,2135.1679518,2135.1679518,2135.6677925000004,2135.6677925000004,2138.1677635,2138.1677635,2138.152132,space,1,0.30879430000004504,None,,,,nback16,001,2023-12-11_16h21.30.750,untitled,2023.2.3,60.033414598564455,2023-12-11 16h21.40.403837 -0500,
,"[-0.2, 0.1]",None,,,,,,,,,0,25,25,25,2138.1677635,,,,,,,,,,,,,,,,,,,,,,,,,,,,,,,,,,,,,,,,,,,,,,,,,,,,,,,,,,,,,,,,,2138.1530868,2138.1677635,2138.1677635,2138.667719,2138.667719,2141.1678694,2141.1678694,2141.1522222000003,None,1,,,,,,nback16,001,2023-12-11_16h21.30.750,untitled,2023.2.3,60.033414598564455,2023-12-11 16h21.40.403837 -0500,
,"[0.3, 0]",None,,,,,,,,,0,26,26,26,2141.1678694,,,,,,,,,,,,,,,,,,,,,,,,,,,,,,,,,,,,,,,,,,,,,,,,,,,,,,,,,,,,,,,,,2141.1530515000004,2141.1678694,2141.1678694,2141.6678785000004,2141.6678785000004,2144.1678271,2144.1678271,2144.1522022000004,None,1,,,,,,nback16,001,2023-12-11_16h21.30.750,untitled,2023.2.3,60.033414598564455,2023-12-11 16h21.40.403837 -0500,
,"[-0.2, 0.1]",space,,,,,,,,,0,27,27,27,2144.1678271,,,,,,,,,,,,,,,,,,,,,,,,,,,,,,,,,,,,,,,,,,,,,,,,,,,,,,,,,,,,,,,,,2144.1530434,2144.1678271,2144.1678271,2144.6675818000003,2144.6675818000003,2147.1678177000003,2147.1678177000003,2147.1520440000004,space,1,0.35970270000007076,None,,,,nback16,001,2023-12-11_16h21.30.750,untitled,2023.2.3,60.033414598564455,2023-12-11 16h21.40.403837 -0500,
,"[-0.2, 0.1]",None,,,,,,,,,0,28,28,28,2147.1678177000003,,,,,,,,,,,,,,,,,,,,,,,,,,,,,,,,,,,,,,,,,,,,,,,,,,,,,,,,,,,,,,,,,2147.1529871000002,2147.1678177000003,2147.1678177000003,2147.6675733,2147.6675733,2150.1675949,2150.1675949,2150.1520328,None,1,,,,,,nback16,001,2023-12-11_16h21.30.750,untitled,2023.2.3,60.033414598564455,2023-12-11 16h21.40.403837 -0500,
,"[0.2, 0.1]",None,,,,,,,,,0,29,29,29,2150.1675949,,,,,,,,,,,,,,,,,,,,,,,,,,,,,,,,,,,,,,,,,,,,,,,,,,,,,,,,,,,,,,,,,2150.152834,2150.1675949,2150.1675949,2150.6674981,2150.6674981,2153.1675488,2153.1675488,2153.1517446000003,None,1,,,,,,nback16,001,2023-12-11_16h21.30.750,untitled,2023.2.3,60.033414598564455,2023-12-11 16h21.40.403837 -0500,
,"[-0.64, -0.4]",None,,,,,,,,,0,30,30,30,2153.1675488,,,,,,,,,,,,,,,,,,,,,,,,,,,,,,,,,,,,,,,,,,,,,,,,,,,,,,,,,,,,,,,,,2153.1525444000004,2153.1675488,2153.1675488,2153.6675847,2153.6675847,2156.167578,2156.167578,2156.1518601000002,None,1,,,,,,nback16,001,2023-12-11_16h21.30.750,untitled,2023.2.3,60.033414598564455,2023-12-11 16h21.40.403837 -0500,
,"[0, -0.2]",None,,,,,,,,,0,31,31,31,2156.167578,,,,,,,,,,,,,,,,,,,,,,,,,,,,,,,,,,,,,,,,,,,,,,,,,,,,,,,,,,,,,,,,,2156.1526173,2156.167578,2156.167578,2156.6675573,2156.6675573,2159.1675398,2159.1675398,2159.1518099,None,1,,,,,,nback16,001,2023-12-11_16h21.30.750,untitled,2023.2.3,60.033414598564455,2023-12-11 16h21.40.403837 -0500,
,"[-0.64, -0.4]",space,,,,,,,,,0,32,32,32,2159.1675398,,,,,,,,,,,,,,,,,,,,,,,,,,,,,,,,,,,,,,,,,,,,,,,,,,,,,,,,,,,,,,,,,2159.1525884000002,2159.1675398,2159.1675398,2159.6674344000003,2159.6674344000003,2162.1676549000003,2162.1676549000003,2162.1518276,space,1,0.416979099999935,None,,,,nback16,001,2023-12-11_16h21.30.750,untitled,2023.2.3,60.033414598564455,2023-12-11 16h21.40.403837 -0500,
,"[0.64, 0.4]",None,,,,,,,,,0,33,33,33,2162.1676549000003,,,,,,,,,,,,,,,,,,,,,,,,,,,,,,,,,,,,,,,,,,,,,,,,,,,,,,,,,,,,,,,,,2162.1528367,2162.1676549000003,2162.1676549000003,2162.6674432,2162.6674432,2165.1674437,2165.1674437,2165.1518963000003,None,1,,,,,,nback16,001,2023-12-11_16h21.30.750,untitled,2023.2.3,60.033414598564455,2023-12-11 16h21.40.403837 -0500,
,"[-0.3, 0]",None,,,,,,,,,0,34,34,34,2165.1674437,,,,,,,,,,,,,,,,,,,,,,,,,,,,,,,,,,,,,,,,,,,,,,,,,,,,,,,,,,,,,,,,,2165.152732,2165.1674437,2165.1674437,2165.6674255000003,2165.6674255000003,2168.16818,2168.16818,2168.1516384,None,1,,,,,,nback16,001,2023-12-11_16h21.30.750,untitled,2023.2.3,60.033414598564455,2023-12-11 16h21.40.403837 -0500,
,"[0.3, 0]",None,,,,,,,,,0,35,35,35,2168.16818,,,,,,,,,,,,,,,,,,,,,,,,,,,,,,,,,,,,,,,,,,,,,,,,,,,,,,,,,,,,,,,,,2168.1524040000004,2168.16818,2168.16818,2168.6674591,2168.6674591,2171.1671642,,2171.1673414,None,1,,,,,,nback16,001,2023-12-11_16h21.30.750,untitled,2023.2.3,60.033414598564455,2023-12-11 16h21.40.403837 -0500,
,"[-0.3, 0]",space,,,,,,,,,0,36,36,36,2171.1841344000004,,,,,,,,,,,,,,,,,,,,,,,,,,,,,,,,,,,,,,,,,,,,,,,,,,,,,,,,,,,,,,,,,2171.1680155000004,2171.1841344000004,2171.1841344000004,2171.6673098,2171.6838985000004,2174.1672224000004,,2174.1674055000003,space,1,0.6258634999999231,None,,,,nback16,001,2023-12-11_16h21.30.750,untitled,2023.2.3,60.033414598564455,2023-12-11 16h21.40.403837 -0500,
,"[0, -0.2]",None,,,,,,,,,0,37,37,37,2174.1839895000003,,,,,,,,,,,,,,,,,,,,,,,,,,,,,,,,,,,,,,,,,,,,,,,,,,,,,,,,,,,,,,,,,2174.1684087000003,2174.1839895000003,2174.1839895000003,2174.6672735,2174.6839924,2177.1673311000004,,2177.1675360000004,None,1,,,,,,nback16,001,2023-12-11_16h21.30.750,untitled,2023.2.3,60.033414598564455,2023-12-11 16h21.40.403837 -0500,
,"[0.3, 0]",None,,,,,,,,,0,38,38,38,2177.1838254000004,,,,,,,,,,,,,,,,,,,,,,,,,,,,,,,,,,,,,,,,,,,,,,,,,,,,,,,,,,,,,,,,,2177.1683237,2177.1838254000004,2177.1838254000004,2177.6671918,2177.6838161,2180.1670785,,2180.1672495000003,None,1,,,,,,nback16,001,2023-12-11_16h21.30.750,untitled,2023.2.3,60.033414598564455,2023-12-11 16h21.40.403837 -0500,
,"[0.2, 0.1]",None,,,,,,,,,0,39,39,39,2180.1839250000003,,,,,,,,,,,,,,,,,,,,,,,,,,,,,,,,,,,,,,,,,,,,,,,,,,,,,,,,,,,,,,,,,2180.1679125,2180.1839250000003,2180.1839250000003,2180.6671688,2180.6838380000004,2183.1671432000003,,2183.1673171,None,1,,,,,,nback16,001,2023-12-11_16h21.30.750,untitled,2023.2.3,60.033414598564455,2023-12-11 16h21.40.403837 -0500,
,,,,,,,,,,,,,,,,,,,,,,,,,,,,,,,,,,,,,,,,,,,,,,,,,,,,,,,,,,,,,,,,,,,,,,,,,,,,,,,,,,,,,,,,,,,,2183.1677911,2183.1839756000004,2186.1674406,,,,,,,,
