square,location,corrAns,trials_0.thisRepN,trials_0.thisTrialN,trials_0.thisN,trials_0.thisIndex,trials_1.thisRepN,trials_1.thisTrialN,trials_1.thisN,trials_1.thisIndex,trials_2.thisRepN,trials_2.thisTrialN,trials_2.thisN,trials_2.thisIndex,thisRow.t,notes,Instructions.started,instructions.started,key_resp.started,inst_sq11.started,Instructions.stopped,key_resp.keys,key_resp.rt,key_resp.duration,All.started,sq_1.started,sq_2.started,sq_3.started,sq_4.started,sq_5.started,sq_6.started,sq_7.started,sq_8.started,sq_9.started,sq_10.started,sq_11.started,sq_12.started,All.stopped,Fixation.started,fixation_3.started,fixation_3.stopped,Fixation.stopped,N_back_0_Trial.started,target_square_0.started,response_0.started,fixation_0.started,target_square_0.stopped,fixation_0.stopped,response_0.stopped,N_back_0_Trial.stopped,response_0.keys,response_0.corr,response_0.rt,response_0.duration,Instructions_1.started,instructions_1.started,key_resp_1.started,Instructions_1.stopped,key_resp_1.keys,key_resp_1.rt,key_resp_1.duration,N_back_1_Trial.started,target_square_1.started,response_1.started,target_square_1.stopped,fixation_1.started,fixation_1.stopped,response_1.stopped,N_back_1_Trial.stopped,response_1.keys,response_1.corr,response_1.rt,response_1.duration,Instructions_2.started,instructions_2.started,key_resp_2.started,Instructions_2.stopped,key_resp_2.keys,key_resp_2.rt,key_resp_2.duration,N_back_2_trials.started,target_square_2.started,response_2.started,target_square_2.stopped,fixation_2.started,fixation_2.stopped,response_2.stopped,N_back_2_trials.stopped,response_2.keys,response_2.corr,response_2.rt,response_2.duration,End.started,thank_you.started,thank_you.stopped,End.stopped,participant,session,date,expName,psychopyVersion,frameRate,expStart,Unnamed: 104
,,,,,,,,,,,,,,,,,0.0016684000147506,0.0044062999659217,0.0044062999659217,0.0044062999659217,113.01555810001446,space,113.00160960003268,None,,,,,,,,,,,,,,,,,,,,,,,,,,,,,,,,,,,,,,,,,,,,,,,,,,,,,,,,,,,,,,,,,,,,,,,,,nback37,1.0,2023-12-19_09h44.14.666,untitled,2023.2.3,60.15113574608547,2023-12-19 10h31.57.127869 -0500,
6.0,"[-0.3, 0]",None,0.0,0.0,0.0,0.0,,,,,,,,,115.03075109998464,,,,,,,,,,113.01559869997436,113.03077509999277,113.03077509999277,113.03077509999277,113.03077509999277,113.03077509999277,113.03077509999277,113.03077509999277,113.03077509999277,113.03077509999277,113.03077509999277,113.03077509999277,113.03077509999277,114.01443470001686,114.01444930001162,114.03058079996843,115.03075109998464,115.01503989996854,115.0276343000005,115.03075109998464,115.03075109998464,115.51409219997004,115.5305315000005,118.01395100000082,118.03055440000026,118.014631500002,None,1.0,,,,,,,,,,,,,,,,,,,,,,,,,,,,,,,,,,,,,,,,,,,,,nback37,1.0,2023-12-19_09h44.14.666,untitled,2023.2.3,60.15113574608547,2023-12-19 10h31.57.127869 -0500,
10.0,"[0, -0.2]",None,0.0,1.0,1.0,1.0,,,,,,,,,118.03055440000026,,,,,,,,,,,,,,,,,,,,,,,,,,,,118.01543709996622,118.03055440000026,118.03055440000026,118.5137829000014,118.53053270000964,121.01384259999033,121.03062809997935,121.01455079996958,None,1.0,,,,,,,,,,,,,,,,,,,,,,,,,,,,,,,,,,,,,,,,,,,,,nback37,1.0,2023-12-19_09h44.14.666,untitled,2023.2.3,60.15113574608547,2023-12-19 10h31.57.127869 -0500,
11.0,"[-0.64, -0.4]",space,0.0,2.0,2.0,2.0,,,,,,,,,121.03062809997935,,,,,,,,,,,,,,,,,,,,,,,,,,,,121.01515069999732,121.03062809997935,121.03062809997935,121.51412870001514,121.53038519999244,124.01422800001455,124.030325300002,124.01492619997587,space,1.0,0.4412774000084027,None,,,,,,,,,,,,,,,,,,,,,,,,,,,,,,,,,,,,,,,,,,,nback37,1.0,2023-12-19_09h44.14.666,untitled,2023.2.3,60.15113574608547,2023-12-19 10h31.57.127869 -0500,
12.0,"[0.64, -0.4]",None,0.0,3.0,3.0,3.0,,,,,,,,,124.030325300002,,,,,,,,,,,,,,,,,,,,,,,,,,,,124.01573619997362,124.030325300002,124.030325300002,124.51403630001003,124.5303371999762,127.01378579996526,127.0305912999902,127.0145807999652,None,1.0,,,,,,,,,,,,,,,,,,,,,,,,,,,,,,,,,,,,,,,,,,,,,nback37,1.0,2023-12-19_09h44.14.666,untitled,2023.2.3,60.15113574608547,2023-12-19 10h31.57.127869 -0500,
1.0,"[-0.64, 0.4]",None,0.0,4.0,4.0,4.0,,,,,,,,,127.0305912999902,,,,,,,,,,,,,,,,,,,,,,,,,,,,127.01523859996814,127.0305912999902,127.0305912999902,127.51361279998672,127.53059099998792,130.01357139996253,130.03051919996506,130.0142601999687,None,1.0,,,,,,,,,,,,,,,,,,,,,,,,,,,,,,,,,,,,,,,,,,,,,nback37,1.0,2023-12-19_09h44.14.666,untitled,2023.2.3,60.15113574608547,2023-12-19 10h31.57.127869 -0500,
1.0,"[-0.64, 0.4]",None,0.0,5.0,5.0,5.0,,,,,,,,,130.03051919996506,,,,,,,,,,,,,,,,,,,,,,,,,,,,130.01481909997528,130.03051919996506,130.03051919996506,130.5136971999891,130.530250300013,133.01360179996118,133.03046589996666,133.01442429999588,None,1.0,,,,,,,,,,,,,,,,,,,,,,,,,,,,,,,,,,,,,,,,,,,,,nback37,1.0,2023-12-19_09h44.14.666,untitled,2023.2.3,60.15113574608547,2023-12-19 10h31.57.127869 -0500,
4.0,"[-0.2, 0.1]",None,0.0,6.0,6.0,6.0,,,,,,,,,133.03046589996666,,,,,,,,,,,,,,,,,,,,,,,,,,,,133.0150741999969,133.03046589996666,133.03046589996666,133.51357139996253,133.53029419999802,136.01368929998716,136.03021850000368,136.01444920001086,None,1.0,,,,,,,,,,,,,,,,,,,,,,,,,,,,,,,,,,,,,,,,,,,,,nback37,1.0,2023-12-19_09h44.14.666,untitled,2023.2.3,60.15113574608547,2023-12-19 10h31.57.127869 -0500,
5.0,"[0.2, 0.1]",None,0.0,7.0,7.0,7.0,,,,,,,,,136.03021850000368,,,,,,,,,,,,,,,,,,,,,,,,,,,,136.01501149998512,136.03021850000368,136.03021850000368,136.51364839996677,136.53044010000303,139.013587799971,139.0301288999617,139.01429819996702,None,1.0,,,,,,,,,,,,,,,,,,,,,,,,,,,,,,,,,,,,,,,,,,,,,nback37,1.0,2023-12-19_09h44.14.666,untitled,2023.2.3,60.15113574608547,2023-12-19 10h31.57.127869 -0500,
11.0,"[-0.64, -0.4]",space,0.0,8.0,8.0,8.0,,,,,,,,,139.0301288999617,,,,,,,,,,,,,,,,,,,,,,,,,,,,139.01491420000093,139.0301288999617,139.0301288999617,139.51367479999317,139.53019720001612,142.01383179996628,142.03030129999388,142.01479559997097,space,1.0,0.3334565000259317,None,,,,,,,,,,,,,,,,,,,,,,,,,,,,,,,,,,,,,,,,,,,nback37,1.0,2023-12-19_09h44.14.666,untitled,2023.2.3,60.15113574608547,2023-12-19 10h31.57.127869 -0500,
9.0,"[0.2, -0.1]",None,0.0,9.0,9.0,9.0,,,,,,,,,142.03030129999388,,,,,,,,,,,,,,,,,,,,,,,,,,,,142.0157051999704,142.03030129999388,142.03030129999388,142.52993239997886,142.52993239997886,145.03015459998278,145.03015459998278,145.01429600000847,None,1.0,,,,,,,,,,,,,,,,,,,,,,,,,,,,,,,,,,,,,,,,,,,,,nback37,1.0,2023-12-19_09h44.14.666,untitled,2023.2.3,60.15113574608547,2023-12-19 10h31.57.127869 -0500,
8.0,"[-0.2, -0.1]",None,0.0,10.0,10.0,10.0,,,,,,,,,145.03015459998278,,,,,,,,,,,,,,,,,,,,,,,,,,,,145.01485689997207,145.03015459998278,145.03015459998278,145.51345809997292,145.5301609999733,148.013471400016,148.02987729996676,148.01419650000753,None,1.0,,,,,,,,,,,,,,,,,,,,,,,,,,,,,,,,,,,,,,,,,,,,,nback37,1.0,2023-12-19_09h44.14.666,untitled,2023.2.3,60.15113574608547,2023-12-19 10h31.57.127869 -0500,
9.0,"[0.2, -0.1]",None,0.0,11.0,11.0,11.0,,,,,,,,,148.02987729996676,,,,,,,,,,,,,,,,,,,,,,,,,,,,148.0148443999933,148.02987729996676,148.02987729996676,148.51325670001097,148.53008150000824,151.01365519996034,151.0298856999725,151.01447970001027,None,1.0,,,,,,,,,,,,,,,,,,,,,,,,,,,,,,,,,,,,,,,,,,,,,nback37,1.0,2023-12-19_09h44.14.666,untitled,2023.2.3,60.15113574608547,2023-12-19 10h31.57.127869 -0500,
6.0,"[-0.3, 0]",None,0.0,12.0,12.0,12.0,,,,,,,,,151.0298856999725,,,,,,,,,,,,,,,,,,,,,,,,,,,,151.01510019996203,151.0298856999725,151.0298856999725,151.53014739998616,151.53014739998616,154.02986429998418,154.02986429998418,154.0143597999704,None,1.0,,,,,,,,,,,,,,,,,,,,,,,,,,,,,,,,,,,,,,,,,,,,,nback37,1.0,2023-12-19_09h44.14.666,untitled,2023.2.3,60.15113574608547,2023-12-19 10h31.57.127869 -0500,
9.0,"[0.2, -0.1]",None,0.0,13.0,13.0,13.0,,,,,,,,,154.02986429998418,,,,,,,,,,,,,,,,,,,,,,,,,,,,154.01505649997853,154.02986429998418,154.02986429998418,154.51337729999796,154.5297705999692,157.0134079999989,157.02996119996533,157.0143688999815,None,1.0,,,,,,,,,,,,,,,,,,,,,,,,,,,,,,,,,,,,,,,,,,,,,nback37,1.0,2023-12-19_09h44.14.666,untitled,2023.2.3,60.15113574608547,2023-12-19 10h31.57.127869 -0500,
7.0,"[0.3, 0]",None,0.0,14.0,14.0,14.0,,,,,,,,,157.02996119996533,,,,,,,,,,,,,,,,,,,,,,,,,,,,157.01505260000704,157.02996119996533,157.02996119996533,157.52983339998173,157.52983339998173,160.02989369997522,160.02989369997522,160.01413099997444,None,1.0,,,,,,,,,,,,,,,,,,,,,,,,,,,,,,,,,,,,,,,,,,,,,nback37,1.0,2023-12-19_09h44.14.666,untitled,2023.2.3,60.15113574608547,2023-12-19 10h31.57.127869 -0500,
2.0,"[0.64, 0.4]",None,0.0,15.0,15.0,15.0,,,,,,,,,160.02989369997522,,,,,,,,,,,,,,,,,,,,,,,,,,,,160.01490309997462,160.02989369997522,160.02989369997522,160.52974079997512,160.52974079997512,163.029821300006,163.029821300006,163.0142721000011,None,1.0,,,,,,,,,,,,,,,,,,,,,,,,,,,,,,,,,,,,,,,,,,,,,nback37,1.0,2023-12-19_09h44.14.666,untitled,2023.2.3,60.15113574608547,2023-12-19 10h31.57.127869 -0500,
2.0,"[0.64, 0.4]",None,0.0,16.0,16.0,16.0,,,,,,,,,163.029821300006,,,,,,,,,,,,,,,,,,,,,,,,,,,,163.0147716999636,163.029821300006,163.029821300006,163.52984550001565,163.52984550001565,166.0296164000174,166.0296164000174,166.0140728999977,None,1.0,,,,,,,,,,,,,,,,,,,,,,,,,,,,,,,,,,,,,,,,,,,,,nback37,1.0,2023-12-19_09h44.14.666,untitled,2023.2.3,60.15113574608547,2023-12-19 10h31.57.127869 -0500,
11.0,"[-0.64, -0.4]",space,0.0,17.0,17.0,17.0,,,,,,,,,166.0296164000174,,,,,,,,,,,,,,,,,,,,,,,,,,,,166.01473100000294,166.0296164000174,166.0296164000174,166.52966339996783,166.52966339996783,169.02972699998645,169.02972699998645,169.0141931999824,space,1.0,0.3340052999556064,None,,,,,,,,,,,,,,,,,,,,,,,,,,,,,,,,,,,,,,,,,,,nback37,1.0,2023-12-19_09h44.14.666,untitled,2023.2.3,60.15113574608547,2023-12-19 10h31.57.127869 -0500,
11.0,"[-0.64, -0.4]",space,0.0,18.0,18.0,18.0,,,,,,,,,169.02972699998645,,,,,,,,,,,,,,,,,,,,,,,,,,,,169.0150663999957,169.02972699998645,169.02972699998645,169.5297004999593,169.5297004999593,172.0295506999828,172.0295506999828,172.0139681000146,space,1.0,0.379386099986732,None,,,,,,,,,,,,,,,,,,,,,,,,,,,,,,,,,,,,,,,,,,,nback37,1.0,2023-12-19_09h44.14.666,untitled,2023.2.3,60.15113574608547,2023-12-19 10h31.57.127869 -0500,
7.0,"[0.3, 0]",None,0.0,19.0,19.0,19.0,,,,,,,,,172.0295506999828,,,,,,,,,,,,,,,,,,,,,,,,,,,,172.01478999998653,172.0295506999828,172.0295506999828,172.52983650000533,172.52983650000533,175.02962669997942,175.02962669997942,175.01381709997077,None,1.0,,,,,,,,,,,,,,,,,,,,,,,,,,,,,,,,,,,,,,,,,,,,,nback37,1.0,2023-12-19_09h44.14.666,untitled,2023.2.3,60.15113574608547,2023-12-19 10h31.57.127869 -0500,
3.0,"[0, 0.2]",None,0.0,20.0,20.0,20.0,,,,,,,,,175.02962669997942,,,,,,,,,,,,,,,,,,,,,,,,,,,,175.0144403000013,175.02962669997942,175.02962669997942,175.5295371999964,175.5295371999964,178.0296079000109,178.0296079000109,178.01380349998362,None,1.0,,,,,,,,,,,,,,,,,,,,,,,,,,,,,,,,,,,,,,,,,,,,,nback37,1.0,2023-12-19_09h44.14.666,untitled,2023.2.3,60.15113574608547,2023-12-19 10h31.57.127869 -0500,
10.0,"[0, -0.2]",None,0.0,21.0,21.0,21.0,,,,,,,,,178.0296079000109,,,,,,,,,,,,,,,,,,,,,,,,,,,,178.0145571999601,178.0296079000109,178.0296079000109,178.52937150001526,178.52937150001526,181.02946230000816,181.02946230000816,181.0136949999724,None,1.0,,,,,,,,,,,,,,,,,,,,,,,,,,,,,,,,,,,,,,,,,,,,,nback37,1.0,2023-12-19_09h44.14.666,untitled,2023.2.3,60.15113574608547,2023-12-19 10h31.57.127869 -0500,
1.0,"[-0.64, 0.4]",None,0.0,22.0,22.0,22.0,,,,,,,,,181.02946230000816,,,,,,,,,,,,,,,,,,,,,,,,,,,,181.0143506000168,181.02946230000816,181.02946230000816,181.52943619998405,181.52943619998405,184.02934790001015,184.02934790001015,184.01316339999903,None,1.0,,,,,,,,,,,,,,,,,,,,,,,,,,,,,,,,,,,,,,,,,,,,,nback37,1.0,2023-12-19_09h44.14.666,untitled,2023.2.3,60.15113574608547,2023-12-19 10h31.57.127869 -0500,
2.0,"[0.64, 0.4]",None,0.0,23.0,23.0,23.0,,,,,,,,,184.02934790001015,,,,,,,,,,,,,,,,,,,,,,,,,,,,184.01348309998863,184.02934790001015,184.02934790001015,184.52915710001253,184.52915710001253,187.0293824999826,187.0293824999826,187.0139331999817,None,1.0,,,,,,,,,,,,,,,,,,,,,,,,,,,,,,,,,,,,,,,,,,,,,nback37,1.0,2023-12-19_09h44.14.666,untitled,2023.2.3,60.15113574608547,2023-12-19 10h31.57.127869 -0500,
6.0,"[-0.3, 0]",None,0.0,24.0,24.0,24.0,,,,,,,,,187.0293824999826,,,,,,,,,,,,,,,,,,,,,,,,,,,,187.01493229996413,187.0293824999826,187.0293824999826,187.5293581999722,187.5293581999722,190.02950040000724,190.02950040000724,190.01336109999104,None,1.0,,,,,,,,,,,,,,,,,,,,,,,,,,,,,,,,,,,,,,,,,,,,,nback37,1.0,2023-12-19_09h44.14.666,untitled,2023.2.3,60.15113574608547,2023-12-19 10h31.57.127869 -0500,
3.0,"[0, 0.2]",None,0.0,25.0,25.0,25.0,,,,,,,,,190.02950040000724,,,,,,,,,,,,,,,,,,,,,,,,,,,,190.01394909998635,190.02950040000724,190.02950040000724,190.52937469998145,190.52937469998145,193.02909939998065,193.02909939998065,193.01339500001632,None,1.0,,,,,,,,,,,,,,,,,,,,,,,,,,,,,,,,,,,,,,,,,,,,,nback37,1.0,2023-12-19_09h44.14.666,untitled,2023.2.3,60.15113574608547,2023-12-19 10h31.57.127869 -0500,
11.0,"[-0.64, -0.4]",space,0.0,26.0,26.0,26.0,,,,,,,,,193.02909939998065,,,,,,,,,,,,,,,,,,,,,,,,,,,,193.0140018999809,193.02909939998065,193.02909939998065,193.52950479998253,193.52950479998253,196.02896419999888,196.02896419999888,196.01329689996783,space,1.0,0.4110904000117443,None,,,,,,,,,,,,,,,,,,,,,,,,,,,,,,,,,,,,,,,,,,,nback37,1.0,2023-12-19_09h44.14.666,untitled,2023.2.3,60.15113574608547,2023-12-19 10h31.57.127869 -0500,
1.0,"[-0.64, 0.4]",None,0.0,27.0,27.0,27.0,,,,,,,,,196.02896419999888,,,,,,,,,,,,,,,,,,,,,,,,,,,,196.01397709996672,196.02896419999888,196.02896419999888,196.52974749996795,196.52974749996795,199.02906769997207,199.02906769997207,199.01319229998623,None,1.0,,,,,,,,,,,,,,,,,,,,,,,,,,,,,,,,,,,,,,,,,,,,,nback37,1.0,2023-12-19_09h44.14.666,untitled,2023.2.3,60.15113574608547,2023-12-19 10h31.57.127869 -0500,
3.0,"[0, 0.2]",None,0.0,28.0,28.0,28.0,,,,,,,,,199.02906769997207,,,,,,,,,,,,,,,,,,,,,,,,,,,,199.01376180001532,199.02906769997207,199.02906769997207,199.52908949996345,199.52908949996345,202.0292072999873,202.0292072999873,202.01366860000417,None,1.0,,,,,,,,,,,,,,,,,,,,,,,,,,,,,,,,,,,,,,,,,,,,,nback37,1.0,2023-12-19_09h44.14.666,untitled,2023.2.3,60.15113574608547,2023-12-19 10h31.57.127869 -0500,
9.0,"[0.2, -0.1]",None,0.0,29.0,29.0,29.0,,,,,,,,,202.0292072999873,,,,,,,,,,,,,,,,,,,,,,,,,,,,202.01439909997865,202.0292072999873,202.0292072999873,202.52942370000528,202.52942370000528,205.02914800000144,205.02914800000144,205.0131295999745,None,1.0,,,,,,,,,,,,,,,,,,,,,,,,,,,,,,,,,,,,,,,,,,,,,nback37,1.0,2023-12-19_09h44.14.666,untitled,2023.2.3,60.15113574608547,2023-12-19 10h31.57.127869 -0500,
8.0,"[-0.2, -0.1]",None,0.0,30.0,30.0,30.0,,,,,,,,,205.02914800000144,,,,,,,,,,,,,,,,,,,,,,,,,,,,205.01370740000857,205.02914800000144,205.02914800000144,205.52892589999828,205.52892589999828,208.02908690000183,208.02908690000183,208.01327409996884,None,1.0,,,,,,,,,,,,,,,,,,,,,,,,,,,,,,,,,,,,,,,,,,,,,nback37,1.0,2023-12-19_09h44.14.666,untitled,2023.2.3,60.15113574608547,2023-12-19 10h31.57.127869 -0500,
12.0,"[0.64, -0.4]",None,0.0,31.0,31.0,31.0,,,,,,,,,208.02908690000183,,,,,,,,,,,,,,,,,,,,,,,,,,,,208.0138410999789,208.02908690000183,208.02908690000183,208.52897159999705,208.52897159999705,211.029052399972,211.029052399972,211.01312839996532,None,1.0,,,,,,,,,,,,,,,,,,,,,,,,,,,,,,,,,,,,,,,,,,,,,nback37,1.0,2023-12-19_09h44.14.666,untitled,2023.2.3,60.15113574608547,2023-12-19 10h31.57.127869 -0500,
9.0,"[0.2, -0.1]",None,0.0,32.0,32.0,32.0,,,,,,,,,211.029052399972,,,,,,,,,,,,,,,,,,,,,,,,,,,,211.0137143000029,211.029052399972,211.029052399972,211.5289389999816,211.5289389999816,214.0289481999935,214.0289481999935,214.01315859996248,None,1.0,,,,,,,,,,,,,,,,,,,,,,,,,,,,,,,,,,,,,,,,,,,,,nback37,1.0,2023-12-19_09h44.14.666,untitled,2023.2.3,60.15113574608547,2023-12-19 10h31.57.127869 -0500,
11.0,"[-0.64, -0.4]",space,0.0,33.0,33.0,33.0,,,,,,,,,214.0289481999935,,,,,,,,,,,,,,,,,,,,,,,,,,,,214.0137823999976,214.0289481999935,214.0289481999935,214.5291151999845,214.5291151999845,217.0287022999837,217.0287022999837,217.0129777999828,space,1.0,0.4309449999709613,None,,,,,,,,,,,,,,,,,,,,,,,,,,,,,,,,,,,,,,,,,,,nback37,1.0,2023-12-19_09h44.14.666,untitled,2023.2.3,60.15113574608547,2023-12-19 10h31.57.127869 -0500,
7.0,"[0.3, 0]",None,0.0,34.0,34.0,34.0,,,,,,,,,217.0287022999837,,,,,,,,,,,,,,,,,,,,,,,,,,,,217.01367849996316,217.0287022999837,217.0287022999837,217.5292035000166,217.5292035000166,220.0288761999691,220.0288761999691,220.01356799999485,None,1.0,,,,,,,,,,,,,,,,,,,,,,,,,,,,,,,,,,,,,,,,,,,,,nback37,1.0,2023-12-19_09h44.14.666,untitled,2023.2.3,60.15113574608547,2023-12-19 10h31.57.127869 -0500,
11.0,"[-0.64, -0.4]",space,0.0,35.0,35.0,35.0,,,,,,,,,220.0288761999691,,,,,,,,,,,,,,,,,,,,,,,,,,,,220.0142927999841,220.0288761999691,220.0288761999691,220.52880799997365,220.52880799997365,223.02876949997156,223.02876949997156,223.0129456999712,space,1.0,0.4374819999793544,None,,,,,,,,,,,,,,,,,,,,,,,,,,,,,,,,,,,,,,,,,,,nback37,1.0,2023-12-19_09h44.14.666,untitled,2023.2.3,60.15113574608547,2023-12-19 10h31.57.127869 -0500,
4.0,"[-0.2, 0.1]",None,0.0,36.0,36.0,36.0,,,,,,,,,223.02876949997156,,,,,,,,,,,,,,,,,,,,,,,,,,,,223.0138125999947,223.02876949997156,223.02876949997156,223.5288034999976,223.5288034999976,226.02860429999416,226.02860429999416,226.01282800000627,None,1.0,,,,,,,,,,,,,,,,,,,,,,,,,,,,,,,,,,,,,,,,,,,,,nback37,1.0,2023-12-19_09h44.14.666,untitled,2023.2.3,60.15113574608547,2023-12-19 10h31.57.127869 -0500,
5.0,"[0.2, 0.1]",None,0.0,37.0,37.0,37.0,,,,,,,,,226.02860429999416,,,,,,,,,,,,,,,,,,,,,,,,,,,,226.013390099979,226.02860429999416,226.02860429999416,226.52867709996644,226.52867709996644,229.0287320999778,229.0287320999778,229.0130221999716,None,1.0,,,,,,,,,,,,,,,,,,,,,,,,,,,,,,,,,,,,,,,,,,,,,nback37,1.0,2023-12-19_09h44.14.666,untitled,2023.2.3,60.15113574608547,2023-12-19 10h31.57.127869 -0500,
6.0,"[-0.3, 0]",None,0.0,38.0,38.0,38.0,,,,,,,,,229.0287320999778,,,,,,,,,,,,,,,,,,,,,,,,,,,,229.013638000004,229.0287320999778,229.0287320999778,229.52874430001248,229.52874430001248,232.0285825000028,232.0285825000028,232.01257939997595,None,1.0,,,,,,,,,,,,,,,,,,,,,,,,,,,,,,,,,,,,,,,,,,,,,nback37,1.0,2023-12-19_09h44.14.666,untitled,2023.2.3,60.15113574608547,2023-12-19 10h31.57.127869 -0500,
11.0,"[-0.64, -0.4]",space,0.0,39.0,39.0,39.0,,,,,,,,,232.0285825000028,,,,,,,,,,,,,,,,,,,,,,,,,,,,232.01314160000769,232.0285825000028,232.0285825000028,232.52858859999105,232.52858859999105,235.0287268999964,235.0287268999964,235.01262160000624,space,1.0,0.336814799986314,None,,,,,,,,,,,,,,,,,,,,,,,,,,,,,,,,,,,,,,,,,,,nback37,1.0,2023-12-19_09h44.14.666,untitled,2023.2.3,60.15113574608547,2023-12-19 10h31.57.127869 -0500,
,,,,,,,,,,,,,,,,,,,,,,,,,,,,,,,,,,,,,,,,,,,,,,,,,,,,,,,235.0131820999668,235.0287268999964,235.0287268999964,271.1131016999716,space,36.069725700013805,None,,,,,,,,,,,,,,,,,,,,,,,,,,,,,,,,,,,,nback37,1.0,2023-12-19_09h44.14.666,untitled,2023.2.3,60.15113574608547,2023-12-19 10h31.57.127869 -0500,
10.0,"[0, -0.2]",None,,,,,0.0,0.0,0.0,0.0,,,,,272.12782519997563,,,,,,,,,,,,,,,,,,,,,,,,271.1131420999882,271.128144999966,272.12782519997563,272.1123338000034,,,,,,,,,,,,,,,,,,,,272.1204485999769,272.12782519997563,272.12782519997563,272.6279070000164,272.6279070000164,275.1277835000073,275.1277835000073,275.1122250999906,None,1.0,,,,,,,,,,,,,,,,,,,,,,,,,,nback37,1.0,2023-12-19_09h44.14.666,untitled,2023.2.3,60.15113574608547,2023-12-19 10h31.57.127869 -0500,
5.0,"[0.2, 0.1]",None,,,,,0.0,1.0,1.0,1.0,,,,,275.1277835000073,,,,,,,,,,,,,,,,,,,,,,,,,,,,,,,,,,,,,,,,,,,,,,,275.1131158999633,275.1277835000073,275.1277835000073,275.6278680000105,275.6278680000105,278.1277396999649,278.1277396999649,278.111986599979,None,1.0,,,,,,,,,,,,,,,,,,,,,,,,,,nback37,1.0,2023-12-19_09h44.14.666,untitled,2023.2.3,60.15113574608547,2023-12-19 10h31.57.127869 -0500,
6.0,"[-0.3, 0]",None,,,,,0.0,2.0,2.0,2.0,,,,,278.1277396999649,,,,,,,,,,,,,,,,,,,,,,,,,,,,,,,,,,,,,,,,,,,,,,,278.11264469998423,278.1277396999649,278.1277396999649,278.6277394999633,278.6277394999633,281.1278016999713,281.1278016999713,281.1118601000053,None,1.0,,,,,,,,,,,,,,,,,,,,,,,,,,nback37,1.0,2023-12-19_09h44.14.666,untitled,2023.2.3,60.15113574608547,2023-12-19 10h31.57.127869 -0500,
6.0,"[-0.3, 0]",space,,,,,0.0,3.0,3.0,3.0,,,,,281.1278016999713,,,,,,,,,,,,,,,,,,,,,,,,,,,,,,,,,,,,,,,,,,,,,,,281.1124240999925,281.1278016999713,281.1278016999713,281.6276728999801,281.6276728999801,284.12767459999304,284.12767459999304,284.11169150000205,space,1.0,0.3424383999663405,None,,,,,,,,,,,,,,,,,,,,,,,,nback37,1.0,2023-12-19_09h44.14.666,untitled,2023.2.3,60.15113574608547,2023-12-19 10h31.57.127869 -0500,
12.0,"[0.64, -0.4]",None,,,,,0.0,4.0,4.0,4.0,,,,,284.12767459999304,,,,,,,,,,,,,,,,,,,,,,,,,,,,,,,,,,,,,,,,,,,,,,,284.11259400000563,284.12767459999304,284.12767459999304,284.6275167000131,284.6275167000131,287.12751859996933,287.12751859996933,287.1117529000039,None,1.0,,,,,,,,,,,,,,,,,,,,,,,,,,nback37,1.0,2023-12-19_09h44.14.666,untitled,2023.2.3,60.15113574608547,2023-12-19 10h31.57.127869 -0500,
10.0,"[0, -0.2]",None,,,,,0.0,5.0,5.0,5.0,,,,,287.12751859996933,,,,,,,,,,,,,,,,,,,,,,,,,,,,,,,,,,,,,,,,,,,,,,,287.11237919999985,287.12751859996933,287.12751859996933,287.62754630000563,287.62754630000563,290.1275936000165,290.1275936000165,290.11195210000733,None,1.0,,,,,,,,,,,,,,,,,,,,,,,,,,nback37,1.0,2023-12-19_09h44.14.666,untitled,2023.2.3,60.15113574608547,2023-12-19 10h31.57.127869 -0500,
2.0,"[0.64, 0.4]",None,,,,,0.0,6.0,6.0,6.0,,,,,290.1275936000165,,,,,,,,,,,,,,,,,,,,,,,,,,,,,,,,,,,,,,,,,,,,,,,290.1125989999855,290.1275936000165,290.1275936000165,290.6274384999997,290.6274384999997,293.1275397000136,293.1275397000136,293.1116959999781,None,1.0,,,,,,,,,,,,,,,,,,,,,,,,,,nback37,1.0,2023-12-19_09h44.14.666,untitled,2023.2.3,60.15113574608547,2023-12-19 10h31.57.127869 -0500,
9.0,"[0.2, -0.1]",None,,,,,0.0,7.0,7.0,7.0,,,,,293.1275397000136,,,,,,,,,,,,,,,,,,,,,,,,,,,,,,,,,,,,,,,,,,,,,,,293.1123045000131,293.1275397000136,293.1275397000136,293.6274761999957,293.6274761999957,296.1274381999974,296.1274381999974,296.11165239999536,None,1.0,,,,,,,,,,,,,,,,,,,,,,,,,,nback37,1.0,2023-12-19_09h44.14.666,untitled,2023.2.3,60.15113574608547,2023-12-19 10h31.57.127869 -0500,
9.0,"[0.2, -0.1]",space,,,,,0.0,8.0,8.0,8.0,,,,,296.1274381999974,,,,,,,,,,,,,,,,,,,,,,,,,,,,,,,,,,,,,,,,,,,,,,,296.1123327999958,296.1274381999974,296.1274381999974,296.62733250000747,296.62733250000747,299.1273543999996,299.1273543999996,299.1114122999716,space,1.0,0.4590804000035859,None,,,,,,,,,,,,,,,,,,,,,,,,nback37,1.0,2023-12-19_09h44.14.666,untitled,2023.2.3,60.15113574608547,2023-12-19 10h31.57.127869 -0500,
6.0,"[-0.3, 0]",None,,,,,0.0,9.0,9.0,9.0,,,,,299.1273543999996,,,,,,,,,,,,,,,,,,,,,,,,,,,,,,,,,,,,,,,,,,,,,,,299.1119643999846,299.1273543999996,299.1273543999996,299.6274290999864,299.6274290999864,302.12733559997287,302.12733559997287,302.1115381999989,None,1.0,,,,,,,,,,,,,,,,,,,,,,,,,,nback37,1.0,2023-12-19_09h44.14.666,untitled,2023.2.3,60.15113574608547,2023-12-19 10h31.57.127869 -0500,
11.0,"[-0.64, -0.4]",None,,,,,0.0,10.0,10.0,10.0,,,,,302.12733559997287,,,,,,,,,,,,,,,,,,,,,,,,,,,,,,,,,,,,,,,,,,,,,,,302.1121634999872,302.12733559997287,302.12733559997287,302.6273566000164,302.6273566000164,305.12712039996404,305.12712039996404,305.1114957999671,None,1.0,,,,,,,,,,,,,,,,,,,,,,,,,,nback37,1.0,2023-12-19_09h44.14.666,untitled,2023.2.3,60.15113574608547,2023-12-19 10h31.57.127869 -0500,
11.0,"[-0.64, -0.4]",space,,,,,0.0,11.0,11.0,11.0,,,,,305.12712039996404,,,,,,,,,,,,,,,,,,,,,,,,,,,,,,,,,,,,,,,,,,,,,,,305.11205090000294,305.12712039996404,305.12712039996404,305.6274585999781,305.6274585999781,308.1271747999708,308.1271747999708,308.1115861000144,space,1.0,0.331665699952282,None,,,,,,,,,,,,,,,,,,,,,,,,nback37,1.0,2023-12-19_09h44.14.666,untitled,2023.2.3,60.15113574608547,2023-12-19 10h31.57.127869 -0500,
4.0,"[-0.2, 0.1]",None,,,,,0.0,12.0,12.0,12.0,,,,,308.1271747999708,,,,,,,,,,,,,,,,,,,,,,,,,,,,,,,,,,,,,,,,,,,,,,,308.1122893000138,308.1271747999708,308.1271747999708,308.627495099965,308.627495099965,311.1272680999828,311.1272680999828,311.1117510999902,None,1.0,,,,,,,,,,,,,,,,,,,,,,,,,,nback37,1.0,2023-12-19_09h44.14.666,untitled,2023.2.3,60.15113574608547,2023-12-19 10h31.57.127869 -0500,
3.0,"[0, 0.2]",None,,,,,0.0,13.0,13.0,13.0,,,,,311.1272680999828,,,,,,,,,,,,,,,,,,,,,,,,,,,,,,,,,,,,,,,,,,,,,,,311.11235750000924,311.1272680999828,311.1272680999828,311.6273054999765,311.6273054999765,314.127035100013,314.127035100013,314.1112145999796,None,1.0,,,,,,,,,,,,,,,,,,,,,,,,,,nback37,1.0,2023-12-19_09h44.14.666,untitled,2023.2.3,60.15113574608547,2023-12-19 10h31.57.127869 -0500,
3.0,"[0, 0.2]",space,,,,,0.0,14.0,14.0,14.0,,,,,314.127035100013,,,,,,,,,,,,,,,,,,,,,,,,,,,,,,,,,,,,,,,,,,,,,,,314.11178149998887,314.127035100013,314.127035100013,314.6271230999846,314.6271230999846,317.12703269999474,317.12703269999474,317.11149250000017,space,1.0,0.3872206999803893,None,,,,,,,,,,,,,,,,,,,,,,,,nback37,1.0,2023-12-19_09h44.14.666,untitled,2023.2.3,60.15113574608547,2023-12-19 10h31.57.127869 -0500,
8.0,"[-0.2, -0.1]",None,,,,,0.0,15.0,15.0,15.0,,,,,317.12703269999474,,,,,,,,,,,,,,,,,,,,,,,,,,,,,,,,,,,,,,,,,,,,,,,317.11227360001067,317.12703269999474,317.12703269999474,317.6270726000075,317.6270726000075,320.1269403999904,320.1269403999904,320.11105710000265,None,1.0,,,,,,,,,,,,,,,,,,,,,,,,,,nback37,1.0,2023-12-19_09h44.14.666,untitled,2023.2.3,60.15113574608547,2023-12-19 10h31.57.127869 -0500,
1.0,"[-0.64, 0.4]",None,,,,,0.0,16.0,16.0,16.0,,,,,320.1269403999904,,,,,,,,,,,,,,,,,,,,,,,,,,,,,,,,,,,,,,,,,,,,,,,320.1115427999757,320.1269403999904,320.1269403999904,320.62725259998115,320.62725259998115,323.12709039996844,323.12709039996844,323.11098569998285,None,1.0,,,,,,,,,,,,,,,,,,,,,,,,,,nback37,1.0,2023-12-19_09h44.14.666,untitled,2023.2.3,60.15113574608547,2023-12-19 10h31.57.127869 -0500,
2.0,"[0.64, 0.4]",None,,,,,0.0,17.0,17.0,17.0,,,,,323.12709039996844,,,,,,,,,,,,,,,,,,,,,,,,,,,,,,,,,,,,,,,,,,,,,,,323.1115754999919,323.12709039996844,323.12709039996844,323.6270124000148,323.6270124000148,326.1271294999751,326.1271294999751,326.11111739999615,None,1.0,,,,,,,,,,,,,,,,,,,,,,,,,,nback37,1.0,2023-12-19_09h44.14.666,untitled,2023.2.3,60.15113574608547,2023-12-19 10h31.57.127869 -0500,
4.0,"[-0.2, 0.1]",None,,,,,0.0,18.0,18.0,18.0,,,,,326.1271294999751,,,,,,,,,,,,,,,,,,,,,,,,,,,,,,,,,,,,,,,,,,,,,,,326.1117414999753,326.1271294999751,326.1271294999751,326.62700239999685,326.62700239999685,329.1269372999668,329.1269372999668,329.11080299998866,None,1.0,,,,,,,,,,,,,,,,,,,,,,,,,,nback37,1.0,2023-12-19_09h44.14.666,untitled,2023.2.3,60.15113574608547,2023-12-19 10h31.57.127869 -0500,
4.0,"[-0.2, 0.1]",space,,,,,0.0,19.0,19.0,19.0,,,,,329.1269372999668,,,,,,,,,,,,,,,,,,,,,,,,,,,,,,,,,,,,,,,,,,,,,,,329.1113201999688,329.1269372999668,329.1269372999668,329.6268790999893,329.6268790999893,332.1270464999834,332.1270464999834,332.11119450000115,space,1.0,0.536678500007838,None,,,,,,,,,,,,,,,,,,,,,,,,nback37,1.0,2023-12-19_09h44.14.666,untitled,2023.2.3,60.15113574608547,2023-12-19 10h31.57.127869 -0500,
8.0,"[-0.2, -0.1]",None,,,,,0.0,20.0,20.0,20.0,,,,,332.1270464999834,,,,,,,,,,,,,,,,,,,,,,,,,,,,,,,,,,,,,,,,,,,,,,,332.11194329999853,332.1270464999834,332.1270464999834,332.6269482999924,332.6269482999924,335.12691499997163,335.12691499997163,335.11078980000457,None,1.0,,,,,,,,,,,,,,,,,,,,,,,,,,nback37,1.0,2023-12-19_09h44.14.666,untitled,2023.2.3,60.15113574608547,2023-12-19 10h31.57.127869 -0500,
5.0,"[0.2, 0.1]",None,,,,,0.0,21.0,21.0,21.0,,,,,335.12691499997163,,,,,,,,,,,,,,,,,,,,,,,,,,,,,,,,,,,,,,,,,,,,,,,335.1113719000132,335.12691499997163,335.12691499997163,335.6268292000168,335.6268292000168,338.12661039998056,338.12661039998056,338.11080460000085,None,1.0,,,,,,,,,,,,,,,,,,,,,,,,,,nback37,1.0,2023-12-19_09h44.14.666,untitled,2023.2.3,60.15113574608547,2023-12-19 10h31.57.127869 -0500,
5.0,"[0.2, 0.1]",space,,,,,0.0,22.0,22.0,22.0,,,,,338.12661039998056,,,,,,,,,,,,,,,,,,,,,,,,,,,,,,,,,,,,,,,,,,,,,,,338.1114506999729,338.12661039998056,338.12661039998056,338.6269482999924,338.6269482999924,341.12678609997965,341.12678609997965,341.1107484999811,space,1.0,0.4172548999777064,None,,,,,,,,,,,,,,,,,,,,,,,,nback37,1.0,2023-12-19_09h44.14.666,untitled,2023.2.3,60.15113574608547,2023-12-19 10h31.57.127869 -0500,
1.0,"[-0.64, 0.4]",None,,,,,0.0,23.0,23.0,23.0,,,,,341.12678609997965,,,,,,,,,,,,,,,,,,,,,,,,,,,,,,,,,,,,,,,,,,,,,,,341.1114532999927,341.12678609997965,341.12678609997965,341.6266425999929,341.6266425999929,344.1267404999817,344.1267404999817,344.110868299962,None,1.0,,,,,,,,,,,,,,,,,,,,,,,,,,nback37,1.0,2023-12-19_09h44.14.666,untitled,2023.2.3,60.15113574608547,2023-12-19 10h31.57.127869 -0500,
3.0,"[0, 0.2]",None,,,,,0.0,24.0,24.0,24.0,,,,,344.1267404999817,,,,,,,,,,,,,,,,,,,,,,,,,,,,,,,,,,,,,,,,,,,,,,,344.111476399994,344.1267404999817,344.1267404999817,344.6265416999813,344.6265416999813,347.1264875999768,347.1264875999768,347.11074460000964,None,1.0,,,,,,,,,,,,,,,,,,,,,,,,,,nback37,1.0,2023-12-19_09h44.14.666,untitled,2023.2.3,60.15113574608547,2023-12-19 10h31.57.127869 -0500,
6.0,"[-0.3, 0]",None,,,,,0.0,25.0,25.0,25.0,,,,,347.1264875999768,,,,,,,,,,,,,,,,,,,,,,,,,,,,,,,,,,,,,,,,,,,,,,,347.11137850000523,347.1264875999768,347.1264875999768,347.62682860001223,347.62682860001223,350.12657939997735,350.12657939997735,350.1105990000069,None,1.0,,,,,,,,,,,,,,,,,,,,,,,,,,nback37,1.0,2023-12-19_09h44.14.666,untitled,2023.2.3,60.15113574608547,2023-12-19 10h31.57.127869 -0500,
1.0,"[-0.64, 0.4]",None,,,,,0.0,26.0,26.0,26.0,,,,,350.12657939997735,,,,,,,,,,,,,,,,,,,,,,,,,,,,,,,,,,,,,,,,,,,,,,,350.11114170000656,350.12657939997735,350.12657939997735,350.62659569998505,350.62659569998505,353.12661380000645,353.12661380000645,353.11069210001733,None,1.0,,,,,,,,,,,,,,,,,,,,,,,,,,nback37,1.0,2023-12-19_09h44.14.666,untitled,2023.2.3,60.15113574608547,2023-12-19 10h31.57.127869 -0500,
1.0,"[-0.64, 0.4]",space,,,,,0.0,27.0,27.0,27.0,,,,,353.12661380000645,,,,,,,,,,,,,,,,,,,,,,,,,,,,,,,,,,,,,,,,,,,,,,,353.1114089000039,353.12661380000645,353.12661380000645,353.62643479998223,353.62643479998223,356.1261954999645,356.1261954999645,356.1109492999967,space,1.0,0.30252319999272,None,,,,,,,,,,,,,,,,,,,,,,,,nback37,1.0,2023-12-19_09h44.14.666,untitled,2023.2.3,60.15113574608547,2023-12-19 10h31.57.127869 -0500,
1.0,"[-0.64, 0.4]",space,,,,,0.0,28.0,28.0,28.0,,,,,356.1261954999645,,,,,,,,,,,,,,,,,,,,,,,,,,,,,,,,,,,,,,,,,,,,,,,356.1118318999652,356.1261954999645,356.1261954999645,356.6264824999962,356.6264824999962,359.1261499999673,359.1261499999673,359.1103292999905,space,1.0,0.5312722999951802,None,,,,,,,,,,,,,,,,,,,,,,,,nback37,1.0,2023-12-19_09h44.14.666,untitled,2023.2.3,60.15113574608547,2023-12-19 10h31.57.127869 -0500,
3.0,"[0, 0.2]",None,,,,,0.0,29.0,29.0,29.0,,,,,359.1261499999673,,,,,,,,,,,,,,,,,,,,,,,,,,,,,,,,,,,,,,,,,,,,,,,359.111003900005,359.1261499999673,359.1261499999673,359.6263750999933,359.6263750999933,362.126249199966,362.126249199966,362.1106429999927,None,1.0,,,,,,,,,,,,,,,,,,,,,,,,,,nback37,1.0,2023-12-19_09h44.14.666,untitled,2023.2.3,60.15113574608547,2023-12-19 10h31.57.127869 -0500,
12.0,"[0.64, -0.4]",None,,,,,0.0,30.0,30.0,30.0,,,,,362.126249199966,,,,,,,,,,,,,,,,,,,,,,,,,,,,,,,,,,,,,,,,,,,,,,,362.1113312999951,362.126249199966,362.126249199966,362.62662260001525,362.62662260001525,365.1261254000128,365.1261254000128,365.1107180999825,None,1.0,,,,,,,,,,,,,,,,,,,,,,,,,,nback37,1.0,2023-12-19_09h44.14.666,untitled,2023.2.3,60.15113574608547,2023-12-19 10h31.57.127869 -0500,
12.0,"[0.64, -0.4]",space,,,,,0.0,31.0,31.0,31.0,,,,,365.1261254000128,,,,,,,,,,,,,,,,,,,,,,,,,,,,,,,,,,,,,,,,,,,,,,,365.1113912999863,365.1261254000128,365.1261254000128,365.62689680000767,365.62689680000767,368.1260724000167,368.1260724000167,368.1103040999733,space,1.0,0.3152718000346795,None,,,,,,,,,,,,,,,,,,,,,,,,nback37,1.0,2023-12-19_09h44.14.666,untitled,2023.2.3,60.15113574608547,2023-12-19 10h31.57.127869 -0500,
2.0,"[0.64, 0.4]",None,,,,,0.0,32.0,32.0,32.0,,,,,368.1260724000167,,,,,,,,,,,,,,,,,,,,,,,,,,,,,,,,,,,,,,,,,,,,,,,368.1110877000028,368.1260724000167,368.1260724000167,368.62650509999366,368.62650509999366,371.12595869996585,371.12595869996585,371.1100995999877,None,1.0,,,,,,,,,,,,,,,,,,,,,,,,,,nback37,1.0,2023-12-19_09h44.14.666,untitled,2023.2.3,60.15113574608547,2023-12-19 10h31.57.127869 -0500,
1.0,"[-0.64, 0.4]",None,,,,,0.0,33.0,33.0,33.0,,,,,371.12595869996585,,,,,,,,,,,,,,,,,,,,,,,,,,,,,,,,,,,,,,,,,,,,,,,371.11066830001073,371.12595869996585,371.12595869996585,371.6264415999758,371.6264415999758,374.1260374999838,374.1260374999838,374.1104183999705,None,1.0,,,,,,,,,,,,,,,,,,,,,,,,,,nback37,1.0,2023-12-19_09h44.14.666,untitled,2023.2.3,60.15113574608547,2023-12-19 10h31.57.127869 -0500,
7.0,"[0.3, 0]",None,,,,,0.0,34.0,34.0,34.0,,,,,374.1260374999838,,,,,,,,,,,,,,,,,,,,,,,,,,,,,,,,,,,,,,,,,,,,,,,374.11092459998326,374.1260374999838,374.1260374999838,374.6263486999669,374.6263486999669,377.1260313999956,377.1260313999956,377.1104649999761,None,1.0,,,,,,,,,,,,,,,,,,,,,,,,,,nback37,1.0,2023-12-19_09h44.14.666,untitled,2023.2.3,60.15113574608547,2023-12-19 10h31.57.127869 -0500,
7.0,"[0.3, 0]",space,,,,,0.0,35.0,35.0,35.0,,,,,377.1260313999956,,,,,,,,,,,,,,,,,,,,,,,,,,,,,,,,,,,,,,,,,,,,,,,377.11111709999386,377.1260313999956,377.1260313999956,377.6260656999657,377.6260656999657,380.125950000016,380.125950000016,380.1100799000124,space,1.0,0.5240831000264734,None,,,,,,,,,,,,,,,,,,,,,,,,nback37,1.0,2023-12-19_09h44.14.666,untitled,2023.2.3,60.15113574608547,2023-12-19 10h31.57.127869 -0500,
11.0,"[-0.64, -0.4]",None,,,,,0.0,36.0,36.0,36.0,,,,,380.125950000016,,,,,,,,,,,,,,,,,,,,,,,,,,,,,,,,,,,,,,,,,,,,,,,380.1108706999803,380.125950000016,380.125950000016,380.6261101000128,380.6261101000128,383.1261715000146,383.1261715000146,383.1102230999968,None,1.0,,,,,,,,,,,,,,,,,,,,,,,,,,nback37,1.0,2023-12-19_09h44.14.666,untitled,2023.2.3,60.15113574608547,2023-12-19 10h31.57.127869 -0500,
2.0,"[0.64, 0.4]",None,,,,,0.0,37.0,37.0,37.0,,,,,383.1261715000146,,,,,,,,,,,,,,,,,,,,,,,,,,,,,,,,,,,,,,,,,,,,,,,383.11092100001406,383.1261715000146,383.1261715000146,383.625953699986,383.625953699986,386.1259960999596,386.1259960999596,386.1100943000056,None,1.0,,,,,,,,,,,,,,,,,,,,,,,,,,nback37,1.0,2023-12-19_09h44.14.666,untitled,2023.2.3,60.15113574608547,2023-12-19 10h31.57.127869 -0500,
6.0,"[-0.3, 0]",None,,,,,0.0,38.0,38.0,38.0,,,,,386.1259960999596,,,,,,,,,,,,,,,,,,,,,,,,,,,,,,,,,,,,,,,,,,,,,,,386.1107581999968,386.1259960999596,386.1259960999596,386.6259580999613,386.6259580999613,389.1261341999634,389.1261341999634,389.1104975999915,None,1.0,,,,,,,,,,,,,,,,,,,,,,,,,,nback37,1.0,2023-12-19_09h44.14.666,untitled,2023.2.3,60.15113574608547,2023-12-19 10h31.57.127869 -0500,
10.0,"[0, -0.2]",None,,,,,0.0,39.0,39.0,39.0,,,,,389.1261341999634,,,,,,,,,,,,,,,,,,,,,,,,,,,,,,,,,,,,,,,,,,,,,,,389.1112378999824,389.1261341999634,389.1261341999634,389.62582929997006,389.62582929997006,392.1258552999934,392.1258552999934,392.10983769997256,None,1.0,,,,,,,,,,,,,,,,,,,,,,,,,,nback37,1.0,2023-12-19_09h44.14.666,untitled,2023.2.3,60.15113574608547,2023-12-19 10h31.57.127869 -0500,
,,,,,,,,,,,,,,,,,,,,,,,,,,,,,,,,,,,,,,,,,,,,,,,,,,,,,,,,,,,,,,,,,,,,,,,,,,392.11018259997945,392.1258552999934,392.1258552999934,424.57709899998736,space,32.43800729996292,None,,,,,,,,,,,,,,,,,nback37,1.0,2023-12-19_09h44.14.666,untitled,2023.2.3,60.15113574608547,2023-12-19 10h31.57.127869 -0500,
,"[0.2, 0.1]",None,,,,,,,,,0.0,0.0,0.0,0.0,425.59191259997897,,,,,,,,,,,,,,,,,,,,,,,,424.5771490999614,424.5920240000123,425.59191259997897,425.5761953999754,,,,,,,,,,,,,,,,,,,,,,,,,,,,,,,,,,,,,,,425.58543229999486,425.59191259997897,425.59191259997897,426.09206679998897,426.09206679998897,428.5918652999681,428.5918652999681,428.57608639996033,None,1.0,,,,,,,nback37,1.0,2023-12-19_09h44.14.666,untitled,2023.2.3,60.15113574608547,2023-12-19 10h31.57.127869 -0500,
,"[0.64, 0.4]",None,,,,,,,,,0.0,1.0,1.0,1.0,428.5918652999681,,,,,,,,,,,,,,,,,,,,,,,,,,,,,,,,,,,,,,,,,,,,,,,,,,,,,,,,,,,,,,,,,,428.5769366999739,428.5918652999681,428.5918652999681,429.0918943000143,429.0918943000143,431.5918372999877,431.5918372999877,431.57632439996814,None,1.0,,,,,,,nback37,1.0,2023-12-19_09h44.14.666,untitled,2023.2.3,60.15113574608547,2023-12-19 10h31.57.127869 -0500,
,"[-0.3, 0]",None,,,,,,,,,0.0,2.0,2.0,2.0,431.5918372999877,,,,,,,,,,,,,,,,,,,,,,,,,,,,,,,,,,,,,,,,,,,,,,,,,,,,,,,,,,,,,,,,,,431.5771298999898,431.5918372999877,431.5918372999877,432.09181690000696,432.09181690000696,434.59170230000746,434.59170230000746,434.576015300001,None,1.0,,,,,,,nback37,1.0,2023-12-19_09h44.14.666,untitled,2023.2.3,60.15113574608547,2023-12-19 10h31.57.127869 -0500,
,"[0.2, -0.1]",None,,,,,,,,,0.0,3.0,3.0,3.0,434.59170230000746,,,,,,,,,,,,,,,,,,,,,,,,,,,,,,,,,,,,,,,,,,,,,,,,,,,,,,,,,,,,,,,,,,434.57677410001634,434.59170230000746,434.59170230000746,435.0918842999963,435.0918842999963,437.5917593999766,437.5917593999766,437.5758436999749,None,1.0,,,,,,,nback37,1.0,2023-12-19_09h44.14.666,untitled,2023.2.3,60.15113574608547,2023-12-19 10h31.57.127869 -0500,
,"[0, 0.2]",None,,,,,,,,,0.0,4.0,4.0,4.0,437.5917593999766,,,,,,,,,,,,,,,,,,,,,,,,,,,,,,,,,,,,,,,,,,,,,,,,,,,,,,,,,,,,,,,,,,437.57651659997646,437.5917593999766,437.5917593999766,438.09173149999697,438.09173149999697,440.5917388999951,440.5917388999951,440.5760569999693,None,1.0,,,,,,,nback37,1.0,2023-12-19_09h44.14.666,untitled,2023.2.3,60.15113574608547,2023-12-19 10h31.57.127869 -0500,
,"[0.2, -0.1]",space,,,,,,,,,0.0,5.0,5.0,5.0,440.5917388999951,,,,,,,,,,,,,,,,,,,,,,,,,,,,,,,,,,,,,,,,,,,,,,,,,,,,,,,,,,,,,,,,,,440.57686099997954,440.5917388999951,440.5917388999951,441.09171010000864,441.09171010000864,443.59165209997445,443.59165209997445,443.57606639998266,space,1.0,2.2705723000108264,None,,,,,nback37,1.0,2023-12-19_09h44.14.666,untitled,2023.2.3,60.15113574608547,2023-12-19 10h31.57.127869 -0500,
,"[0, -0.2]",None,,,,,,,,,0.0,6.0,6.0,6.0,443.59165209997445,,,,,,,,,,,,,,,,,,,,,,,,,,,,,,,,,,,,,,,,,,,,,,,,,,,,,,,,,,,,,,,,,,443.577196499973,443.59165209997445,443.59165209997445,444.0917427999666,444.0917427999666,446.5915000999812,446.5915000999812,446.5756227999809,None,1.0,,,,,,,nback37,1.0,2023-12-19_09h44.14.666,untitled,2023.2.3,60.15113574608547,2023-12-19 10h31.57.127869 -0500,
,"[0.64, -0.4]",None,,,,,,,,,0.0,7.0,7.0,7.0,446.5915000999812,,,,,,,,,,,,,,,,,,,,,,,,,,,,,,,,,,,,,,,,,,,,,,,,,,,,,,,,,,,,,,,,,,446.5762445,446.5915000999812,446.5915000999812,447.0916454999824,447.0916454999824,449.5916632000008,449.5916632000008,449.5759368999861,None,1.0,,,,,,,nback37,1.0,2023-12-19_09h44.14.666,untitled,2023.2.3,60.15113574608547,2023-12-19 10h31.57.127869 -0500,
,"[0.3, 0]",None,,,,,,,,,0.0,8.0,8.0,8.0,449.5916632000008,,,,,,,,,,,,,,,,,,,,,,,,,,,,,,,,,,,,,,,,,,,,,,,,,,,,,,,,,,,,,,,,,,449.5767145999707,449.5916632000008,449.5916632000008,450.0916176000028,450.0916176000028,452.59158720000414,452.59158720000414,452.5758722999599,None,1.0,,,,,,,nback37,1.0,2023-12-19_09h44.14.666,untitled,2023.2.3,60.15113574608547,2023-12-19 10h31.57.127869 -0500,
,"[0.64, -0.4]",space,,,,,,,,,0.0,9.0,9.0,9.0,452.59158720000414,,,,,,,,,,,,,,,,,,,,,,,,,,,,,,,,,,,,,,,,,,,,,,,,,,,,,,,,,,,,,,,,,,452.5766078999732,452.59158720000414,452.59158720000414,453.0914992999751,453.0914992999751,455.5912938999827,455.5912938999827,455.57575730001554,space,1.0,1.1466699999873526,None,,,,,nback37,1.0,2023-12-19_09h44.14.666,untitled,2023.2.3,60.15113574608547,2023-12-19 10h31.57.127869 -0500,
,"[-0.64, 0.4]",None,,,,,,,,,0.0,10.0,10.0,10.0,455.5912938999827,,,,,,,,,,,,,,,,,,,,,,,,,,,,,,,,,,,,,,,,,,,,,,,,,,,,,,,,,,,,,,,,,,455.5767188000027,455.5912938999827,455.5912938999827,456.0915779999923,456.0915779999923,458.5913292999612,458.5913292999612,458.5755776999868,None,1.0,,,,,,,nback37,1.0,2023-12-19_09h44.14.666,untitled,2023.2.3,60.15113574608547,2023-12-19 10h31.57.127869 -0500,
,"[0.2, 0.1]",None,,,,,,,,,0.0,11.0,11.0,11.0,458.5913292999612,,,,,,,,,,,,,,,,,,,,,,,,,,,,,,,,,,,,,,,,,,,,,,,,,,,,,,,,,,,,,,,,,,458.5762511999928,458.5913292999612,458.5913292999612,459.0916321999976,459.0916321999976,461.5913372999639,461.5913372999639,461.5756254000007,None,1.0,,,,,,,nback37,1.0,2023-12-19_09h44.14.666,untitled,2023.2.3,60.15113574608547,2023-12-19 10h31.57.127869 -0500,
,"[0.3, 0]",None,,,,,,,,,0.0,12.0,12.0,12.0,461.5913372999639,,,,,,,,,,,,,,,,,,,,,,,,,,,,,,,,,,,,,,,,,,,,,,,,,,,,,,,,,,,,,,,,,,461.576475400012,461.5913372999639,461.5913372999639,462.0915267000091,462.0915267000091,464.5911696999683,464.5911696999683,464.5755705999909,None,1.0,,,,,,,nback37,1.0,2023-12-19_09h44.14.666,untitled,2023.2.3,60.15113574608547,2023-12-19 10h31.57.127869 -0500,
,"[0.2, 0.1]",space,,,,,,,,,0.0,13.0,13.0,13.0,464.5911696999683,,,,,,,,,,,,,,,,,,,,,,,,,,,,,,,,,,,,,,,,,,,,,,,,,,,,,,,,,,,,,,,,,,464.5762784999679,464.5911696999683,464.5911696999683,465.09132020000834,465.09132020000834,467.5912868999876,467.5912868999876,467.5754058000166,space,1.0,1.9645862999605013,None,,,,,nback37,1.0,2023-12-19_09h44.14.666,untitled,2023.2.3,60.15113574608547,2023-12-19 10h31.57.127869 -0500,
,"[-0.3, 0]",None,,,,,,,,,0.0,14.0,14.0,14.0,467.5912868999876,,,,,,,,,,,,,,,,,,,,,,,,,,,,,,,,,,,,,,,,,,,,,,,,,,,,,,,,,,,,,,,,,,467.57632180000655,467.5912868999876,467.5912868999876,468.0912077999674,468.0912077999674,470.5910654999898,470.5910654999898,470.57559349999065,None,1.0,,,,,,,nback37,1.0,2023-12-19_09h44.14.666,untitled,2023.2.3,60.15113574608547,2023-12-19 10h31.57.127869 -0500,
,"[0, 0.2]",None,,,,,,,,,0.0,15.0,15.0,15.0,470.5910654999898,,,,,,,,,,,,,,,,,,,,,,,,,,,,,,,,,,,,,,,,,,,,,,,,,,,,,,,,,,,,,,,,,,470.5763556999737,470.5910654999898,470.5910654999898,471.0913833999657,471.0913833999657,473.5912283000071,473.5912283000071,473.5752398999757,None,1.0,,,,,,,nback37,1.0,2023-12-19_09h44.14.666,untitled,2023.2.3,60.15113574608547,2023-12-19 10h31.57.127869 -0500,
,"[-0.3, 0]",space,,,,,,,,,0.0,16.0,16.0,16.0,473.5912283000071,,,,,,,,,,,,,,,,,,,,,,,,,,,,,,,,,,,,,,,,,,,,,,,,,,,,,,,,,,,,,,,,,,473.5758951999596,473.5912283000071,473.5912283000071,474.0911822000053,474.0911822000053,476.5910627999692,476.5910627999692,476.57547370000975,space,1.0,1.0669500000076368,None,,,,,nback37,1.0,2023-12-19_09h44.14.666,untitled,2023.2.3,60.15113574608547,2023-12-19 10h31.57.127869 -0500,
,"[-0.64, -0.4]",None,,,,,,,,,0.0,17.0,17.0,17.0,476.5910627999692,,,,,,,,,,,,,,,,,,,,,,,,,,,,,,,,,,,,,,,,,,,,,,,,,,,,,,,,,,,,,,,,,,476.5765068999608,476.5910627999692,476.5910627999692,477.09105270000873,477.09105270000873,479.5910603000084,479.5910603000084,479.5751032999833,None,1.0,,,,,,,nback37,1.0,2023-12-19_09h44.14.666,untitled,2023.2.3,60.15113574608547,2023-12-19 10h31.57.127869 -0500,
,"[-0.2, -0.1]",None,,,,,,,,,0.0,18.0,18.0,18.0,479.5910603000084,,,,,,,,,,,,,,,,,,,,,,,,,,,,,,,,,,,,,,,,,,,,,,,,,,,,,,,,,,,,,,,,,,479.57566949998727,479.5910603000084,479.5910603000084,480.091002799978,480.091002799978,482.5908102999674,482.5908102999674,482.57487660000334,space,0.0,1.4851134000346065,None,,,,,nback37,1.0,2023-12-19_09h44.14.666,untitled,2023.2.3,60.15113574608547,2023-12-19 10h31.57.127869 -0500,
,"[0.2, -0.1]",None,,,,,,,,,0.0,19.0,19.0,19.0,482.5908102999674,,,,,,,,,,,,,,,,,,,,,,,,,,,,,,,,,,,,,,,,,,,,,,,,,,,,,,,,,,,,,,,,,,482.5754184999969,482.5908102999674,482.5908102999674,483.0908487999696,483.0908487999696,485.59066689998144,485.59066689998144,485.5745255000074,None,1.0,,,,,,,nback37,1.0,2023-12-19_09h44.14.666,untitled,2023.2.3,60.15113574608547,2023-12-19 10h31.57.127869 -0500,
,"[0.2, -0.1]",None,,,,,,,,,0.0,20.0,20.0,20.0,485.59066689998144,,,,,,,,,,,,,,,,,,,,,,,,,,,,,,,,,,,,,,,,,,,,,,,,,,,,,,,,,,,,,,,,,,485.5748700000113,485.59066689998144,485.59066689998144,486.0907603999949,486.0907603999949,488.590798899997,488.590798899997,488.5746399000054,None,1.0,,,,,,,nback37,1.0,2023-12-19_09h44.14.666,untitled,2023.2.3,60.15113574608547,2023-12-19 10h31.57.127869 -0500,
,"[-0.64, 0.4]",None,,,,,,,,,0.0,21.0,21.0,21.0,488.590798899997,,,,,,,,,,,,,,,,,,,,,,,,,,,,,,,,,,,,,,,,,,,,,,,,,,,,,,,,,,,,,,,,,,488.5749497999786,488.590798899997,488.590798899997,489.0911093999748,489.0911093999748,491.5907103999634,491.5907103999634,491.5749275999842,None,1.0,,,,,,,nback37,1.0,2023-12-19_09h44.14.666,untitled,2023.2.3,60.15113574608547,2023-12-19 10h31.57.127869 -0500,
,"[0, 0.2]",None,,,,,,,,,0.0,22.0,22.0,22.0,491.5907103999634,,,,,,,,,,,,,,,,,,,,,,,,,,,,,,,,,,,,,,,,,,,,,,,,,,,,,,,,,,,,,,,,,,491.57554509997135,491.5907103999634,491.5907103999634,492.0907886999776,492.0907886999776,494.59088550001616,494.59088550001616,494.5753035999951,None,1.0,,,,,,,nback37,1.0,2023-12-19_09h44.14.666,untitled,2023.2.3,60.15113574608547,2023-12-19 10h31.57.127869 -0500,
,"[0.64, -0.4]",None,,,,,,,,,0.0,23.0,23.0,23.0,494.59088550001616,,,,,,,,,,,,,,,,,,,,,,,,,,,,,,,,,,,,,,,,,,,,,,,,,,,,,,,,,,,,,,,,,,494.57617559999926,494.59088550001616,494.59088550001616,495.09059390000766,495.09059390000766,497.59076310001547,497.59076310001547,497.5747148999944,None,1.0,,,,,,,nback37,1.0,2023-12-19_09h44.14.666,untitled,2023.2.3,60.15113574608547,2023-12-19 10h31.57.127869 -0500,
,"[0, 0.2]",space,,,,,,,,,0.0,24.0,24.0,24.0,497.59076310001547,,,,,,,,,,,,,,,,,,,,,,,,,,,,,,,,,,,,,,,,,,,,,,,,,,,,,,,,,,,,,,,,,,497.5753850999754,497.59076310001547,497.59076310001547,498.09089849999873,498.09089849999873,500.5908737999853,500.5908737999853,500.57501369999954,space,1.0,1.355079700006172,None,,,,,nback37,1.0,2023-12-19_09h44.14.666,untitled,2023.2.3,60.15113574608547,2023-12-19 10h31.57.127869 -0500,
,"[-0.2, 0.1]",None,,,,,,,,,0.0,25.0,25.0,25.0,500.5908737999853,,,,,,,,,,,,,,,,,,,,,,,,,,,,,,,,,,,,,,,,,,,,,,,,,,,,,,,,,,,,,,,,,,500.57588839996606,500.5908737999853,500.5908737999853,501.0907838999992,501.0907838999992,503.5906930000056,503.5906930000056,503.57486799999606,None,1.0,,,,,,,nback37,1.0,2023-12-19_09h44.14.666,untitled,2023.2.3,60.15113574608547,2023-12-19 10h31.57.127869 -0500,
,"[0.3, 0]",None,,,,,,,,,0.0,26.0,26.0,26.0,503.5906930000056,,,,,,,,,,,,,,,,,,,,,,,,,,,,,,,,,,,,,,,,,,,,,,,,,,,,,,,,,,,,,,,,,,503.57555780000985,503.5906930000056,503.5906930000056,504.0906469000038,504.0906469000038,506.5906416999642,506.5906416999642,506.5745764999883,None,1.0,,,,,,,nback37,1.0,2023-12-19_09h44.14.666,untitled,2023.2.3,60.15113574608547,2023-12-19 10h31.57.127869 -0500,
,"[-0.2, 0.1]",space,,,,,,,,,0.0,27.0,27.0,27.0,506.5906416999642,,,,,,,,,,,,,,,,,,,,,,,,,,,,,,,,,,,,,,,,,,,,,,,,,,,,,,,,,,,,,,,,,,506.5751320999698,506.5906416999642,506.5906416999642,507.0905285999761,507.0905285999761,509.59057040000334,509.59057040000334,509.5748337999685,space,1.0,1.132627599989064,None,,,,,nback37,1.0,2023-12-19_09h44.14.666,untitled,2023.2.3,60.15113574608547,2023-12-19 10h31.57.127869 -0500,
,"[-0.2, 0.1]",None,,,,,,,,,0.0,28.0,28.0,28.0,509.59057040000334,,,,,,,,,,,,,,,,,,,,,,,,,,,,,,,,,,,,,,,,,,,,,,,,,,,,,,,,,,,,,,,,,,509.5757883999613,509.59057040000334,509.59057040000334,510.0903951000073,510.0903951000073,512.5906578999711,512.5906578999711,512.5748434999841,None,1.0,,,,,,,nback37,1.0,2023-12-19_09h44.14.666,untitled,2023.2.3,60.15113574608547,2023-12-19 10h31.57.127869 -0500,
,"[0.2, 0.1]",None,,,,,,,,,0.0,29.0,29.0,29.0,512.5906578999711,,,,,,,,,,,,,,,,,,,,,,,,,,,,,,,,,,,,,,,,,,,,,,,,,,,,,,,,,,,,,,,,,,512.5756227999809,512.5906578999711,512.5906578999711,513.0905507999705,513.0905507999705,515.5905909999856,515.5905909999856,515.5746600999846,None,1.0,,,,,,,nback37,1.0,2023-12-19_09h44.14.666,untitled,2023.2.3,60.15113574608547,2023-12-19 10h31.57.127869 -0500,
,"[-0.64, -0.4]",None,,,,,,,,,0.0,30.0,30.0,30.0,515.5905909999856,,,,,,,,,,,,,,,,,,,,,,,,,,,,,,,,,,,,,,,,,,,,,,,,,,,,,,,,,,,,,,,,,,515.5753615999711,515.5905909999856,515.5905909999856,516.090426300012,516.090426300012,518.59056099999,518.59056099999,518.5747101000161,None,1.0,,,,,,,nback37,1.0,2023-12-19_09h44.14.666,untitled,2023.2.3,60.15113574608547,2023-12-19 10h31.57.127869 -0500,
,"[0, -0.2]",None,,,,,,,,,0.0,31.0,31.0,31.0,518.59056099999,,,,,,,,,,,,,,,,,,,,,,,,,,,,,,,,,,,,,,,,,,,,,,,,,,,,,,,,,,,,,,,,,,518.5755795000005,518.59056099999,518.59056099999,519.0902938999934,519.0902938999934,521.5903077999828,521.5903077999828,521.5743042000104,None,1.0,,,,,,,nback37,1.0,2023-12-19_09h44.14.666,untitled,2023.2.3,60.15113574608547,2023-12-19 10h31.57.127869 -0500,
,"[-0.64, -0.4]",space,,,,,,,,,0.0,32.0,32.0,32.0,521.5903077999828,,,,,,,,,,,,,,,,,,,,,,,,,,,,,,,,,,,,,,,,,,,,,,,,,,,,,,,,,,,,,,,,,,521.5749243999599,521.5903077999828,521.5903077999828,522.0904494000133,522.0904494000133,524.5902687999769,524.5902687999769,524.5744807000156,space,1.0,0.7417690000147559,None,,,,,nback37,1.0,2023-12-19_09h44.14.666,untitled,2023.2.3,60.15113574608547,2023-12-19 10h31.57.127869 -0500,
,"[0.64, 0.4]",None,,,,,,,,,0.0,33.0,33.0,33.0,524.5902687999769,,,,,,,,,,,,,,,,,,,,,,,,,,,,,,,,,,,,,,,,,,,,,,,,,,,,,,,,,,,,,,,,,,524.5753659000038,524.5902687999769,524.5902687999769,525.0902335999999,525.0902335999999,527.5903713000007,527.5903713000007,527.5744548999937,None,1.0,,,,,,,nback37,1.0,2023-12-19_09h44.14.666,untitled,2023.2.3,60.15113574608547,2023-12-19 10h31.57.127869 -0500,
,"[-0.3, 0]",None,,,,,,,,,0.0,34.0,34.0,34.0,527.5903713000007,,,,,,,,,,,,,,,,,,,,,,,,,,,,,,,,,,,,,,,,,,,,,,,,,,,,,,,,,,,,,,,,,,527.5753183999914,527.5903713000007,527.5903713000007,528.0901756999665,528.0901756999665,530.5901183999958,530.5901183999958,530.5742439999594,None,1.0,,,,,,,nback37,1.0,2023-12-19_09h44.14.666,untitled,2023.2.3,60.15113574608547,2023-12-19 10h31.57.127869 -0500,
,"[0.3, 0]",None,,,,,,,,,0.0,35.0,35.0,35.0,530.5901183999958,,,,,,,,,,,,,,,,,,,,,,,,,,,,,,,,,,,,,,,,,,,,,,,,,,,,,,,,,,,,,,,,,,530.5749745999929,530.5901183999958,530.5901183999958,531.090197100013,531.090197100013,533.5902693999815,533.5902693999815,533.5743954000063,None,1.0,,,,,,,nback37,1.0,2023-12-19_09h44.14.666,untitled,2023.2.3,60.15113574608547,2023-12-19 10h31.57.127869 -0500,
,"[-0.3, 0]",space,,,,,,,,,0.0,36.0,36.0,36.0,533.5902693999815,,,,,,,,,,,,,,,,,,,,,,,,,,,,,,,,,,,,,,,,,,,,,,,,,,,,,,,,,,,,,,,,,,533.5751886999933,533.5902693999815,533.5902693999815,534.0901002999744,534.0901002999744,536.5901177999913,536.5901177999913,536.5744126999634,space,1.0,0.6915685000130907,None,,,,,nback37,1.0,2023-12-19_09h44.14.666,untitled,2023.2.3,60.15113574608547,2023-12-19 10h31.57.127869 -0500,
,"[0, -0.2]",None,,,,,,,,,0.0,37.0,37.0,37.0,536.5901177999913,,,,,,,,,,,,,,,,,,,,,,,,,,,,,,,,,,,,,,,,,,,,,,,,,,,,,,,,,,,,,,,,,,536.5753551999805,536.5901177999913,536.5901177999913,537.0901585000101,537.0901585000101,539.5899939999799,539.5899939999799,539.5741309999721,None,1.0,,,,,,,nback37,1.0,2023-12-19_09h44.14.666,untitled,2023.2.3,60.15113574608547,2023-12-19 10h31.57.127869 -0500,
,"[0.3, 0]",None,,,,,,,,,0.0,38.0,38.0,38.0,539.5899939999799,,,,,,,,,,,,,,,,,,,,,,,,,,,,,,,,,,,,,,,,,,,,,,,,,,,,,,,,,,,,,,,,,,539.5748867999646,539.5899939999799,539.5899939999799,540.0901492999983,540.0901492999983,542.5899626999744,542.5899626999744,542.5738541999599,space,0.0,0.6399172000237741,None,,,,,nback37,1.0,2023-12-19_09h44.14.666,untitled,2023.2.3,60.15113574608547,2023-12-19 10h31.57.127869 -0500,
,"[0.2, 0.1]",None,,,,,,,,,0.0,39.0,39.0,39.0,542.5899626999744,,,,,,,,,,,,,,,,,,,,,,,,,,,,,,,,,,,,,,,,,,,,,,,,,,,,,,,,,,,,,,,,,,542.5746285999776,542.5899626999744,542.5899626999744,543.089688499982,543.089688499982,545.589863399975,545.589863399975,545.5737765000085,None,1.0,,,,,,,nback37,1.0,2023-12-19_09h44.14.666,untitled,2023.2.3,60.15113574608547,2023-12-19 10h31.57.127869 -0500,
,,,,,,,,,,,,,,,,,,,,,,,,,,,,,,,,,,,,,,,,,,,,,,,,,,,,,,,,,,,,,,,,,,,,,,,,,,,,,,,,,,,,,,,,,,,,,545.5742111,545.589863399975,548.5901164999814,548.5739930999698,,,,,,,,
