square,location,corrAns,trials_0.thisRepN,trials_0.thisTrialN,trials_0.thisN,trials_0.thisIndex,trials_1.thisRepN,trials_1.thisTrialN,trials_1.thisN,trials_1.thisIndex,trials_2.thisRepN,trials_2.thisTrialN,trials_2.thisN,trials_2.thisIndex,thisRow.t,notes,Instructions.started,instructions.started,key_resp.started,inst_sq11.started,Instructions.stopped,key_resp.keys,key_resp.rt,key_resp.duration,All.started,sq_1.started,sq_2.started,sq_3.started,sq_4.started,sq_5.started,sq_6.started,sq_7.started,sq_8.started,sq_9.started,sq_10.started,sq_11.started,sq_12.started,All.stopped,Fixation.started,fixation_3.started,fixation_3.stopped,Fixation.stopped,N_back_0_Trial.started,target_square_0.started,response_0.started,fixation_0.started,target_square_0.stopped,fixation_0.stopped,N_back_0_Trial.stopped,response_0.keys,response_0.corr,response_0.rt,response_0.duration,Instructions_1.started,instructions_1.started,key_resp_1.started,Instructions_1.stopped,key_resp_1.keys,key_resp_1.rt,key_resp_1.duration,N_back_1_Trial.started,target_square_1.started,response_1.started,target_square_1.stopped,fixation_1.started,fixation_1.stopped,response_1.stopped,N_back_1_Trial.stopped,response_1.keys,response_1.corr,response_1.rt,response_1.duration,Instructions_2.started,instructions_2.started,key_resp_2.started,Instructions_2.stopped,key_resp_2.keys,key_resp_2.rt,key_resp_2.duration,N_back_2_trials.started,target_square_2.started,response_2.started,fixation_2.started,target_square_2.stopped,fixation_2.stopped,N_back_2_trials.stopped,response_2.keys,response_2.corr,response_2.rt,response_2.duration,End.started,thank_you.started,End.stopped,participant,session,date,expName,psychopyVersion,frameRate,expStart,Unnamed: 101
,,,,,,,,,,,,,,,,,0.0013868999958503,0.0037580000062007,0.0037580000062007,0.0037580000062007,1476.9405346999993,space,1476.929514699994,None,,,,,,,,,,,,,,,,,,,,,,,,,,,,,,,,,,,,,,,,,,,,,,,,,,,,,,,,,,,,,,,,,,,,,,nabck49,1.0,2024-01-12_09h46.55.297,untitled,2023.2.3,59.927607450110514,2024-01-12 10h17.25.995339 -0500,
6.0,"[-0.3, 0]",None,0.0,0.0,0.0,0.0,,,,,,,,,1478.958413299988,,,,,,,,,,1476.940577500005,1476.9556028999796,1476.9556028999796,1476.9556028999796,1476.9556028999796,1476.9556028999796,1476.9556028999796,1476.9556028999796,1476.9556028999796,1476.9556028999796,1476.9556028999796,1476.9556028999796,1476.9556028999796,1477.939215899998,1477.9392323999782,1477.9556131999998,1478.958413299988,1478.9397798999853,1478.956495899998,1478.958413299988,1478.958413299988,1479.4389621999871,1479.4724806000013,1481.938985899993,1481.955807499995,None,1.0,,,,,,,,,,,,,,,,,,,,,,,,,,,,,,,,,,,,,,,,,,,nabck49,1.0,2024-01-12_09h46.55.297,untitled,2023.2.3,59.927607450110514,2024-01-12 10h17.25.995339 -0500,
10.0,"[0, -0.2]",None,0.0,1.0,1.0,1.0,,,,,,,,,1481.972306199983,,,,,,,,,,,,,,,,,,,,,,,,,,,,1481.9568463999894,1481.972306199983,1481.972306199983,1482.4389093999926,1482.472258499998,1484.9389968999894,1484.955822799995,None,1.0,,,,,,,,,,,,,,,,,,,,,,,,,,,,,,,,,,,,,,,,,,,nabck49,1.0,2024-01-12_09h46.55.297,untitled,2023.2.3,59.927607450110514,2024-01-12 10h17.25.995339 -0500,
11.0,"[-0.64, -0.4]",space,0.0,2.0,2.0,2.0,,,,,,,,,1484.9720687999798,,,,,,,,,,,,,,,,,,,,,,,,,,,,1484.9566290999935,1484.9720687999798,1484.9720687999798,1485.4388824999917,1485.472143299994,1487.9387903999886,1487.9557952999894,space,1.0,0.3683420000015758,None,,,,,,,,,,,,,,,,,,,,,,,,,,,,,,,,,,,,,,,,,nabck49,1.0,2024-01-12_09h46.55.297,untitled,2023.2.3,59.927607450110514,2024-01-12 10h17.25.995339 -0500,
12.0,"[0.64, -0.4]",None,0.0,3.0,3.0,3.0,,,,,,,,,1487.9723076999944,,,,,,,,,,,,,,,,,,,,,,,,,,,,1487.9569970000011,1487.9723076999944,1487.9723076999944,1488.4389983,1488.472290799982,1490.938732599985,1490.955599399982,None,1.0,,,,,,,,,,,,,,,,,,,,,,,,,,,,,,,,,,,,,,,,,,,nabck49,1.0,2024-01-12_09h46.55.297,untitled,2023.2.3,59.927607450110514,2024-01-12 10h17.25.995339 -0500,
1.0,"[-0.64, 0.4]",None,0.0,4.0,4.0,4.0,,,,,,,,,1490.972012199985,,,,,,,,,,,,,,,,,,,,,,,,,,,,1490.956364999991,1490.972012199985,1490.972012199985,1491.4384895999974,1491.4719518999918,1493.9388842000044,1493.9556201999949,None,1.0,,,,,,,,,,,,,,,,,,,,,,,,,,,,,,,,,,,,,,,,,,,nabck49,1.0,2024-01-12_09h46.55.297,untitled,2023.2.3,59.927607450110514,2024-01-12 10h17.25.995339 -0500,
1.0,"[-0.64, 0.4]",None,0.0,5.0,5.0,5.0,,,,,,,,,1493.9720830000006,,,,,,,,,,,,,,,,,,,,,,,,,,,,1493.9565355999805,1493.9720830000006,1493.9720830000006,1494.4389075999788,1494.4721132999985,1496.938694499986,1496.9554806999804,None,1.0,,,,,,,,,,,,,,,,,,,,,,,,,,,,,,,,,,,,,,,,,,,nabck49,1.0,2024-01-12_09h46.55.297,untitled,2023.2.3,59.927607450110514,2024-01-12 10h17.25.995339 -0500,
4.0,"[-0.2, 0.1]",None,0.0,6.0,6.0,6.0,,,,,,,,,1496.97190829998,,,,,,,,,,,,,,,,,,,,,,,,,,,,1496.9561346999835,1496.97190829998,1496.97190829998,1497.438625299983,1497.4719685000018,1499.9386011000024,1499.9553771000064,None,1.0,,,,,,,,,,,,,,,,,,,,,,,,,,,,,,,,,,,,,,,,,,,nabck49,1.0,2024-01-12_09h46.55.297,untitled,2023.2.3,59.927607450110514,2024-01-12 10h17.25.995339 -0500,
5.0,"[0.2, 0.1]",None,0.0,7.0,7.0,7.0,,,,,,,,,1499.972085299989,,,,,,,,,,,,,,,,,,,,,,,,,,,,1499.9562043999904,1499.972085299989,1499.972085299989,1500.438633999991,1500.472032199992,1502.938769899978,1502.955279999995,None,1.0,,,,,,,,,,,,,,,,,,,,,,,,,,,,,,,,,,,,,,,,,,,nabck49,1.0,2024-01-12_09h46.55.297,untitled,2023.2.3,59.927607450110514,2024-01-12 10h17.25.995339 -0500,
11.0,"[-0.64, -0.4]",space,0.0,8.0,8.0,8.0,,,,,,,,,1502.971871899994,,,,,,,,,,,,,,,,,,,,,,,,,,,,1502.9560253999953,1502.971871899994,1502.971871899994,1503.438621599984,1503.4720678000012,1505.9385952999874,1505.9553746999882,space,1.0,0.3146842000132892,None,,,,,,,,,,,,,,,,,,,,,,,,,,,,,,,,,,,,,,,,,nabck49,1.0,2024-01-12_09h46.55.297,untitled,2023.2.3,59.927607450110514,2024-01-12 10h17.25.995339 -0500,
9.0,"[0.2, -0.1]",None,0.0,9.0,9.0,9.0,,,,,,,,,1505.9720038999803,,,,,,,,,,,,,,,,,,,,,,,,,,,,1505.9561790000007,1505.9720038999803,1505.9720038999803,1506.4385554000037,1506.471849900001,1508.938413900003,1508.9553279999818,None,1.0,,,,,,,,,,,,,,,,,,,,,,,,,,,,,,,,,,,,,,,,,,,nabck49,1.0,2024-01-12_09h46.55.297,untitled,2023.2.3,59.927607450110514,2024-01-12 10h17.25.995339 -0500,
8.0,"[-0.2, -0.1]",None,0.0,10.0,10.0,10.0,,,,,,,,,1508.97175289999,,,,,,,,,,,,,,,,,,,,,,,,,,,,1508.9560569000023,1508.97175289999,1508.97175289999,1509.4384720999806,1509.4717322999786,1511.9384811999917,1511.9554056999914,None,1.0,,,,,,,,,,,,,,,,,,,,,,,,,,,,,,,,,,,,,,,,,,,nabck49,1.0,2024-01-12_09h46.55.297,untitled,2023.2.3,59.927607450110514,2024-01-12 10h17.25.995339 -0500,
9.0,"[0.2, -0.1]",None,0.0,11.0,11.0,11.0,,,,,,,,,1511.9717489999894,,,,,,,,,,,,,,,,,,,,,,,,,,,,1511.956239799998,1511.9717489999894,1511.9717489999894,1512.4385124999972,1512.4717448999872,1514.9384861,1514.9551454999892,None,1.0,,,,,,,,,,,,,,,,,,,,,,,,,,,,,,,,,,,,,,,,,,,nabck49,1.0,2024-01-12_09h46.55.297,untitled,2023.2.3,59.927607450110514,2024-01-12 10h17.25.995339 -0500,
6.0,"[-0.3, 0]",None,0.0,12.0,12.0,12.0,,,,,,,,,1514.9714529000048,,,,,,,,,,,,,,,,,,,,,,,,,,,,1514.9559796999963,1514.9714529000048,1514.9714529000048,1515.438404799992,1515.4718362999847,1517.9384104000055,1517.9552087000047,None,1.0,,,,,,,,,,,,,,,,,,,,,,,,,,,,,,,,,,,,,,,,,,,nabck49,1.0,2024-01-12_09h46.55.297,untitled,2023.2.3,59.927607450110514,2024-01-12 10h17.25.995339 -0500,
9.0,"[0.2, -0.1]",None,0.0,13.0,13.0,13.0,,,,,,,,,1517.9715896999987,,,,,,,,,,,,,,,,,,,,,,,,,,,,1517.956054499984,1517.9715896999987,1517.9715896999987,1518.4384064000042,1518.4715735999926,1520.9383879999805,1520.955088399991,None,1.0,,,,,,,,,,,,,,,,,,,,,,,,,,,,,,,,,,,,,,,,,,,nabck49,1.0,2024-01-12_09h46.55.297,untitled,2023.2.3,59.927607450110514,2024-01-12 10h17.25.995339 -0500,
7.0,"[0.3, 0]",None,0.0,14.0,14.0,14.0,,,,,,,,,1520.9715160999913,,,,,,,,,,,,,,,,,,,,,,,,,,,,1520.9558941999858,1520.9715160999913,1520.9715160999913,1521.4549214,1521.4715670000005,1523.9548633999948,1523.9550455999852,None,1.0,,,,,,,,,,,,,,,,,,,,,,,,,,,,,,,,,,,,,,,,,,,nabck49,1.0,2024-01-12_09h46.55.297,untitled,2023.2.3,59.927607450110514,2024-01-12 10h17.25.995339 -0500,
2.0,"[0.64, 0.4]",None,0.0,15.0,15.0,15.0,,,,,,,,,1523.971413799998,,,,,,,,,,,,,,,,,,,,,,,,,,,,1523.955762700003,1523.971413799998,1523.971413799998,1524.4381789999898,1524.471519899991,1526.9383001999813,1526.9551212999795,None,1.0,,,,,,,,,,,,,,,,,,,,,,,,,,,,,,,,,,,,,,,,,,,nabck49,1.0,2024-01-12_09h46.55.297,untitled,2023.2.3,59.927607450110514,2024-01-12 10h17.25.995339 -0500,
2.0,"[0.64, 0.4]",None,0.0,16.0,16.0,16.0,,,,,,,,,1526.9715002999874,,,,,,,,,,,,,,,,,,,,,,,,,,,,1526.9559313000063,1526.9715002999874,1526.9715002999874,1527.438131599978,1527.4715886999911,1529.938100600004,1529.9550702999986,None,1.0,,,,,,,,,,,,,,,,,,,,,,,,,,,,,,,,,,,,,,,,,,,nabck49,1.0,2024-01-12_09h46.55.297,untitled,2023.2.3,59.927607450110514,2024-01-12 10h17.25.995339 -0500,
11.0,"[-0.64, -0.4]",space,0.0,17.0,17.0,17.0,,,,,,,,,1529.9714707999956,,,,,,,,,,,,,,,,,,,,,,,,,,,,1529.9559627999845,1529.9714707999956,1529.9714707999956,1530.4549265999813,1530.4714837000065,1532.954803700006,1532.9550233999908,space,1.0,0.3545053999987431,None,,,,,,,,,,,,,,,,,,,,,,,,,,,,,,,,,,,,,,,,,nabck49,1.0,2024-01-12_09h46.55.297,untitled,2023.2.3,59.927607450110514,2024-01-12 10h17.25.995339 -0500,
11.0,"[-0.64, -0.4]",space,0.0,18.0,18.0,18.0,,,,,,,,,1532.9714536999818,,,,,,,,,,,,,,,,,,,,,,,,,,,,1532.9559561999922,1532.9714536999818,1532.9714536999818,1533.4547775999818,1533.4714161999873,1535.954771299992,1535.9549848999886,space,1.0,0.5194393999991007,None,,,,,,,,,,,,,,,,,,,,,,,,,,,,,,,,,,,,,,,,,nabck49,1.0,2024-01-12_09h46.55.297,untitled,2023.2.3,59.927607450110514,2024-01-12 10h17.25.995339 -0500,
7.0,"[0.3, 0]",None,0.0,19.0,19.0,19.0,,,,,,,,,1535.9712758999958,,,,,,,,,,,,,,,,,,,,,,,,,,,,1535.955845199991,1535.9712758999958,1535.9712758999958,1536.454752699996,1536.471339499985,1538.9546491999936,1538.9548533000052,None,1.0,,,,,,,,,,,,,,,,,,,,,,,,,,,,,,,,,,,,,,,,,,,nabck49,1.0,2024-01-12_09h46.55.297,untitled,2023.2.3,59.927607450110514,2024-01-12 10h17.25.995339 -0500,
3.0,"[0, 0.2]",None,0.0,20.0,20.0,20.0,,,,,,,,,1538.971218199993,,,,,,,,,,,,,,,,,,,,,,,,,,,,1538.9556165999966,1538.971218199993,1538.971218199993,1539.4547338999982,1539.4712789999903,1541.954551200004,1541.9547437999863,None,1.0,,,,,,,,,,,,,,,,,,,,,,,,,,,,,,,,,,,,,,,,,,,nabck49,1.0,2024-01-12_09h46.55.297,untitled,2023.2.3,59.927607450110514,2024-01-12 10h17.25.995339 -0500,
10.0,"[0, -0.2]",None,0.0,21.0,21.0,21.0,,,,,,,,,1541.971161399997,,,,,,,,,,,,,,,,,,,,,,,,,,,,1541.9554272999812,1541.971161399997,1541.971161399997,1542.4547428999797,1542.4713287999912,1544.954558700003,1544.95478,None,1.0,,,,,,,,,,,,,,,,,,,,,,,,,,,,,,,,,,,,,,,,,,,nabck49,1.0,2024-01-12_09h46.55.297,untitled,2023.2.3,59.927607450110514,2024-01-12 10h17.25.995339 -0500,
1.0,"[-0.64, 0.4]",None,0.0,22.0,22.0,22.0,,,,,,,,,1544.971265100001,,,,,,,,,,,,,,,,,,,,,,,,,,,,1544.9556327000028,1544.971265100001,1544.971265100001,1545.4545500999957,1545.4712290999887,1547.9543471999932,1547.954537799989,None,1.0,,,,,,,,,,,,,,,,,,,,,,,,,,,,,,,,,,,,,,,,,,,nabck49,1.0,2024-01-12_09h46.55.297,untitled,2023.2.3,59.927607450110514,2024-01-12 10h17.25.995339 -0500,
2.0,"[0.64, 0.4]",None,0.0,23.0,23.0,23.0,,,,,,,,,1547.971148199984,,,,,,,,,,,,,,,,,,,,,,,,,,,,1547.9552150999953,1547.971148199984,1547.971148199984,1548.454441399983,1548.4711560999858,1550.9543664999946,1550.9545821000063,None,1.0,,,,,,,,,,,,,,,,,,,,,,,,,,,,,,,,,,,,,,,,,,,nabck49,1.0,2024-01-12_09h46.55.297,untitled,2023.2.3,59.927607450110514,2024-01-12 10h17.25.995339 -0500,
6.0,"[-0.3, 0]",None,0.0,24.0,24.0,24.0,,,,,,,,,1550.971208000003,,,,,,,,,,,,,,,,,,,,,,,,,,,,1550.9554027999984,1550.971208000003,1550.971208000003,1551.454473299993,1551.4711901999835,1553.954430599988,1553.954644499987,None,1.0,,,,,,,,,,,,,,,,,,,,,,,,,,,,,,,,,,,,,,,,,,,nabck49,1.0,2024-01-12_09h46.55.297,untitled,2023.2.3,59.927607450110514,2024-01-12 10h17.25.995339 -0500,
3.0,"[0, 0.2]",None,0.0,25.0,25.0,25.0,,,,,,,,,1553.971170799981,,,,,,,,,,,,,,,,,,,,,,,,,,,,1553.955500799988,1553.971170799981,1553.971170799981,1554.4542938999948,1554.4710927999986,1556.954322399979,1556.954502699984,None,1.0,,,,,,,,,,,,,,,,,,,,,,,,,,,,,,,,,,,,,,,,,,,nabck49,1.0,2024-01-12_09h46.55.297,untitled,2023.2.3,59.927607450110514,2024-01-12 10h17.25.995339 -0500,
11.0,"[-0.64, -0.4]",space,0.0,26.0,26.0,26.0,,,,,,,,,1556.9710043999949,,,,,,,,,,,,,,,,,,,,,,,,,,,,1556.955199499993,1556.9710043999949,1556.9710043999949,1557.4539192999946,1557.4706887999782,1559.954157,1559.9543370000029,space,1.0,0.3346085000084713,None,,,,,,,,,,,,,,,,,,,,,,,,,,,,,,,,,,,,,,,,,nabck49,1.0,2024-01-12_09h46.55.297,untitled,2023.2.3,59.927607450110514,2024-01-12 10h17.25.995339 -0500,
1.0,"[-0.64, 0.4]",None,0.0,27.0,27.0,27.0,,,,,,,,,1559.971009300003,,,,,,,,,,,,,,,,,,,,,,,,,,,,1559.9551822999783,1559.971009300003,1559.971009300003,1560.4543767999858,1560.4709742999985,1562.954153700004,1562.9543297000057,None,1.0,,,,,,,,,,,,,,,,,,,,,,,,,,,,,,,,,,,,,,,,,,,nabck49,1.0,2024-01-12_09h46.55.297,untitled,2023.2.3,59.927607450110514,2024-01-12 10h17.25.995339 -0500,
3.0,"[0, 0.2]",None,0.0,28.0,28.0,28.0,,,,,,,,,1562.9708212999976,,,,,,,,,,,,,,,,,,,,,,,,,,,,1562.9550214000046,1562.9708212999976,1562.9708212999976,1563.454336499999,1563.4710520999795,1565.9541070999985,1565.9543204999936,None,1.0,,,,,,,,,,,,,,,,,,,,,,,,,,,,,,,,,,,,,,,,,,,nabck49,1.0,2024-01-12_09h46.55.297,untitled,2023.2.3,59.927607450110514,2024-01-12 10h17.25.995339 -0500,
9.0,"[0.2, -0.1]",None,0.0,29.0,29.0,29.0,,,,,,,,,1565.971017999982,,,,,,,,,,,,,,,,,,,,,,,,,,,,1565.9551431,1565.971017999982,1565.971017999982,1566.4540723999962,1566.470856,1568.954192299978,1568.9543943000026,None,1.0,,,,,,,,,,,,,,,,,,,,,,,,,,,,,,,,,,,,,,,,,,,nabck49,1.0,2024-01-12_09h46.55.297,untitled,2023.2.3,59.927607450110514,2024-01-12 10h17.25.995339 -0500,
8.0,"[-0.2, -0.1]",None,0.0,30.0,30.0,30.0,,,,,,,,,1568.9708431999898,,,,,,,,,,,,,,,,,,,,,,,,,,,,1568.9551592999778,1568.9708431999898,1568.9708431999898,1569.454118900001,1569.4707331999962,1571.9541344000029,1571.9543427999888,None,1.0,,,,,,,,,,,,,,,,,,,,,,,,,,,,,,,,,,,,,,,,,,,nabck49,1.0,2024-01-12_09h46.55.297,untitled,2023.2.3,59.927607450110514,2024-01-12 10h17.25.995339 -0500,
12.0,"[0.64, -0.4]",None,0.0,31.0,31.0,31.0,,,,,,,,,1571.970765599981,,,,,,,,,,,,,,,,,,,,,,,,,,,,1571.955185400002,1571.970765599981,1571.970765599981,1572.453993300005,1572.470793799992,1574.9540213999862,1574.954235499987,None,1.0,,,,,,,,,,,,,,,,,,,,,,,,,,,,,,,,,,,,,,,,,,,nabck49,1.0,2024-01-12_09h46.55.297,untitled,2023.2.3,59.927607450110514,2024-01-12 10h17.25.995339 -0500,
9.0,"[0.2, -0.1]",None,0.0,32.0,32.0,32.0,,,,,,,,,1574.9708528000046,,,,,,,,,,,,,,,,,,,,,,,,,,,,1574.9550533999864,1574.9708528000046,1574.9708528000046,1575.4539542999992,1575.4707064999966,1577.9539594999806,1577.9541740999848,None,1.0,,,,,,,,,,,,,,,,,,,,,,,,,,,,,,,,,,,,,,,,,,,nabck49,1.0,2024-01-12_09h46.55.297,untitled,2023.2.3,59.927607450110514,2024-01-12 10h17.25.995339 -0500,
11.0,"[-0.64, -0.4]",space,0.0,33.0,33.0,33.0,,,,,,,,,1577.970634199999,,,,,,,,,,,,,,,,,,,,,,,,,,,,1577.9550386999908,1577.970634199999,1577.970634199999,1578.4539073999913,1578.4706604999956,1580.9538509999984,1580.9540109999944,space,1.0,0.2942282999865711,None,,,,,,,,,,,,,,,,,,,,,,,,,,,,,,,,,,,,,,,,,nabck49,1.0,2024-01-12_09h46.55.297,untitled,2023.2.3,59.927607450110514,2024-01-12 10h17.25.995339 -0500,
7.0,"[0.3, 0]",None,0.0,34.0,34.0,34.0,,,,,,,,,1580.9704533999902,,,,,,,,,,,,,,,,,,,,,,,,,,,,1580.9547962999786,1580.9704533999902,1580.9704533999902,1581.453856899985,1581.4706389000055,1583.954000099999,1583.954213799996,None,1.0,,,,,,,,,,,,,,,,,,,,,,,,,,,,,,,,,,,,,,,,,,,nabck49,1.0,2024-01-12_09h46.55.297,untitled,2023.2.3,59.927607450110514,2024-01-12 10h17.25.995339 -0500,
11.0,"[-0.64, -0.4]",space,0.0,35.0,35.0,35.0,,,,,,,,,1583.970484299993,,,,,,,,,,,,,,,,,,,,,,,,,,,,1583.9551159999974,1583.970484299993,1583.970484299993,1584.4539409999852,1584.470672299998,1586.953871100006,1586.9540950999944,space,1.0,0.4952405000221915,None,,,,,,,,,,,,,,,,,,,,,,,,,,,,,,,,,,,,,,,,,nabck49,1.0,2024-01-12_09h46.55.297,untitled,2023.2.3,59.927607450110514,2024-01-12 10h17.25.995339 -0500,
4.0,"[-0.2, 0.1]",None,0.0,36.0,36.0,36.0,,,,,,,,,1586.970382999978,,,,,,,,,,,,,,,,,,,,,,,,,,,,1586.9549421999836,1586.970382999978,1586.970382999978,1587.4538528999838,1587.4705178999866,1589.953761199984,1589.953912900004,None,1.0,,,,,,,,,,,,,,,,,,,,,,,,,,,,,,,,,,,,,,,,,,,nabck49,1.0,2024-01-12_09h46.55.297,untitled,2023.2.3,59.927607450110514,2024-01-12 10h17.25.995339 -0500,
5.0,"[0.2, 0.1]",None,0.0,37.0,37.0,37.0,,,,,,,,,1589.9703309999895,,,,,,,,,,,,,,,,,,,,,,,,,,,,1589.9545173999795,1589.9703309999895,1589.9703309999895,1590.4536905999994,1590.4704171000049,1592.9537718999782,1592.953951899981,None,1.0,,,,,,,,,,,,,,,,,,,,,,,,,,,,,,,,,,,,,,,,,,,nabck49,1.0,2024-01-12_09h46.55.297,untitled,2023.2.3,59.927607450110514,2024-01-12 10h17.25.995339 -0500,
6.0,"[-0.3, 0]",None,0.0,38.0,38.0,38.0,,,,,,,,,1592.9704189999902,,,,,,,,,,,,,,,,,,,,,,,,,,,,1592.9546492999943,1592.9704189999902,1592.9704189999902,1593.4536132999929,1593.4703923999914,1595.9535769999784,1595.9537520000013,None,1.0,,,,,,,,,,,,,,,,,,,,,,,,,,,,,,,,,,,,,,,,,,,nabck49,1.0,2024-01-12_09h46.55.297,untitled,2023.2.3,59.927607450110514,2024-01-12 10h17.25.995339 -0500,
11.0,"[-0.64, -0.4]",space,0.0,39.0,39.0,39.0,,,,,,,,,1595.9702570999798,,,,,,,,,,,,,,,,,,,,,,,,,,,,1595.954431899998,1595.9702570999798,1595.9702570999798,1596.453575099993,1596.4702845999857,1598.9536924999848,1598.9539271999963,space,1.0,0.3009380000003148,None,,,,,,,,,,,,,,,,,,,,,,,,,,,,,,,,,,,,,,,,,nabck49,1.0,2024-01-12_09h46.55.297,untitled,2023.2.3,59.927607450110514,2024-01-12 10h17.25.995339 -0500,
,,,,,,,,,,,,,,,,,,,,,,,,,,,,,,,,,,,,,,,,,,,,,,,,,,,,,,1598.9546827999875,1598.9703765999875,1598.9703765999875,1613.371136600006,space,14.395040000003064,None,,,,,,,,,,,,,,,,,,,,,,,,,,,,,,,,,,nabck49,1.0,2024-01-12_09h46.55.297,untitled,2023.2.3,59.927607450110514,2024-01-12 10h17.25.995339 -0500,
10.0,"[0, -0.2]",None,,,,,0.0,0.0,0.0,0.0,,,,,1614.3866779999807,,,,,,,,,,,,,,,,,,,,,,,,1613.3711671000056,1613.386566000001,1614.3866779999807,1614.3703587999917,,,,,,,,,,,,,,,,,,,1614.3818402999896,1614.3866779999807,1614.3866779999807,1614.886737199995,1614.886737199995,1617.3867033999995,1617.3867033999995,1617.370785599982,None,1.0,,,,,,,,,,,,,,,,,,,,,,,,nabck49,1.0,2024-01-12_09h46.55.297,untitled,2023.2.3,59.927607450110514,2024-01-12 10h17.25.995339 -0500,
5.0,"[0.2, 0.1]",None,,,,,0.0,1.0,1.0,1.0,,,,,1617.3867033999995,,,,,,,,,,,,,,,,,,,,,,,,,,,,,,,,,,,,,,,,,,,,,,1617.3715305999797,1617.3867033999995,1617.3867033999995,1617.8865198999993,1617.8865198999993,1620.3864969999995,1620.3864969999995,1620.3706227999935,None,1.0,,,,,,,,,,,,,,,,,,,,,,,,nabck49,1.0,2024-01-12_09h46.55.297,untitled,2023.2.3,59.927607450110514,2024-01-12 10h17.25.995339 -0500,
6.0,"[-0.3, 0]",None,,,,,0.0,2.0,2.0,2.0,,,,,1620.3864969999995,,,,,,,,,,,,,,,,,,,,,,,,,,,,,,,,,,,,,,,,,,,,,,1620.3709288999962,1620.3864969999995,1620.3864969999995,1620.8864762999874,1620.8864762999874,1623.3867763000017,1623.3867763000017,1623.3708380000023,None,1.0,,,,,,,,,,,,,,,,,,,,,,,,nabck49,1.0,2024-01-12_09h46.55.297,untitled,2023.2.3,59.927607450110514,2024-01-12 10h17.25.995339 -0500,
6.0,"[-0.3, 0]",space,,,,,0.0,3.0,3.0,3.0,,,,,1623.3867763000017,,,,,,,,,,,,,,,,,,,,,,,,,,,,,,,,,,,,,,,,,,,,,,1623.371680799988,1623.3867763000017,1623.3867763000017,1623.8864526999823,1623.8864526999823,1626.3864445999789,1626.3864445999789,1626.3709141,space,1.0,0.3380357999994885,None,,,,,,,,,,,,,,,,,,,,,,nabck49,1.0,2024-01-12_09h46.55.297,untitled,2023.2.3,59.927607450110514,2024-01-12 10h17.25.995339 -0500,
12.0,"[0.64, -0.4]",None,,,,,0.0,4.0,4.0,4.0,,,,,1626.3864445999789,,,,,,,,,,,,,,,,,,,,,,,,,,,,,,,,,,,,,,,,,,,,,,1626.3722078999854,1626.3864445999789,1626.3864445999789,1626.8864883999922,1626.8864883999922,1629.3862985000014,1629.3862985000014,1629.3704869000069,None,1.0,,,,,,,,,,,,,,,,,,,,,,,,nabck49,1.0,2024-01-12_09h46.55.297,untitled,2023.2.3,59.927607450110514,2024-01-12 10h17.25.995339 -0500,
10.0,"[0, -0.2]",None,,,,,0.0,5.0,5.0,5.0,,,,,1629.3862985000014,,,,,,,,,,,,,,,,,,,,,,,,,,,,,,,,,,,,,,,,,,,,,,1629.371128500003,1629.3862985000014,1629.3862985000014,1629.8864309999915,1629.8864309999915,1632.3863162999914,1632.3863162999914,1632.370342899987,None,1.0,,,,,,,,,,,,,,,,,,,,,,,,nabck49,1.0,2024-01-12_09h46.55.297,untitled,2023.2.3,59.927607450110514,2024-01-12 10h17.25.995339 -0500,
2.0,"[0.64, 0.4]",None,,,,,0.0,6.0,6.0,6.0,,,,,1632.3863162999914,,,,,,,,,,,,,,,,,,,,,,,,,,,,,,,,,,,,,,,,,,,,,,1632.3709278999886,1632.3863162999914,1632.3863162999914,1632.8863034999813,1632.8863034999813,1635.3862724000064,1635.3862724000064,1635.3704024000035,None,1.0,,,,,,,,,,,,,,,,,,,,,,,,nabck49,1.0,2024-01-12_09h46.55.297,untitled,2023.2.3,59.927607450110514,2024-01-12 10h17.25.995339 -0500,
9.0,"[0.2, -0.1]",None,,,,,0.0,7.0,7.0,7.0,,,,,1635.3862724000064,,,,,,,,,,,,,,,,,,,,,,,,,,,,,,,,,,,,,,,,,,,,,,1635.370977899991,1635.3862724000064,1635.3862724000064,1635.886471899983,1635.886471899983,1638.3862915000063,1638.3862915000063,1638.3703602000023,None,1.0,,,,,,,,,,,,,,,,,,,,,,,,nabck49,1.0,2024-01-12_09h46.55.297,untitled,2023.2.3,59.927607450110514,2024-01-12 10h17.25.995339 -0500,
9.0,"[0.2, -0.1]",space,,,,,0.0,8.0,8.0,8.0,,,,,1638.3862915000063,,,,,,,,,,,,,,,,,,,,,,,,,,,,,,,,,,,,,,,,,,,,,,1638.3709843999825,1638.3862915000063,1638.3862915000063,1638.8861239999824,1638.8861239999824,1641.3862495999783,1641.3862495999783,1641.3705053000012,space,1.0,0.3465294999768957,None,,,,,,,,,,,,,,,,,,,,,,nabck49,1.0,2024-01-12_09h46.55.297,untitled,2023.2.3,59.927607450110514,2024-01-12 10h17.25.995339 -0500,
6.0,"[-0.3, 0]",None,,,,,0.0,9.0,9.0,9.0,,,,,1641.3862495999783,,,,,,,,,,,,,,,,,,,,,,,,,,,,,,,,,,,,,,,,,,,,,,1641.3713760999965,1641.3862495999783,1641.3862495999783,1641.8863696999906,1641.8863696999906,1644.3861818999867,1644.3861818999867,1644.3700439999811,None,1.0,,,,,,,,,,,,,,,,,,,,,,,,nabck49,1.0,2024-01-12_09h46.55.297,untitled,2023.2.3,59.927607450110514,2024-01-12 10h17.25.995339 -0500,
11.0,"[-0.64, -0.4]",None,,,,,0.0,10.0,10.0,10.0,,,,,1644.3861818999867,,,,,,,,,,,,,,,,,,,,,,,,,,,,,,,,,,,,,,,,,,,,,,1644.3705903999798,1644.3861818999867,1644.3861818999867,1644.886223599984,1644.886223599984,1647.3861006999796,1647.3861006999796,1647.3703039999818,None,1.0,,,,,,,,,,,,,,,,,,,,,,,,nabck49,1.0,2024-01-12_09h46.55.297,untitled,2023.2.3,59.927607450110514,2024-01-12 10h17.25.995339 -0500,
11.0,"[-0.64, -0.4]",space,,,,,0.0,11.0,11.0,11.0,,,,,1647.3861006999796,,,,,,,,,,,,,,,,,,,,,,,,,,,,,,,,,,,,,,,,,,,,,,1647.3709639000008,1647.3861006999796,1647.3861006999796,1647.886060299992,1647.886060299992,1650.3860247999835,1650.3860247999835,1650.3702083999815,space,1.0,0.372361700021429,None,,,,,,,,,,,,,,,,,,,,,,nabck49,1.0,2024-01-12_09h46.55.297,untitled,2023.2.3,59.927607450110514,2024-01-12 10h17.25.995339 -0500,
4.0,"[-0.2, 0.1]",None,,,,,0.0,12.0,12.0,12.0,,,,,1650.3860247999835,,,,,,,,,,,,,,,,,,,,,,,,,,,,,,,,,,,,,,,,,,,,,,1650.3709885999851,1650.3860247999835,1650.3860247999835,1650.886023900006,1650.886023900006,1653.3862233999826,1653.3862233999826,1653.3705183999846,None,1.0,,,,,,,,,,,,,,,,,,,,,,,,nabck49,1.0,2024-01-12_09h46.55.297,untitled,2023.2.3,59.927607450110514,2024-01-12 10h17.25.995339 -0500,
3.0,"[0, 0.2]",None,,,,,0.0,13.0,13.0,13.0,,,,,1653.3862233999826,,,,,,,,,,,,,,,,,,,,,,,,,,,,,,,,,,,,,,,,,,,,,,1653.371443899989,1653.3862233999826,1653.3862233999826,1653.8860521999886,1653.8860521999886,1656.3861430999823,1656.3861430999823,1656.3702696999826,None,1.0,,,,,,,,,,,,,,,,,,,,,,,,nabck49,1.0,2024-01-12_09h46.55.297,untitled,2023.2.3,59.927607450110514,2024-01-12 10h17.25.995339 -0500,
3.0,"[0, 0.2]",space,,,,,0.0,14.0,14.0,14.0,,,,,1656.3861430999823,,,,,,,,,,,,,,,,,,,,,,,,,,,,,,,,,,,,,,,,,,,,,,1656.371046699991,1656.3861430999823,1656.3861430999823,1656.885995399993,1656.885995399993,1659.3860878999983,1659.3860878999983,1659.370201599988,space,1.0,0.3311145000043325,None,,,,,,,,,,,,,,,,,,,,,,nabck49,1.0,2024-01-12_09h46.55.297,untitled,2023.2.3,59.927607450110514,2024-01-12 10h17.25.995339 -0500,
8.0,"[-0.2, -0.1]",None,,,,,0.0,15.0,15.0,15.0,,,,,1659.3860878999983,,,,,,,,,,,,,,,,,,,,,,,,,,,,,,,,,,,,,,,,,,,,,,1659.371067800006,1659.3860878999983,1659.3860878999983,1659.885980899999,1659.885980899999,1662.3857895999972,1662.3857895999972,1662.3701943999913,None,1.0,,,,,,,,,,,,,,,,,,,,,,,,nabck49,1.0,2024-01-12_09h46.55.297,untitled,2023.2.3,59.927607450110514,2024-01-12 10h17.25.995339 -0500,
1.0,"[-0.64, 0.4]",None,,,,,0.0,16.0,16.0,16.0,,,,,1662.3857895999972,,,,,,,,,,,,,,,,,,,,,,,,,,,,,,,,,,,,,,,,,,,,,,1662.3709170999937,1662.3857895999972,1662.3857895999972,1662.8860125000065,1662.8860125000065,1665.3858255999803,1665.3858255999803,1665.3701867999916,None,1.0,,,,,,,,,,,,,,,,,,,,,,,,nabck49,1.0,2024-01-12_09h46.55.297,untitled,2023.2.3,59.927607450110514,2024-01-12 10h17.25.995339 -0500,
2.0,"[0.64, 0.4]",None,,,,,0.0,17.0,17.0,17.0,,,,,1665.3858255999803,,,,,,,,,,,,,,,,,,,,,,,,,,,,,,,,,,,,,,,,,,,,,,1665.3708697999828,1665.3858255999803,1665.3858255999803,1665.8857231999864,1665.8857231999864,1668.385986999987,1668.385986999987,1668.3701545999793,None,1.0,,,,,,,,,,,,,,,,,,,,,,,,nabck49,1.0,2024-01-12_09h46.55.297,untitled,2023.2.3,59.927607450110514,2024-01-12 10h17.25.995339 -0500,
4.0,"[-0.2, 0.1]",None,,,,,0.0,18.0,18.0,18.0,,,,,1668.385986999987,,,,,,,,,,,,,,,,,,,,,,,,,,,,,,,,,,,,,,,,,,,,,,1668.3708019999904,1668.385986999987,1668.385986999987,1668.8856653999828,1668.8856653999828,1671.3856592999946,1671.3856592999946,1671.3699734999973,None,1.0,,,,,,,,,,,,,,,,,,,,,,,,nabck49,1.0,2024-01-12_09h46.55.297,untitled,2023.2.3,59.927607450110514,2024-01-12 10h17.25.995339 -0500,
4.0,"[-0.2, 0.1]",space,,,,,0.0,19.0,19.0,19.0,,,,,1671.3856592999946,,,,,,,,,,,,,,,,,,,,,,,,,,,,,,,,,,,,,,,,,,,,,,1671.370679099986,1671.3856592999946,1671.3856592999946,1671.8856342999788,1671.8856342999788,1674.3855980999942,1674.3855980999942,1674.3696815999865,space,1.0,0.392742800002452,None,,,,,,,,,,,,,,,,,,,,,,nabck49,1.0,2024-01-12_09h46.55.297,untitled,2023.2.3,59.927607450110514,2024-01-12 10h17.25.995339 -0500,
8.0,"[-0.2, -0.1]",None,,,,,0.0,20.0,20.0,20.0,,,,,1674.3855980999942,,,,,,,,,,,,,,,,,,,,,,,,,,,,,,,,,,,,,,,,,,,,,,1674.3704144999792,1674.3855980999942,1674.3855980999942,1674.885760000005,1674.885760000005,1677.385526900005,1677.385526900005,1677.369619200006,None,1.0,,,,,,,,,,,,,,,,,,,,,,,,nabck49,1.0,2024-01-12_09h46.55.297,untitled,2023.2.3,59.927607450110514,2024-01-12 10h17.25.995339 -0500,
5.0,"[0.2, 0.1]",None,,,,,0.0,21.0,21.0,21.0,,,,,1677.385526900005,,,,,,,,,,,,,,,,,,,,,,,,,,,,,,,,,,,,,,,,,,,,,,1677.3702042999794,1677.385526900005,1677.385526900005,1677.885654099984,1677.885654099984,1680.3856612999807,1680.3856612999807,1680.3698530999827,None,1.0,,,,,,,,,,,,,,,,,,,,,,,,nabck49,1.0,2024-01-12_09h46.55.297,untitled,2023.2.3,59.927607450110514,2024-01-12 10h17.25.995339 -0500,
5.0,"[0.2, 0.1]",space,,,,,0.0,22.0,22.0,22.0,,,,,1680.3856612999807,,,,,,,,,,,,,,,,,,,,,,,,,,,,,,,,,,,,,,,,,,,,,,1680.3705552000029,1680.3856612999807,1680.3856612999807,1680.8854324999847,1680.8854324999847,1683.3855461000055,1683.3855461000055,1683.3697728999832,space,1.0,0.3488244999898597,None,,,,,,,,,,,,,,,,,,,,,,nabck49,1.0,2024-01-12_09h46.55.297,untitled,2023.2.3,59.927607450110514,2024-01-12 10h17.25.995339 -0500,
1.0,"[-0.64, 0.4]",None,,,,,0.0,23.0,23.0,23.0,,,,,1683.3855461000055,,,,,,,,,,,,,,,,,,,,,,,,,,,,,,,,,,,,,,,,,,,,,,1683.3706800999937,1683.3855461000055,1683.3855461000055,1683.88555419998,1683.88555419998,1686.385445299995,1686.385445299995,1686.3696736999846,None,1.0,,,,,,,,,,,,,,,,,,,,,,,,nabck49,1.0,2024-01-12_09h46.55.297,untitled,2023.2.3,59.927607450110514,2024-01-12 10h17.25.995339 -0500,
3.0,"[0, 0.2]",None,,,,,0.0,24.0,24.0,24.0,,,,,1686.385445299995,,,,,,,,,,,,,,,,,,,,,,,,,,,,,,,,,,,,,,,,,,,,,,1686.3703368999995,1686.385445299995,1686.385445299995,1686.8854854999809,1686.8854854999809,1689.385535999987,1689.385535999987,1689.3696068999998,None,1.0,,,,,,,,,,,,,,,,,,,,,,,,nabck49,1.0,2024-01-12_09h46.55.297,untitled,2023.2.3,59.927607450110514,2024-01-12 10h17.25.995339 -0500,
6.0,"[-0.3, 0]",None,,,,,0.0,25.0,25.0,25.0,,,,,1689.385535999987,,,,,,,,,,,,,,,,,,,,,,,,,,,,,,,,,,,,,,,,,,,,,,1689.3702509999855,1689.385535999987,1689.385535999987,1689.88547139999,1689.88547139999,1692.3853430000015,1692.3853430000015,1692.3696196999808,None,1.0,,,,,,,,,,,,,,,,,,,,,,,,nabck49,1.0,2024-01-12_09h46.55.297,untitled,2023.2.3,59.927607450110514,2024-01-12 10h17.25.995339 -0500,
1.0,"[-0.64, 0.4]",None,,,,,0.0,26.0,26.0,26.0,,,,,1692.3853430000015,,,,,,,,,,,,,,,,,,,,,,,,,,,,,,,,,,,,,,,,,,,,,,1692.3702282999875,1692.3853430000015,1692.3853430000015,1692.885465999978,1692.885465999978,1695.385508199979,1695.385508199979,1695.3697971999936,None,1.0,,,,,,,,,,,,,,,,,,,,,,,,nabck49,1.0,2024-01-12_09h46.55.297,untitled,2023.2.3,59.927607450110514,2024-01-12 10h17.25.995339 -0500,
1.0,"[-0.64, 0.4]",space,,,,,0.0,27.0,27.0,27.0,,,,,1695.385508199979,,,,,,,,,,,,,,,,,,,,,,,,,,,,,,,,,,,,,,,,,,,,,,1695.3706225999922,1695.385508199979,1695.385508199979,1695.8852224999864,1695.8852224999864,1698.3851110999822,1698.3851110999822,1698.369590199989,space,1.0,0.4342097000044305,None,,,,,,,,,,,,,,,,,,,,,,nabck49,1.0,2024-01-12_09h46.55.297,untitled,2023.2.3,59.927607450110514,2024-01-12 10h17.25.995339 -0500,
1.0,"[-0.64, 0.4]",space,,,,,0.0,28.0,28.0,28.0,,,,,1698.3851110999822,,,,,,,,,,,,,,,,,,,,,,,,,,,,,,,,,,,,,,,,,,,,,,1698.370514499984,1698.3851110999822,1698.3851110999822,1698.8852779000008,1698.8852779000008,1701.385166699998,1701.385166699998,1701.3694311,None,0.0,,,,,,,,,,,,,,,,,,,,,,,,nabck49,1.0,2024-01-12_09h46.55.297,untitled,2023.2.3,59.927607450110514,2024-01-12 10h17.25.995339 -0500,
3.0,"[0, 0.2]",None,,,,,0.0,29.0,29.0,29.0,,,,,1701.385166699998,,,,,,,,,,,,,,,,,,,,,,,,,,,,,,,,,,,,,,,,,,,,,,1701.370066100004,1701.385166699998,1701.385166699998,1701.8851984999783,1701.8851984999783,1704.3852601999824,1704.3852601999824,1704.3691804999837,None,1.0,,,,,,,,,,,,,,,,,,,,,,,,nabck49,1.0,2024-01-12_09h46.55.297,untitled,2023.2.3,59.927607450110514,2024-01-12 10h17.25.995339 -0500,
12.0,"[0.64, -0.4]",None,,,,,0.0,30.0,30.0,30.0,,,,,1704.3852601999824,,,,,,,,,,,,,,,,,,,,,,,,,,,,,,,,,,,,,,,,,,,,,,1704.3697904,1704.3852601999824,1704.3852601999824,1704.8851129999966,1704.8851129999966,1707.385066699993,1707.385066699993,1707.3691407000006,None,1.0,,,,,,,,,,,,,,,,,,,,,,,,nabck49,1.0,2024-01-12_09h46.55.297,untitled,2023.2.3,59.927607450110514,2024-01-12 10h17.25.995339 -0500,
12.0,"[0.64, -0.4]",space,,,,,0.0,31.0,31.0,31.0,,,,,1707.385066699993,,,,,,,,,,,,,,,,,,,,,,,,,,,,,,,,,,,,,,,,,,,,,,1707.3697905000008,1707.385066699993,1707.385066699993,1707.8850380999793,1707.8850380999793,1710.38497069999,1710.38497069999,1710.3691415999783,space,1.0,0.3798806999984663,None,,,,,,,,,,,,,,,,,,,,,,nabck49,1.0,2024-01-12_09h46.55.297,untitled,2023.2.3,59.927607450110514,2024-01-12 10h17.25.995339 -0500,
2.0,"[0.64, 0.4]",None,,,,,0.0,32.0,32.0,32.0,,,,,1710.38497069999,,,,,,,,,,,,,,,,,,,,,,,,,,,,,,,,,,,,,,,,,,,,,,1710.3699287000054,1710.38497069999,1710.38497069999,1710.885156399978,1710.885156399978,1713.3848211999866,1713.3848211999866,1713.3689292999916,None,1.0,,,,,,,,,,,,,,,,,,,,,,,,nabck49,1.0,2024-01-12_09h46.55.297,untitled,2023.2.3,59.927607450110514,2024-01-12 10h17.25.995339 -0500,
1.0,"[-0.64, 0.4]",None,,,,,0.0,33.0,33.0,33.0,,,,,1713.3848211999866,,,,,,,,,,,,,,,,,,,,,,,,,,,,,,,,,,,,,,,,,,,,,,1713.369465099997,1713.3848211999866,1713.3848211999866,1713.885080899985,1713.885080899985,1716.3850222000035,1716.3850222000035,1716.3687699000002,None,1.0,,,,,,,,,,,,,,,,,,,,,,,,nabck49,1.0,2024-01-12_09h46.55.297,untitled,2023.2.3,59.927607450110514,2024-01-12 10h17.25.995339 -0500,
7.0,"[0.3, 0]",None,,,,,0.0,34.0,34.0,34.0,,,,,1716.3850222000035,,,,,,,,,,,,,,,,,,,,,,,,,,,,,,,,,,,,,,,,,,,,,,1716.3693839999903,1716.3850222000035,1716.3850222000035,1716.884900200006,1716.884900200006,1719.3850181000016,1719.3850181000016,1719.3692350999918,None,1.0,,,,,,,,,,,,,,,,,,,,,,,,nabck49,1.0,2024-01-12_09h46.55.297,untitled,2023.2.3,59.927607450110514,2024-01-12 10h17.25.995339 -0500,
7.0,"[0.3, 0]",space,,,,,0.0,35.0,35.0,35.0,,,,,1719.3850181000016,,,,,,,,,,,,,,,,,,,,,,,,,,,,,,,,,,,,,,,,,,,,,,1719.370003899996,1719.3850181000016,1719.3850181000016,1719.884993099986,1719.884993099986,1722.384737799992,1722.384737799992,1722.3687489999866,space,1.0,0.3365792999975383,None,,,,,,,,,,,,,,,,,,,,,,nabck49,1.0,2024-01-12_09h46.55.297,untitled,2023.2.3,59.927607450110514,2024-01-12 10h17.25.995339 -0500,
11.0,"[-0.64, -0.4]",None,,,,,0.0,36.0,36.0,36.0,,,,,1722.384737799992,,,,,,,,,,,,,,,,,,,,,,,,,,,,,,,,,,,,,,,,,,,,,,1722.3694066999888,1722.384737799992,1722.384737799992,1722.8849843999778,1722.8849843999778,1725.3847439999809,1725.3847439999809,1725.368850800005,None,1.0,,,,,,,,,,,,,,,,,,,,,,,,nabck49,1.0,2024-01-12_09h46.55.297,untitled,2023.2.3,59.927607450110514,2024-01-12 10h17.25.995339 -0500,
2.0,"[0.64, 0.4]",None,,,,,0.0,37.0,37.0,37.0,,,,,1725.3847439999809,,,,,,,,,,,,,,,,,,,,,,,,,,,,,,,,,,,,,,,,,,,,,,1725.369568199996,1725.3847439999809,1725.3847439999809,1725.8847461999976,1725.8847461999976,1728.3845802999858,1728.3845802999858,1728.36870609998,None,1.0,,,,,,,,,,,,,,,,,,,,,,,,nabck49,1.0,2024-01-12_09h46.55.297,untitled,2023.2.3,59.927607450110514,2024-01-12 10h17.25.995339 -0500,
6.0,"[-0.3, 0]",None,,,,,0.0,38.0,38.0,38.0,,,,,1728.3845802999858,,,,,,,,,,,,,,,,,,,,,,,,,,,,,,,,,,,,,,,,,,,,,,1728.3690719000006,1728.3845802999858,1728.3845802999858,1728.88467509998,1728.88467509998,1731.3847258999886,1731.3847258999886,1731.3687042999954,None,1.0,,,,,,,,,,,,,,,,,,,,,,,,nabck49,1.0,2024-01-12_09h46.55.297,untitled,2023.2.3,59.927607450110514,2024-01-12 10h17.25.995339 -0500,
10.0,"[0, -0.2]",None,,,,,0.0,39.0,39.0,39.0,,,,,1731.3847258999886,,,,,,,,,,,,,,,,,,,,,,,,,,,,,,,,,,,,,,,,,,,,,,1731.369292999996,1731.3847258999886,1731.3847258999886,1731.8845819999988,1731.8845819999988,1734.3846640999836,1734.3846640999836,1734.368691999989,None,1.0,,,,,,,,,,,,,,,,,,,,,,,,nabck49,1.0,2024-01-12_09h46.55.297,untitled,2023.2.3,59.927607450110514,2024-01-12 10h17.25.995339 -0500,
,,,,,,,,,,,,,,,,,,,,,,,,,,,,,,,,,,,,,,,,,,,,,,,,,,,,,,,,,,,,,,,,,,,,,,,,,1734.3691485000018,1734.3846640999836,1734.3846640999836,1766.169018799992,space,31.77801880001789,None,,,,,,,,,,,,,,,nabck49,1.0,2024-01-12_09h46.55.297,untitled,2023.2.3,59.927607450110514,2024-01-12 10h17.25.995339 -0500,
,"[0.2, 0.1]",None,,,,,,,,,0.0,0.0,0.0,0.0,1767.1854788000055,,,,,,,,,,,,,,,,,,,,,,,,1766.169061799999,1766.1840680000023,1767.1854788000055,1767.1680336999998,,,,,,,,,,,,,,,,,,,,,,,,,,,,,,,,,,,,,,1767.18358859999,1767.1854788000055,1767.1854788000055,1767.6839977999916,1767.7006808999868,1770.1839987999992,1770.1841752000037,None,1.0,,,,,,nabck49,1.0,2024-01-12_09h46.55.297,untitled,2023.2.3,59.927607450110514,2024-01-12 10h17.25.995339 -0500,
,"[0.64, 0.4]",None,,,,,,,,,0.0,1.0,1.0,1.0,1770.2006081999862,,,,,,,,,,,,,,,,,,,,,,,,,,,,,,,,,,,,,,,,,,,,,,,,,,,,,,,,,,,,,,,,,1770.1849827999831,1770.2006081999862,1770.2006081999862,1770.6840295000002,1770.7006806999852,1773.1839882000058,1773.1842028999818,None,1.0,,,,,,nabck49,1.0,2024-01-12_09h46.55.297,untitled,2023.2.3,59.927607450110514,2024-01-12 10h17.25.995339 -0500,
,"[-0.3, 0]",None,,,,,,,,,0.0,2.0,2.0,2.0,1773.200606600003,,,,,,,,,,,,,,,,,,,,,,,,,,,,,,,,,,,,,,,,,,,,,,,,,,,,,,,,,,,,,,,,,1773.1850098999855,1773.200606600003,1773.200606600003,1773.683923100005,1773.7005565,1776.1839849999817,1776.1841589999967,None,1.0,,,,,,nabck49,1.0,2024-01-12_09h46.55.297,untitled,2023.2.3,59.927607450110514,2024-01-12 10h17.25.995339 -0500,
,"[0.2, -0.1]",None,,,,,,,,,0.0,3.0,3.0,3.0,1776.2005500999803,,,,,,,,,,,,,,,,,,,,,,,,,,,,,,,,,,,,,,,,,,,,,,,,,,,,,,,,,,,,,,,,,1776.1848205999995,1776.2005500999803,1776.2005500999803,1776.6839048999827,1776.7004521999916,1779.1839931999857,1779.1841778999951,None,1.0,,,,,,nabck49,1.0,2024-01-12_09h46.55.297,untitled,2023.2.3,59.927607450110514,2024-01-12 10h17.25.995339 -0500,
,"[0, 0.2]",None,,,,,,,,,0.0,4.0,4.0,4.0,1779.2005338000015,,,,,,,,,,,,,,,,,,,,,,,,,,,,,,,,,,,,,,,,,,,,,,,,,,,,,,,,,,,,,,,,,1779.1848890999972,1779.2005338000015,1779.2005338000015,1779.6838806000014,1779.700455299986,1782.183846800006,1782.1840451000023,None,1.0,,,,,,nabck49,1.0,2024-01-12_09h46.55.297,untitled,2023.2.3,59.927607450110514,2024-01-12 10h17.25.995339 -0500,
,"[0.2, -0.1]",space,,,,,,,,,0.0,5.0,5.0,5.0,1782.2004926999798,,,,,,,,,,,,,,,,,,,,,,,,,,,,,,,,,,,,,,,,,,,,,,,,,,,,,,,,,,,,,,,,,1782.1847550999955,1782.2004926999798,1782.2004926999798,1782.6838809000035,1782.7005535000062,1785.183819400001,1785.1839709999913,space,1.0,0.5502962000027765,None,,,,nabck49,1.0,2024-01-12_09h46.55.297,untitled,2023.2.3,59.927607450110514,2024-01-12 10h17.25.995339 -0500,
,"[0, -0.2]",None,,,,,,,,,0.0,6.0,6.0,6.0,1785.200393699983,,,,,,,,,,,,,,,,,,,,,,,,,,,,,,,,,,,,,,,,,,,,,,,,,,,,,,,,,,,,,,,,,1785.1847909999778,1785.200393699983,1785.200393699983,1785.6839146999991,1785.700503800006,1788.1838862999866,1788.1840880999807,None,1.0,,,,,,nabck49,1.0,2024-01-12_09h46.55.297,untitled,2023.2.3,59.927607450110514,2024-01-12 10h17.25.995339 -0500,
,"[0.64, -0.4]",None,,,,,,,,,0.0,7.0,7.0,7.0,1788.200424199982,,,,,,,,,,,,,,,,,,,,,,,,,,,,,,,,,,,,,,,,,,,,,,,,,,,,,,,,,,,,,,,,,1788.1849702000036,1788.200424199982,1788.200424199982,1788.6837565999886,1788.7002839999914,1791.1837068999885,1791.183920499985,None,1.0,,,,,,nabck49,1.0,2024-01-12_09h46.55.297,untitled,2023.2.3,59.927607450110514,2024-01-12 10h17.25.995339 -0500,
,"[0.3, 0]",None,,,,,,,,,0.0,8.0,8.0,8.0,1791.2003294999886,,,,,,,,,,,,,,,,,,,,,,,,,,,,,,,,,,,,,,,,,,,,,,,,,,,,,,,,,,,,,,,,,1791.1847434999945,1791.2003294999886,1791.2003294999886,1791.6838308000006,1791.7004372999943,1794.1837100999835,1794.1839282999863,None,1.0,,,,,,nabck49,1.0,2024-01-12_09h46.55.297,untitled,2023.2.3,59.927607450110514,2024-01-12 10h17.25.995339 -0500,
,"[0.64, -0.4]",space,,,,,,,,,0.0,9.0,9.0,9.0,1794.2002706000058,,,,,,,,,,,,,,,,,,,,,,,,,,,,,,,,,,,,,,,,,,,,,,,,,,,,,,,,,,,,,,,,,1794.1847837999812,1794.2002706000058,1794.2002706000058,1794.6837420999946,1794.7002240000002,1797.183684699994,1797.1838647999975,space,1.0,0.2898410000198055,None,,,,nabck49,1.0,2024-01-12_09h46.55.297,untitled,2023.2.3,59.927607450110514,2024-01-12 10h17.25.995339 -0500,
,"[-0.64, 0.4]",None,,,,,,,,,0.0,10.0,10.0,10.0,1797.2001922999916,,,,,,,,,,,,,,,,,,,,,,,,,,,,,,,,,,,,,,,,,,,,,,,,,,,,,,,,,,,,,,,,,1797.184692699986,1797.2001922999916,1797.2001922999916,1797.6837333999863,1797.7002134999784,1800.1835494999832,1800.1837328999827,None,1.0,,,,,,nabck49,1.0,2024-01-12_09h46.55.297,untitled,2023.2.3,59.927607450110514,2024-01-12 10h17.25.995339 -0500,
,"[0.2, 0.1]",None,,,,,,,,,0.0,11.0,11.0,11.0,1800.2001967999968,,,,,,,,,,,,,,,,,,,,,,,,,,,,,,,,,,,,,,,,,,,,,,,,,,,,,,,,,,,,,,,,,1800.184571299993,1800.2001967999968,1800.2001967999968,1800.6836648999888,1800.7000103000028,1803.1834671999968,1803.1836845999933,None,1.0,,,,,,nabck49,1.0,2024-01-12_09h46.55.297,untitled,2023.2.3,59.927607450110514,2024-01-12 10h17.25.995339 -0500,
,"[0.3, 0]",None,,,,,,,,,0.0,12.0,12.0,12.0,1803.2000524000032,,,,,,,,,,,,,,,,,,,,,,,,,,,,,,,,,,,,,,,,,,,,,,,,,,,,,,,,,,,,,,,,,1803.1845255999945,1803.2000524000032,1803.2000524000032,1803.6834353999875,1803.700159800006,1806.183430999983,1806.1836417999875,None,1.0,,,,,,nabck49,1.0,2024-01-12_09h46.55.297,untitled,2023.2.3,59.927607450110514,2024-01-12 10h17.25.995339 -0500,
,"[0.2, 0.1]",space,,,,,,,,,0.0,13.0,13.0,13.0,1806.2001652999895,,,,,,,,,,,,,,,,,,,,,,,,,,,,,,,,,,,,,,,,,,,,,,,,,,,,,,,,,,,,,,,,,1806.184421699989,1806.2001652999895,1806.2001652999895,1806.683685600001,1806.7001807999916,1809.1834744999944,1809.1836761999875,space,1.0,0.4047586999949999,None,,,,nabck49,1.0,2024-01-12_09h46.55.297,untitled,2023.2.3,59.927607450110514,2024-01-12 10h17.25.995339 -0500,
,"[-0.3, 0]",None,,,,,,,,,0.0,14.0,14.0,14.0,1809.1999289999949,,,,,,,,,,,,,,,,,,,,,,,,,,,,,,,,,,,,,,,,,,,,,,,,,,,,,,,,,,,,,,,,,1809.184628499992,1809.1999289999949,1809.1999289999949,1809.6834974999947,1809.6998348000047,1812.18334649998,1812.1835498999865,None,1.0,,,,,,nabck49,1.0,2024-01-12_09h46.55.297,untitled,2023.2.3,59.927607450110514,2024-01-12 10h17.25.995339 -0500,
,"[0, 0.2]",None,,,,,,,,,0.0,15.0,15.0,15.0,1812.2000078999845,,,,,,,,,,,,,,,,,,,,,,,,,,,,,,,,,,,,,,,,,,,,,,,,,,,,,,,,,,,,,,,,,1812.1843870999876,1812.2000078999845,1812.2000078999845,1812.6832703999823,1812.700006500003,1815.183112300001,1815.1832777999807,None,1.0,,,,,,nabck49,1.0,2024-01-12_09h46.55.297,untitled,2023.2.3,59.927607450110514,2024-01-12 10h17.25.995339 -0500,
,"[-0.3, 0]",space,,,,,,,,,0.0,16.0,16.0,16.0,1815.1999747999944,,,,,,,,,,,,,,,,,,,,,,,,,,,,,,,,,,,,,,,,,,,,,,,,,,,,,,,,,,,,,,,,,1815.1839479999908,1815.1999747999944,1815.1999747999944,1815.683256699995,1815.6998433999836,1818.1833139999944,1818.183497099992,space,1.0,0.4037652999977581,None,,,,nabck49,1.0,2024-01-12_09h46.55.297,untitled,2023.2.3,59.927607450110514,2024-01-12 10h17.25.995339 -0500,
,"[-0.64, -0.4]",None,,,,,,,,,0.0,17.0,17.0,17.0,1818.1998387000056,,,,,,,,,,,,,,,,,,,,,,,,,,,,,,,,,,,,,,,,,,,,,,,,,,,,,,,,,,,,,,,,,1818.184331299999,1818.1998387000056,1818.1998387000056,1818.683229199989,1818.6997113999969,1821.183099099988,1821.1832963000047,None,1.0,,,,,,nabck49,1.0,2024-01-12_09h46.55.297,untitled,2023.2.3,59.927607450110514,2024-01-12 10h17.25.995339 -0500,
,"[-0.2, -0.1]",None,,,,,,,,,0.0,18.0,18.0,18.0,1821.1998653000048,,,,,,,,,,,,,,,,,,,,,,,,,,,,,,,,,,,,,,,,,,,,,,,,,,,,,,,,,,,,,,,,,1821.1840906,1821.1998653000048,1821.1998653000048,1821.6831091000056,1821.7004093999856,1824.1832261999955,1824.1834150999784,None,1.0,,,,,,nabck49,1.0,2024-01-12_09h46.55.297,untitled,2023.2.3,59.927607450110514,2024-01-12 10h17.25.995339 -0500,
,"[0.2, -0.1]",None,,,,,,,,,0.0,19.0,19.0,19.0,1824.199781000003,,,,,,,,,,,,,,,,,,,,,,,,,,,,,,,,,,,,,,,,,,,,,,,,,,,,,,,,,,,,,,,,,1824.184150599991,1824.199781000003,1824.199781000003,1824.683244899992,1824.6998579000065,1827.1830221999844,1827.1832003000015,None,1.0,,,,,,nabck49,1.0,2024-01-12_09h46.55.297,untitled,2023.2.3,59.927607450110514,2024-01-12 10h17.25.995339 -0500,
,"[0.2, -0.1]",None,,,,,,,,,0.0,20.0,20.0,20.0,1827.1996935999775,,,,,,,,,,,,,,,,,,,,,,,,,,,,,,,,,,,,,,,,,,,,,,,,,,,,,,,,,,,,,,,,,1827.1838698999784,1827.1996935999775,1827.1996935999775,1827.6830910999847,1827.6996529999888,1830.183058900002,1830.1832397999824,None,1.0,,,,,,nabck49,1.0,2024-01-12_09h46.55.297,untitled,2023.2.3,59.927607450110514,2024-01-12 10h17.25.995339 -0500,
,"[-0.64, 0.4]",None,,,,,,,,,0.0,21.0,21.0,21.0,1830.1996759999893,,,,,,,,,,,,,,,,,,,,,,,,,,,,,,,,,,,,,,,,,,,,,,,,,,,,,,,,,,,,,,,,,1830.18396949998,1830.1996759999893,1830.1996759999893,1830.6829880999867,1830.6996344999932,1833.182893799996,1833.1830863000068,None,1.0,,,,,,nabck49,1.0,2024-01-12_09h46.55.297,untitled,2023.2.3,59.927607450110514,2024-01-12 10h17.25.995339 -0500,
,"[0, 0.2]",None,,,,,,,,,0.0,22.0,22.0,22.0,1833.1995125999963,,,,,,,,,,,,,,,,,,,,,,,,,,,,,,,,,,,,,,,,,,,,,,,,,,,,,,,,,,,,,,,,,1833.1838044000035,1833.1995125999963,1833.1995125999963,1833.683041799988,1833.699528099998,1836.1829032999813,1836.1831084000005,None,1.0,,,,,,nabck49,1.0,2024-01-12_09h46.55.297,untitled,2023.2.3,59.927607450110514,2024-01-12 10h17.25.995339 -0500,
,"[0.64, -0.4]",None,,,,,,,,,0.0,23.0,23.0,23.0,1836.199612299999,,,,,,,,,,,,,,,,,,,,,,,,,,,,,,,,,,,,,,,,,,,,,,,,,,,,,,,,,,,,,,,,,1836.183927299979,1836.199612299999,1836.199612299999,1836.6829811999924,1836.6996305999928,1839.182842999988,1839.1830586,None,1.0,,,,,,nabck49,1.0,2024-01-12_09h46.55.297,untitled,2023.2.3,59.927607450110514,2024-01-12 10h17.25.995339 -0500,
,"[0, 0.2]",space,,,,,,,,,0.0,24.0,24.0,24.0,1839.1993010999868,,,,,,,,,,,,,,,,,,,,,,,,,,,,,,,,,,,,,,,,,,,,,,,,,,,,,,,,,,,,,,,,,1839.1837794999883,1839.1993010999868,1839.1993010999868,1839.682821499999,1839.6994206999952,1842.1828262000051,1842.1830519000068,space,1.0,0.6047450000187382,None,,,,nabck49,1.0,2024-01-12_09h46.55.297,untitled,2023.2.3,59.927607450110514,2024-01-12 10h17.25.995339 -0500,
,"[-0.2, 0.1]",None,,,,,,,,,0.0,25.0,25.0,25.0,1842.1996261999884,,,,,,,,,,,,,,,,,,,,,,,,,,,,,,,,,,,,,,,,,,,,,,,,,,,,,,,,,,,,,,,,,1842.1840687999795,1842.1996261999884,1842.1996261999884,1842.6828165999905,1842.6992264,1845.1827764000045,1845.18295659998,None,1.0,,,,,,nabck49,1.0,2024-01-12_09h46.55.297,untitled,2023.2.3,59.927607450110514,2024-01-12 10h17.25.995339 -0500,
,"[0.3, 0]",None,,,,,,,,,0.0,26.0,26.0,26.0,1845.19932309998,,,,,,,,,,,,,,,,,,,,,,,,,,,,,,,,,,,,,,,,,,,,,,,,,,,,,,,,,,,,,,,,,1845.1837481999828,1845.19932309998,1845.19932309998,1845.68285859999,1845.6992729000049,1848.1826914999983,1848.1828936999957,None,1.0,,,,,,nabck49,1.0,2024-01-12_09h46.55.297,untitled,2023.2.3,59.927607450110514,2024-01-12 10h17.25.995339 -0500,
,"[-0.2, 0.1]",space,,,,,,,,,0.0,27.0,27.0,27.0,1848.1993090999893,,,,,,,,,,,,,,,,,,,,,,,,,,,,,,,,,,,,,,,,,,,,,,,,,,,,,,,,,,,,,,,,,1848.1836955999895,1848.1993090999893,1848.1993090999893,1848.6825662000049,1848.6994471999933,1851.1826910999955,1851.1828940999983,space,1.0,0.3621989999955985,None,,,,nabck49,1.0,2024-01-12_09h46.55.297,untitled,2023.2.3,59.927607450110514,2024-01-12 10h17.25.995339 -0500,
,"[-0.2, 0.1]",None,,,,,,,,,0.0,28.0,28.0,28.0,1851.199403799983,,,,,,,,,,,,,,,,,,,,,,,,,,,,,,,,,,,,,,,,,,,,,,,,,,,,,,,,,,,,,,,,,1851.1838440999852,1851.199403799983,1851.199403799983,1851.682711899979,1851.6992155000044,1854.1825761999933,1854.182756299997,space,0.0,1.9164800999860745,None,,,,nabck49,1.0,2024-01-12_09h46.55.297,untitled,2023.2.3,59.927607450110514,2024-01-12 10h17.25.995339 -0500,
,"[0.2, 0.1]",None,,,,,,,,,0.0,29.0,29.0,29.0,1854.1991665999813,,,,,,,,,,,,,,,,,,,,,,,,,,,,,,,,,,,,,,,,,,,,,,,,,,,,,,,,,,,,,,,,,1854.183598300005,1854.1991665999813,1854.1991665999813,1854.6824505999973,1854.6990656999988,1857.1825102999865,1857.1826594999875,None,1.0,,,,,,nabck49,1.0,2024-01-12_09h46.55.297,untitled,2023.2.3,59.927607450110514,2024-01-12 10h17.25.995339 -0500,
,"[-0.64, -0.4]",None,,,,,,,,,0.0,30.0,30.0,30.0,1857.1992370999944,,,,,,,,,,,,,,,,,,,,,,,,,,,,,,,,,,,,,,,,,,,,,,,,,,,,,,,,,,,,,,,,,1857.1833317999844,1857.1992370999944,1857.1992370999944,1857.6826304999995,1857.6993459999796,1860.182455799979,1860.1826175999888,None,1.0,,,,,,nabck49,1.0,2024-01-12_09h46.55.297,untitled,2023.2.3,59.927607450110514,2024-01-12 10h17.25.995339 -0500,
,"[0, -0.2]",None,,,,,,,,,0.0,31.0,31.0,31.0,1860.1991070999936,,,,,,,,,,,,,,,,,,,,,,,,,,,,,,,,,,,,,,,,,,,,,,,,,,,,,,,,,,,,,,,,,1860.183285499981,1860.1991070999936,1860.1991070999936,1860.6825221999895,1860.6990260999885,1863.182421399979,1863.1825381999952,None,1.0,,,,,,nabck49,1.0,2024-01-12_09h46.55.297,untitled,2023.2.3,59.927607450110514,2024-01-12 10h17.25.995339 -0500,
,"[-0.64, -0.4]",space,,,,,,,,,0.0,32.0,32.0,32.0,1863.199127,,,,,,,,,,,,,,,,,,,,,,,,,,,,,,,,,,,,,,,,,,,,,,,,,,,,,,,,,,,,,,,,,1863.1828799000068,1863.199127,1863.199127,1863.6824314999976,1863.6990914999917,1866.1824838999887,1866.1826947999944,space,1.0,0.7559899000043515,None,,,,nabck49,1.0,2024-01-12_09h46.55.297,untitled,2023.2.3,59.927607450110514,2024-01-12 10h17.25.995339 -0500,
,"[0.64, 0.4]",None,,,,,,,,,0.0,33.0,33.0,33.0,1866.199163099984,,,,,,,,,,,,,,,,,,,,,,,,,,,,,,,,,,,,,,,,,,,,,,,,,,,,,,,,,,,,,,,,,1866.183679499984,1866.199163099984,1866.199163099984,1866.6823134000008,1866.69904029998,1869.182321500004,1869.1828026000003,None,1.0,,,,,,nabck49,1.0,2024-01-12_09h46.55.297,untitled,2023.2.3,59.927607450110514,2024-01-12 10h17.25.995339 -0500,
,"[-0.3, 0]",None,,,,,,,,,0.0,34.0,34.0,34.0,1869.1988088999933,,,,,,,,,,,,,,,,,,,,,,,,,,,,,,,,,,,,,,,,,,,,,,,,,,,,,,,,,,,,,,,,,1869.1836271999928,1869.1988088999933,1869.1988088999933,1869.682346699992,1869.698908599996,1872.182320199994,1872.1825113999948,None,1.0,,,,,,nabck49,1.0,2024-01-12_09h46.55.297,untitled,2023.2.3,59.927607450110514,2024-01-12 10h17.25.995339 -0500,
,"[0.3, 0]",None,,,,,,,,,0.0,35.0,35.0,35.0,1872.198854599992,,,,,,,,,,,,,,,,,,,,,,,,,,,,,,,,,,,,,,,,,,,,,,,,,,,,,,,,,,,,,,,,,1872.1832493999973,1872.198854599992,1872.198854599992,1872.6822404999984,1872.6990625000035,1875.1822948000045,1875.1824835999869,None,1.0,,,,,,nabck49,1.0,2024-01-12_09h46.55.297,untitled,2023.2.3,59.927607450110514,2024-01-12 10h17.25.995339 -0500,
,"[-0.3, 0]",space,,,,,,,,,0.0,36.0,36.0,36.0,1875.1988505999907,,,,,,,,,,,,,,,,,,,,,,,,,,,,,,,,,,,,,,,,,,,,,,,,,,,,,,,,,,,,,,,,,1875.183198099985,1875.1988505999907,1875.1988505999907,1875.6821438999905,1875.6988756000064,1878.1822699999905,1878.1824730999945,space,1.0,0.4663078000012319,None,,,,nabck49,1.0,2024-01-12_09h46.55.297,untitled,2023.2.3,59.927607450110514,2024-01-12 10h17.25.995339 -0500,
,"[0, -0.2]",None,,,,,,,,,0.0,37.0,37.0,37.0,1878.1987101999985,,,,,,,,,,,,,,,,,,,,,,,,,,,,,,,,,,,,,,,,,,,,,,,,,,,,,,,,,,,,,,,,,1878.183390599996,1878.1987101999985,1878.1987101999985,1878.68227249998,1878.698857499985,1881.1821940999944,1881.182401500002,None,1.0,,,,,,nabck49,1.0,2024-01-12_09h46.55.297,untitled,2023.2.3,59.927607450110514,2024-01-12 10h17.25.995339 -0500,
,"[0.3, 0]",None,,,,,,,,,0.0,38.0,38.0,38.0,1881.1986844000055,,,,,,,,,,,,,,,,,,,,,,,,,,,,,,,,,,,,,,,,,,,,,,,,,,,,,,,,,,,,,,,,,1881.1831623000037,1881.1986844000055,1881.1986844000055,1881.682092300005,1881.698809399997,1884.182163199992,1884.1823780999985,None,1.0,,,,,,nabck49,1.0,2024-01-12_09h46.55.297,untitled,2023.2.3,59.927607450110514,2024-01-12 10h17.25.995339 -0500,
,"[0.2, 0.1]",None,,,,,,,,,0.0,39.0,39.0,39.0,1884.1987232999816,,,,,,,,,,,,,,,,,,,,,,,,,,,,,,,,,,,,,,,,,,,,,,,,,,,,,,,,,,,,,,,,,1884.1832298999943,1884.1987232999816,1884.1987232999816,1884.6821224000012,1884.698715899984,1887.181990299985,1887.1821667999905,None,1.0,,,,,,nabck49,1.0,2024-01-12_09h46.55.297,untitled,2023.2.3,59.927607450110514,2024-01-12 10h17.25.995339 -0500,
,,,,,,,,,,,,,,,,,,,,,,,,,,,,,,,,,,,,,,,,,,,,,,,,,,,,,,,,,,,,,,,,,,,,,,,,,,,,,,,,,,,,,,,,,,,1887.1826246999844,1887.1985649999988,1890.1822454000069,,,,,,,,
