square,location,corrAns,trials_0.thisRepN,trials_0.thisTrialN,trials_0.thisN,trials_0.thisIndex,trials_1.thisRepN,trials_1.thisTrialN,trials_1.thisN,trials_1.thisIndex,trials_2.thisRepN,trials_2.thisTrialN,trials_2.thisN,trials_2.thisIndex,thisRow.t,notes,Instructions.started,instructions.started,key_resp.started,inst_sq11.started,Instructions.stopped,key_resp.keys,key_resp.rt,key_resp.duration,All.started,sq_1.started,sq_2.started,sq_3.started,sq_4.started,sq_5.started,sq_6.started,sq_7.started,sq_8.started,sq_9.started,sq_10.started,sq_11.started,sq_12.started,All.stopped,Fixation.started,fixation_3.started,fixation_3.stopped,Fixation.stopped,N_back_0_Trial.started,target_square_0.started,response_0.started,fixation_0.started,target_square_0.stopped,fixation_0.stopped,response_0.stopped,N_back_0_Trial.stopped,response_0.keys,response_0.corr,response_0.rt,response_0.duration,Instructions_1.started,instructions_1.started,key_resp_1.started,Instructions_1.stopped,key_resp_1.keys,key_resp_1.rt,key_resp_1.duration,N_back_1_Trial.started,target_square_1.started,response_1.started,target_square_1.stopped,fixation_1.started,fixation_1.stopped,response_1.stopped,N_back_1_Trial.stopped,response_1.keys,response_1.corr,response_1.rt,response_1.duration,Instructions_2.started,instructions_2.started,key_resp_2.started,Instructions_2.stopped,key_resp_2.keys,key_resp_2.rt,key_resp_2.duration,N_back_2_trials.started,target_square_2.started,response_2.started,target_square_2.stopped,fixation_2.started,fixation_2.stopped,response_2.stopped,N_back_2_trials.stopped,response_2.keys,response_2.corr,response_2.rt,response_2.duration,End.started,thank_you.started,thank_you.stopped,End.stopped,participant,session,date,expName,psychopyVersion,frameRate,expStart,
,,,,,,,,,,,,,,,,,0.0014909000601619482,0.003993000136688352,0.003993000136688352,0.003993000136688352,1561.4171800001059,space,1561.405157599831,None,,,,,,,,,,,,,,,,,,,,,,,,,,,,,,,,,,,,,,,,,,,,,,,,,,,,,,,,,,,,,,,,,,,,,,,,,nback75,001,2024-01-30_12h16.59.453,untitled,2023.2.3,60.13807701205524,2024-01-30 12h49.58.197975 -0500,
6,"[-0.3, 0]",None,0,0,0,0,,,,,,,,,1563.4314064001665,,,,,,,,,,1561.4172413002234,1561.4316091001965,1561.4316091001965,1561.4316091001965,1561.4316091001965,1561.4316091001965,1561.4316091001965,1561.4316091001965,1561.4316091001965,1561.4316091001965,1561.4316091001965,1561.4316091001965,1561.4316091001965,1562.4157021001447,1562.4157320000231,1562.4317118001636,1563.4314064001665,1563.4159363000654,1563.4289392000064,1563.4314064001665,1563.4314064001665,1563.9149790001102,1563.931836800184,1566.4149509000126,1566.4314000001177,1566.4159210000653,None,1,,,,,,,,,,,,,,,,,,,,,,,,,,,,,,,,,,,,,,,,,,,,,nback75,001,2024-01-30_12h16.59.453,untitled,2023.2.3,60.13807701205524,2024-01-30 12h49.58.197975 -0500,
10,"[0, -0.2]",None,0,1,1,1,,,,,,,,,1566.4314000001177,,,,,,,,,,,,,,,,,,,,,,,,,,,,1566.4170008001383,1566.4314000001177,1566.4314000001177,1566.91498160013,1566.9316660000477,1569.414924300043,1569.4315389001276,1569.4160303000826,None,1,,,,,,,,,,,,,,,,,,,,,,,,,,,,,,,,,,,,,,,,,,,,,nback75,001,2024-01-30_12h16.59.453,untitled,2023.2.3,60.13807701205524,2024-01-30 12h49.58.197975 -0500,
11,"[-0.64, -0.4]",space,0,2,2,2,,,,,,,,,1569.4315389001276,,,,,,,,,,,,,,,,,,,,,,,,,,,,1569.4168452001177,1569.4315389001276,1569.4315389001276,1569.9148497001734,1569.931608500192,1572.4149875000585,1572.43155580014,1572.4158660001121,space,1,0.359126599971205,None,,,,,,,,,,,,,,,,,,,,,,,,,,,,,,,,,,,,,,,,,,,nback75,001,2024-01-30_12h16.59.453,untitled,2023.2.3,60.13807701205524,2024-01-30 12h49.58.197975 -0500,
12,"[0.64, -0.4]",None,0,3,3,3,,,,,,,,,1572.43155580014,,,,,,,,,,,,,,,,,,,,,,,,,,,,1572.4170931000262,1572.43155580014,1572.43155580014,1572.9146926000249,1572.9316281001084,1575.4148631000426,1575.4314541001804,1575.4159035000484,None,1,,,,,,,,,,,,,,,,,,,,,,,,,,,,,,,,,,,,,,,,,,,,,nback75,001,2024-01-30_12h16.59.453,untitled,2023.2.3,60.13807701205524,2024-01-30 12h49.58.197975 -0500,
1,"[-0.64, 0.4]",None,0,4,4,4,,,,,,,,,1575.4314541001804,,,,,,,,,,,,,,,,,,,,,,,,,,,,1575.4166893002111,1575.4314541001804,1575.4314541001804,1575.931340500014,1575.931340500014,1578.431426800089,1578.431426800089,1578.41558310017,None,1,,,,,,,,,,,,,,,,,,,,,,,,,,,,,,,,,,,,,,,,,,,,,nback75,001,2024-01-30_12h16.59.453,untitled,2023.2.3,60.13807701205524,2024-01-30 12h49.58.197975 -0500,
1,"[-0.64, 0.4]",None,0,5,5,5,,,,,,,,,1578.431426800089,,,,,,,,,,,,,,,,,,,,,,,,,,,,1578.4163252001163,1578.431426800089,1578.431426800089,1578.9314213001635,1578.9314213001635,1581.4311119001359,1581.4311119001359,1581.4152931000572,None,1,,,,,,,,,,,,,,,,,,,,,,,,,,,,,,,,,,,,,,,,,,,,,nback75,001,2024-01-30_12h16.59.453,untitled,2023.2.3,60.13807701205524,2024-01-30 12h49.58.197975 -0500,
4,"[-0.2, 0.1]",None,0,6,6,6,,,,,,,,,1581.4311119001359,,,,,,,,,,,,,,,,,,,,,,,,,,,,1581.415935400175,1581.4311119001359,1581.4311119001359,1581.931185600115,1581.931185600115,1584.4313093000092,1584.4313093000092,1584.4155198000371,None,1,,,,,,,,,,,,,,,,,,,,,,,,,,,,,,,,,,,,,,,,,,,,,nback75,001,2024-01-30_12h16.59.453,untitled,2023.2.3,60.13807701205524,2024-01-30 12h49.58.197975 -0500,
5,"[0.2, 0.1]",None,0,7,7,7,,,,,,,,,1584.4313093000092,,,,,,,,,,,,,,,,,,,,,,,,,,,,1584.416208300041,1584.4313093000092,1584.4313093000092,1584.9312515000347,1584.9312515000347,1587.4311278001405,1587.4311278001405,1587.4154223001096,None,1,,,,,,,,,,,,,,,,,,,,,,,,,,,,,,,,,,,,,,,,,,,,,nback75,001,2024-01-30_12h16.59.453,untitled,2023.2.3,60.13807701205524,2024-01-30 12h49.58.197975 -0500,
11,"[-0.64, -0.4]",space,0,8,8,8,,,,,,,,,1587.4311278001405,,,,,,,,,,,,,,,,,,,,,,,,,,,,1587.4158039002214,1587.4311278001405,1587.4311278001405,1587.9311347000767,1587.9311347000767,1590.4312103001866,1590.4312103001866,1590.4155233001802,space,1,0.40111860004253685,None,,,,,,,,,,,,,,,,,,,,,,,,,,,,,,,,,,,,,,,,,,,nback75,001,2024-01-30_12h16.59.453,untitled,2023.2.3,60.13807701205524,2024-01-30 12h49.58.197975 -0500,
9,"[0.2, -0.1]",None,0,9,9,9,,,,,,,,,1590.4312103001866,,,,,,,,,,,,,,,,,,,,,,,,,,,,1590.416452900041,1590.4312103001866,1590.4312103001866,1590.9313697000034,1590.9313697000034,1593.4310267001856,1593.4310267001856,1593.4155685000587,None,1,,,,,,,,,,,,,,,,,,,,,,,,,,,,,,,,,,,,,,,,,,,,,nback75,001,2024-01-30_12h16.59.453,untitled,2023.2.3,60.13807701205524,2024-01-30 12h49.58.197975 -0500,
8,"[-0.2, -0.1]",None,0,10,10,10,,,,,,,,,1593.4310267001856,,,,,,,,,,,,,,,,,,,,,,,,,,,,1593.4163856001105,1593.4310267001856,1593.4310267001856,1593.93102680007,1593.93102680007,1596.4310617002193,1596.4310617002193,1596.4152886001393,None,1,,,,,,,,,,,,,,,,,,,,,,,,,,,,,,,,,,,,,,,,,,,,,nback75,001,2024-01-30_12h16.59.453,untitled,2023.2.3,60.13807701205524,2024-01-30 12h49.58.197975 -0500,
9,"[0.2, -0.1]",None,0,11,11,11,,,,,,,,,1596.4310617002193,,,,,,,,,,,,,,,,,,,,,,,,,,,,1596.415965600172,1596.4310617002193,1596.4310617002193,1596.9311483001802,1596.9311483001802,1599.4311504000798,1599.4311504000798,1599.4154486001935,None,1,,,,,,,,,,,,,,,,,,,,,,,,,,,,,,,,,,,,,,,,,,,,,nback75,001,2024-01-30_12h16.59.453,untitled,2023.2.3,60.13807701205524,2024-01-30 12h49.58.197975 -0500,
6,"[-0.3, 0]",None,0,12,12,12,,,,,,,,,1599.4311504000798,,,,,,,,,,,,,,,,,,,,,,,,,,,,1599.4161777000409,1599.4311504000798,1599.4311504000798,1599.9311846001074,1599.9311846001074,1602.4310370001476,1602.4310370001476,1602.4151563001797,None,1,,,,,,,,,,,,,,,,,,,,,,,,,,,,,,,,,,,,,,,,,,,,,nback75,001,2024-01-30_12h16.59.453,untitled,2023.2.3,60.13807701205524,2024-01-30 12h49.58.197975 -0500,
9,"[0.2, -0.1]",None,0,13,13,13,,,,,,,,,1602.4310370001476,,,,,,,,,,,,,,,,,,,,,,,,,,,,1602.4159833001904,1602.4310370001476,1602.4310370001476,1602.9309819000773,1602.9309819000773,1605.431026400067,1605.431026400067,1605.4154155000579,None,1,,,,,,,,,,,,,,,,,,,,,,,,,,,,,,,,,,,,,,,,,,,,,nback75,001,2024-01-30_12h16.59.453,untitled,2023.2.3,60.13807701205524,2024-01-30 12h49.58.197975 -0500,
7,"[0.3, 0]",None,0,14,14,14,,,,,,,,,1605.431026400067,,,,,,,,,,,,,,,,,,,,,,,,,,,,1605.41626060009,1605.431026400067,1605.431026400067,1605.9308552001603,1605.9308552001603,1608.430621800013,1608.430621800013,1608.4146958000492,None,1,,,,,,,,,,,,,,,,,,,,,,,,,,,,,,,,,,,,,,,,,,,,,nback75,001,2024-01-30_12h16.59.453,untitled,2023.2.3,60.13807701205524,2024-01-30 12h49.58.197975 -0500,
2,"[0.64, 0.4]",None,0,15,15,15,,,,,,,,,1608.430621800013,,,,,,,,,,,,,,,,,,,,,,,,,,,,1608.41504230001,1608.430621800013,1608.430621800013,1608.9308336002287,1608.9308336002287,1611.4306996001396,1611.4306996001396,1611.4152710000053,None,1,,,,,,,,,,,,,,,,,,,,,,,,,,,,,,,,,,,,,,,,,,,,,nback75,001,2024-01-30_12h16.59.453,untitled,2023.2.3,60.13807701205524,2024-01-30 12h49.58.197975 -0500,
2,"[0.64, 0.4]",None,0,16,16,16,,,,,,,,,1611.4306996001396,,,,,,,,,,,,,,,,,,,,,,,,,,,,1611.4160855000373,1611.4306996001396,1611.4306996001396,1611.9306139000691,1611.9306139000691,1614.430853100028,1614.430853100028,1614.4151575001888,None,1,,,,,,,,,,,,,,,,,,,,,,,,,,,,,,,,,,,,,,,,,,,,,nback75,001,2024-01-30_12h16.59.453,untitled,2023.2.3,60.13807701205524,2024-01-30 12h49.58.197975 -0500,
11,"[-0.64, -0.4]",space,0,17,17,17,,,,,,,,,1614.430853100028,,,,,,,,,,,,,,,,,,,,,,,,,,,,1614.4159216000699,1614.430853100028,1614.430853100028,1614.9307835001964,1614.9307835001964,1617.4307377000805,1617.4307377000805,1617.4150871001184,space,1,0.4156738999299705,None,,,,,,,,,,,,,,,,,,,,,,,,,,,,,,,,,,,,,,,,,,,nback75,001,2024-01-30_12h16.59.453,untitled,2023.2.3,60.13807701205524,2024-01-30 12h49.58.197975 -0500,
11,"[-0.64, -0.4]",space,0,18,18,18,,,,,,,,,1617.4307377000805,,,,,,,,,,,,,,,,,,,,,,,,,,,,1617.4160084000323,1617.4307377000805,1617.4307377000805,1617.9307224000804,1617.9307224000804,1620.4306424001697,1620.4306424001697,1620.414744600188,space,1,0.510558299953118,None,,,,,,,,,,,,,,,,,,,,,,,,,,,,,,,,,,,,,,,,,,,nback75,001,2024-01-30_12h16.59.453,untitled,2023.2.3,60.13807701205524,2024-01-30 12h49.58.197975 -0500,
7,"[0.3, 0]",None,0,19,19,19,,,,,,,,,1620.4306424001697,,,,,,,,,,,,,,,,,,,,,,,,,,,,1620.4156165001914,1620.4306424001697,1620.4306424001697,1620.930747100152,1620.930747100152,1623.4307942001615,1623.4307942001615,1623.415019000182,None,1,,,,,,,,,,,,,,,,,,,,,,,,,,,,,,,,,,,,,,,,,,,,,nback75,001,2024-01-30_12h16.59.453,untitled,2023.2.3,60.13807701205524,2024-01-30 12h49.58.197975 -0500,
3,"[0, 0.2]",None,0,20,20,20,,,,,,,,,1623.4307942001615,,,,,,,,,,,,,,,,,,,,,,,,,,,,1623.4157818001695,1623.4307942001615,1623.4307942001615,1623.9305637001526,1623.9305637001526,1626.4305174001493,1626.4305174001493,1626.4150454001501,None,1,,,,,,,,,,,,,,,,,,,,,,,,,,,,,,,,,,,,,,,,,,,,,nback75,001,2024-01-30_12h16.59.453,untitled,2023.2.3,60.13807701205524,2024-01-30 12h49.58.197975 -0500,
10,"[0, -0.2]",None,0,21,21,21,,,,,,,,,1626.4305174001493,,,,,,,,,,,,,,,,,,,,,,,,,,,,1626.4158346001059,1626.4305174001493,1626.4305174001493,1626.9306244000327,1626.9306244000327,1629.4306186002214,1629.4306186002214,1629.4147916000802,None,1,,,,,,,,,,,,,,,,,,,,,,,,,,,,,,,,,,,,,,,,,,,,,nback75,001,2024-01-30_12h16.59.453,untitled,2023.2.3,60.13807701205524,2024-01-30 12h49.58.197975 -0500,
1,"[-0.64, 0.4]",None,0,22,22,22,,,,,,,,,1629.4306186002214,,,,,,,,,,,,,,,,,,,,,,,,,,,,1629.4155863001943,1629.4306186002214,1629.4306186002214,1629.9303941000253,1629.9303941000253,1632.4302913001738,1632.4302913001738,1632.4145982000045,None,1,,,,,,,,,,,,,,,,,,,,,,,,,,,,,,,,,,,,,,,,,,,,,nback75,001,2024-01-30_12h16.59.453,untitled,2023.2.3,60.13807701205524,2024-01-30 12h49.58.197975 -0500,
2,"[0.64, 0.4]",None,0,23,23,23,,,,,,,,,1632.4302913001738,,,,,,,,,,,,,,,,,,,,,,,,,,,,1632.4152693001088,1632.4302913001738,1632.4302913001738,1632.9304106000345,1632.9304106000345,1635.4303335000295,1635.4303335000295,1635.414288900094,None,1,,,,,,,,,,,,,,,,,,,,,,,,,,,,,,,,,,,,,,,,,,,,,nback75,001,2024-01-30_12h16.59.453,untitled,2023.2.3,60.13807701205524,2024-01-30 12h49.58.197975 -0500,
6,"[-0.3, 0]",None,0,24,24,24,,,,,,,,,1635.4303335000295,,,,,,,,,,,,,,,,,,,,,,,,,,,,1635.4149065001402,1635.4303335000295,1635.4303335000295,1635.9305091002025,1635.9305091002025,1638.4302518002223,1638.4302518002223,1638.4144292001147,None,1,,,,,,,,,,,,,,,,,,,,,,,,,,,,,,,,,,,,,,,,,,,,,nback75,001,2024-01-30_12h16.59.453,untitled,2023.2.3,60.13807701205524,2024-01-30 12h49.58.197975 -0500,
3,"[0, 0.2]",None,0,25,25,25,,,,,,,,,1638.4302518002223,,,,,,,,,,,,,,,,,,,,,,,,,,,,1638.4152242001146,1638.4302518002223,1638.4302518002223,1638.9304106000345,1638.9304106000345,1641.4302790001966,1641.4302790001966,1641.4148170000408,None,1,,,,,,,,,,,,,,,,,,,,,,,,,,,,,,,,,,,,,,,,,,,,,nback75,001,2024-01-30_12h16.59.453,untitled,2023.2.3,60.13807701205524,2024-01-30 12h49.58.197975 -0500,
11,"[-0.64, -0.4]",space,0,26,26,26,,,,,,,,,1641.4302790001966,,,,,,,,,,,,,,,,,,,,,,,,,,,,1641.415652600117,1641.4302790001966,1641.4302790001966,1641.9303390001878,1641.9303390001878,1644.4302250000183,1644.4302250000183,1644.41438620002,space,1,0.45100430003367364,None,,,,,,,,,,,,,,,,,,,,,,,,,,,,,,,,,,,,,,,,,,,nback75,001,2024-01-30_12h16.59.453,untitled,2023.2.3,60.13807701205524,2024-01-30 12h49.58.197975 -0500,
1,"[-0.64, 0.4]",None,0,27,27,27,,,,,,,,,1644.4302250000183,,,,,,,,,,,,,,,,,,,,,,,,,,,,1644.4151638001204,1644.4302250000183,1644.4302250000183,1644.930332500022,1644.930332500022,1647.4303885002155,1647.4303885002155,1647.4147229001392,None,1,,,,,,,,,,,,,,,,,,,,,,,,,,,,,,,,,,,,,,,,,,,,,nback75,001,2024-01-30_12h16.59.453,untitled,2023.2.3,60.13807701205524,2024-01-30 12h49.58.197975 -0500,
3,"[0, 0.2]",None,0,28,28,28,,,,,,,,,1647.4303885002155,,,,,,,,,,,,,,,,,,,,,,,,,,,,1647.4156165001914,1647.4303885002155,1647.4303885002155,1647.9303689000662,1647.9303689000662,1650.4303617000114,1650.4303617000114,1650.4145498001017,None,1,,,,,,,,,,,,,,,,,,,,,,,,,,,,,,,,,,,,,,,,,,,,,nback75,001,2024-01-30_12h16.59.453,untitled,2023.2.3,60.13807701205524,2024-01-30 12h49.58.197975 -0500,
9,"[0.2, -0.1]",None,0,29,29,29,,,,,,,,,1650.4303617000114,,,,,,,,,,,,,,,,,,,,,,,,,,,,1650.4153691001702,1650.4303617000114,1650.4303617000114,1650.9301124000922,1650.9301124000922,1653.430119200144,1653.430119200144,1653.4145563000347,None,1,,,,,,,,,,,,,,,,,,,,,,,,,,,,,,,,,,,,,,,,,,,,,nback75,001,2024-01-30_12h16.59.453,untitled,2023.2.3,60.13807701205524,2024-01-30 12h49.58.197975 -0500,
8,"[-0.2, -0.1]",None,0,30,30,30,,,,,,,,,1653.430119200144,,,,,,,,,,,,,,,,,,,,,,,,,,,,1653.4154150001705,1653.430119200144,1653.430119200144,1653.9296847002115,1653.9296847002115,1656.4299758002162,1656.4299758002162,1656.4145033000968,None,1,,,,,,,,,,,,,,,,,,,,,,,,,,,,,,,,,,,,,,,,,,,,,nback75,001,2024-01-30_12h16.59.453,untitled,2023.2.3,60.13807701205524,2024-01-30 12h49.58.197975 -0500,
12,"[0.64, -0.4]",None,0,31,31,31,,,,,,,,,1656.4299758002162,,,,,,,,,,,,,,,,,,,,,,,,,,,,1656.4153147002216,1656.4299758002162,1656.4299758002162,1656.93005360011,1656.93005360011,1659.4299917002209,1659.4299917002209,1659.4144057000522,None,1,,,,,,,,,,,,,,,,,,,,,,,,,,,,,,,,,,,,,,,,,,,,,nback75,001,2024-01-30_12h16.59.453,untitled,2023.2.3,60.13807701205524,2024-01-30 12h49.58.197975 -0500,
9,"[0.2, -0.1]",None,0,32,32,32,,,,,,,,,1659.4299917002209,,,,,,,,,,,,,,,,,,,,,,,,,,,,1659.4151993000414,1659.4299917002209,1659.4299917002209,1659.9300065001007,1659.9300065001007,1662.4299286000896,1662.4299286000896,1662.4143762001768,None,1,,,,,,,,,,,,,,,,,,,,,,,,,,,,,,,,,,,,,,,,,,,,,nback75,001,2024-01-30_12h16.59.453,untitled,2023.2.3,60.13807701205524,2024-01-30 12h49.58.197975 -0500,
11,"[-0.64, -0.4]",space,0,33,33,33,,,,,,,,,1662.4299286000896,,,,,,,,,,,,,,,,,,,,,,,,,,,,1662.4151413000654,1662.4299286000896,1662.4299286000896,1662.929799000034,1662.929799000034,1665.429937200155,1665.429937200155,1665.4142161000054,space,1,0.4102028999477625,None,,,,,,,,,,,,,,,,,,,,,,,,,,,,,,,,,,,,,,,,,,,nback75,001,2024-01-30_12h16.59.453,untitled,2023.2.3,60.13807701205524,2024-01-30 12h49.58.197975 -0500,
7,"[0.3, 0]",None,0,34,34,34,,,,,,,,,1665.429937200155,,,,,,,,,,,,,,,,,,,,,,,,,,,,1665.4151421000715,1665.429937200155,1665.429937200155,1665.929761200212,1665.929761200212,1668.429768500151,1668.429768500151,1668.414103700081,None,1,,,,,,,,,,,,,,,,,,,,,,,,,,,,,,,,,,,,,,,,,,,,,nback75,001,2024-01-30_12h16.59.453,untitled,2023.2.3,60.13807701205524,2024-01-30 12h49.58.197975 -0500,
11,"[-0.64, -0.4]",space,0,35,35,35,,,,,,,,,1668.429768500151,,,,,,,,,,,,,,,,,,,,,,,,,,,,1668.4148044001777,1668.429768500151,1668.429768500151,1668.9298183000647,1668.9298183000647,1671.4296061000787,1671.4296061000787,1671.4138140000869,space,1,0.38579239998944104,None,,,,,,,,,,,,,,,,,,,,,,,,,,,,,,,,,,,,,,,,,,,nback75,001,2024-01-30_12h16.59.453,untitled,2023.2.3,60.13807701205524,2024-01-30 12h49.58.197975 -0500,
4,"[-0.2, 0.1]",None,0,36,36,36,,,,,,,,,1671.4296061000787,,,,,,,,,,,,,,,,,,,,,,,,,,,,1671.4146174001507,1671.4296061000787,1671.4296061000787,1671.929699700093,1671.929699700093,1674.42973910016,1674.42973910016,1674.4137630001642,None,1,,,,,,,,,,,,,,,,,,,,,,,,,,,,,,,,,,,,,,,,,,,,,nback75,001,2024-01-30_12h16.59.453,untitled,2023.2.3,60.13807701205524,2024-01-30 12h49.58.197975 -0500,
5,"[0.2, 0.1]",None,0,37,37,37,,,,,,,,,1674.42973910016,,,,,,,,,,,,,,,,,,,,,,,,,,,,1674.4144580001011,1674.42973910016,1674.42973910016,1674.9295298000798,1674.9295298000798,1677.4296823001932,1677.4296823001932,1677.414220200153,None,1,,,,,,,,,,,,,,,,,,,,,,,,,,,,,,,,,,,,,,,,,,,,,nback75,001,2024-01-30_12h16.59.453,untitled,2023.2.3,60.13807701205524,2024-01-30 12h49.58.197975 -0500,
6,"[-0.3, 0]",None,0,38,38,38,,,,,,,,,1677.4296823001932,,,,,,,,,,,,,,,,,,,,,,,,,,,,1677.4150563001167,1677.4296823001932,1677.4296823001932,1677.929652000079,1677.929652000079,1680.4296144000255,1680.4296144000255,1680.4140874000732,None,1,,,,,,,,,,,,,,,,,,,,,,,,,,,,,,,,,,,,,,,,,,,,,nback75,001,2024-01-30_12h16.59.453,untitled,2023.2.3,60.13807701205524,2024-01-30 12h49.58.197975 -0500,
11,"[-0.64, -0.4]",space,0,39,39,39,,,,,,,,,1680.4296144000255,,,,,,,,,,,,,,,,,,,,,,,,,,,,1680.4148697000928,1680.4296144000255,1680.4296144000255,1680.929599400144,1680.929599400144,1683.429607800208,1683.429607800208,1683.413925500121,space,1,0.3397345000412315,None,,,,,,,,,,,,,,,,,,,,,,,,,,,,,,,,,,,,,,,,,,,nback75,001,2024-01-30_12h16.59.453,untitled,2023.2.3,60.13807701205524,2024-01-30 12h49.58.197975 -0500,
,,,,,,,,,,,,,,,,,,,,,,,,,,,,,,,,,,,,,,,,,,,,,,,,,,,,,,,1683.414648000151,1683.429607800208,1683.429607800208,1730.097185100196,space,46.659843700006604,None,,,,,,,,,,,,,,,,,,,,,,,,,,,,,,,,,,,,nback75,001,2024-01-30_12h16.59.453,untitled,2023.2.3,60.13807701205524,2024-01-30 12h49.58.197975 -0500,
10,"[0, -0.2]",None,,,,,0,0,0,0,,,,,1731.1117412000895,,,,,,,,,,,,,,,,,,,,,,,,1730.0972327000927,1730.1118928000797,1731.1117412000895,1731.0959621001966,,,,,,,,,,,,,,,,,,,,1731.1054441002198,1731.1117412000895,1731.1117412000895,1731.6119813001715,1731.6119813001715,1734.1118566000368,1734.1118566000368,1734.096318300115,None,1,,,,,,,,,,,,,,,,,,,,,,,,,,nback75,001,2024-01-30_12h16.59.453,untitled,2023.2.3,60.13807701205524,2024-01-30 12h49.58.197975 -0500,
5,"[0.2, 0.1]",None,,,,,0,1,1,1,,,,,1734.1118566000368,,,,,,,,,,,,,,,,,,,,,,,,,,,,,,,,,,,,,,,,,,,,,,,1734.0972470000852,1734.1118566000368,1734.1118566000368,1734.611876900075,1734.611876900075,1737.1119167001452,1737.1119167001452,1737.095875900006,None,1,,,,,,,,,,,,,,,,,,,,,,,,,,nback75,001,2024-01-30_12h16.59.453,untitled,2023.2.3,60.13807701205524,2024-01-30 12h49.58.197975 -0500,
6,"[-0.3, 0]",None,,,,,0,2,2,2,,,,,1737.1119167001452,,,,,,,,,,,,,,,,,,,,,,,,,,,,,,,,,,,,,,,,,,,,,,,1737.0964564001188,1737.1119167001452,1737.1119167001452,1737.6120706000365,1737.6120706000365,1740.1118000000715,1740.1118000000715,1740.0962216001935,None,1,,,,,,,,,,,,,,,,,,,,,,,,,,nback75,001,2024-01-30_12h16.59.453,untitled,2023.2.3,60.13807701205524,2024-01-30 12h49.58.197975 -0500,
6,"[-0.3, 0]",space,,,,,0,3,3,3,,,,,1740.1118000000715,,,,,,,,,,,,,,,,,,,,,,,,,,,,,,,,,,,,,,,,,,,,,,,1740.097105300054,1740.1118000000715,1740.1118000000715,1740.6118920000736,1740.6118920000736,1743.1116829002276,1743.1116829002276,1743.0959825001191,space,1,0.37295740004628897,None,,,,,,,,,,,,,,,,,,,,,,,,nback75,001,2024-01-30_12h16.59.453,untitled,2023.2.3,60.13807701205524,2024-01-30 12h49.58.197975 -0500,
12,"[0.64, -0.4]",None,,,,,0,4,4,4,,,,,1743.1116829002276,,,,,,,,,,,,,,,,,,,,,,,,,,,,,,,,,,,,,,,,,,,,,,,1743.097016400192,1743.1116829002276,1743.1116829002276,1743.6118237001356,1743.6118237001356,1746.111774600111,1746.111774600111,1746.0959028000943,None,1,,,,,,,,,,,,,,,,,,,,,,,,,,nback75,001,2024-01-30_12h16.59.453,untitled,2023.2.3,60.13807701205524,2024-01-30 12h49.58.197975 -0500,
10,"[0, -0.2]",None,,,,,0,5,5,5,,,,,1746.111774600111,,,,,,,,,,,,,,,,,,,,,,,,,,,,,,,,,,,,,,,,,,,,,,,1746.0965566001832,1746.111774600111,1746.111774600111,1746.6117767000105,1746.6117767000105,1749.1116517002229,1749.1116517002229,1749.0958386000711,None,1,,,,,,,,,,,,,,,,,,,,,,,,,,nback75,001,2024-01-30_12h16.59.453,untitled,2023.2.3,60.13807701205524,2024-01-30 12h49.58.197975 -0500,
2,"[0.64, 0.4]",None,,,,,0,6,6,6,,,,,1749.1116517002229,,,,,,,,,,,,,,,,,,,,,,,,,,,,,,,,,,,,,,,,,,,,,,,1749.0965368000325,1749.1116517002229,1749.1116517002229,1749.6117438001093,1749.6117438001093,1752.1116654002108,1752.1116654002108,1752.0958696000744,None,1,,,,,,,,,,,,,,,,,,,,,,,,,,nback75,001,2024-01-30_12h16.59.453,untitled,2023.2.3,60.13807701205524,2024-01-30 12h49.58.197975 -0500,
9,"[0.2, -0.1]",None,,,,,0,7,7,7,,,,,1752.1116654002108,,,,,,,,,,,,,,,,,,,,,,,,,,,,,,,,,,,,,,,,,,,,,,,1752.096540800063,1752.1116654002108,1752.1116654002108,1752.6117538001854,1752.6117538001854,1755.11167270015,1755.11167270015,1755.095784400124,None,1,,,,,,,,,,,,,,,,,,,,,,,,,,nback75,001,2024-01-30_12h16.59.453,untitled,2023.2.3,60.13807701205524,2024-01-30 12h49.58.197975 -0500,
9,"[0.2, -0.1]",space,,,,,0,8,8,8,,,,,1755.11167270015,,,,,,,,,,,,,,,,,,,,,,,,,,,,,,,,,,,,,,,,,,,,,,,1755.0965067001525,1755.11167270015,1755.11167270015,1755.6117094000801,1755.6117094000801,1758.1115392001811,1758.1115392001811,1758.0957773001865,space,1,0.5960630001500249,None,,,,,,,,,,,,,,,,,,,,,,,,nback75,001,2024-01-30_12h16.59.453,untitled,2023.2.3,60.13807701205524,2024-01-30 12h49.58.197975 -0500,
6,"[-0.3, 0]",None,,,,,0,9,9,9,,,,,1758.1115392001811,,,,,,,,,,,,,,,,,,,,,,,,,,,,,,,,,,,,,,,,,,,,,,,1758.096705000149,1758.1115392001811,1758.1115392001811,1758.6115507001523,1758.6115507001523,1761.1114496001974,1761.1114496001974,1761.0958965001628,None,1,,,,,,,,,,,,,,,,,,,,,,,,,,nback75,001,2024-01-30_12h16.59.453,untitled,2023.2.3,60.13807701205524,2024-01-30 12h49.58.197975 -0500,
11,"[-0.64, -0.4]",None,,,,,0,10,10,10,,,,,1761.1114496001974,,,,,,,,,,,,,,,,,,,,,,,,,,,,,,,,,,,,,,,,,,,,,,,1761.09677630011,1761.1114496001974,1761.1114496001974,1761.6116428000387,1761.6116428000387,1764.1114196002018,1764.1114196002018,1764.095517900074,None,1,,,,,,,,,,,,,,,,,,,,,,,,,,nback75,001,2024-01-30_12h16.59.453,untitled,2023.2.3,60.13807701205524,2024-01-30 12h49.58.197975 -0500,
11,"[-0.64, -0.4]",space,,,,,0,11,11,11,,,,,1764.1114196002018,,,,,,,,,,,,,,,,,,,,,,,,,,,,,,,,,,,,,,,,,,,,,,,1764.0962578000035,1764.1114196002018,1764.1114196002018,1764.6113630000036,1764.6113630000036,1767.111355200177,1767.111355200177,1767.095436700154,space,1,0.5589589001610875,None,,,,,,,,,,,,,,,,,,,,,,,,nback75,001,2024-01-30_12h16.59.453,untitled,2023.2.3,60.13807701205524,2024-01-30 12h49.58.197975 -0500,
4,"[-0.2, 0.1]",None,,,,,0,12,12,12,,,,,1767.111355200177,,,,,,,,,,,,,,,,,,,,,,,,,,,,,,,,,,,,,,,,,,,,,,,1767.0962342000566,1767.111355200177,1767.111355200177,1767.6113378000446,1767.6113378000446,1770.1113015001174,1770.1113015001174,1770.0952348001301,None,1,,,,,,,,,,,,,,,,,,,,,,,,,,nback75,001,2024-01-30_12h16.59.453,untitled,2023.2.3,60.13807701205524,2024-01-30 12h49.58.197975 -0500,
3,"[0, 0.2]",None,,,,,0,13,13,13,,,,,1770.1113015001174,,,,,,,,,,,,,,,,,,,,,,,,,,,,,,,,,,,,,,,,,,,,,,,1770.0957167001907,1770.1113015001174,1770.1113015001174,1770.611220000079,1770.611220000079,1773.1112604001537,1773.1112604001537,1773.0952740001958,None,1,,,,,,,,,,,,,,,,,,,,,,,,,,nback75,001,2024-01-30_12h16.59.453,untitled,2023.2.3,60.13807701205524,2024-01-30 12h49.58.197975 -0500,
3,"[0, 0.2]",space,,,,,0,14,14,14,,,,,1773.1112604001537,,,,,,,,,,,,,,,,,,,,,,,,,,,,,,,,,,,,,,,,,,,,,,,1773.0958870002069,1773.1112604001537,1773.1112604001537,1773.6113121001981,1773.6113121001981,1776.1112679000944,1776.1112679000944,1776.0954494001344,space,1,0.4990517001133412,None,,,,,,,,,,,,,,,,,,,,,,,,nback75,001,2024-01-30_12h16.59.453,untitled,2023.2.3,60.13807701205524,2024-01-30 12h49.58.197975 -0500,
8,"[-0.2, -0.1]",None,,,,,0,15,15,15,,,,,1776.1112679000944,,,,,,,,,,,,,,,,,,,,,,,,,,,,,,,,,,,,,,,,,,,,,,,1776.096338600153,1776.1112679000944,1776.1112679000944,1776.6112992002163,1776.6112992002163,1779.1112140000332,1779.1112140000332,1779.0956896001007,None,1,,,,,,,,,,,,,,,,,,,,,,,,,,nback75,001,2024-01-30_12h16.59.453,untitled,2023.2.3,60.13807701205524,2024-01-30 12h49.58.197975 -0500,
1,"[-0.64, 0.4]",None,,,,,0,16,16,16,,,,,1779.1112140000332,,,,,,,,,,,,,,,,,,,,,,,,,,,,,,,,,,,,,,,,,,,,,,,1779.0967007,1779.1112140000332,1779.1112140000332,1779.6111245001666,1779.6111245001666,1782.1110180001706,1782.1110180001706,1782.095315300161,None,1,,,,,,,,,,,,,,,,,,,,,,,,,,nback75,001,2024-01-30_12h16.59.453,untitled,2023.2.3,60.13807701205524,2024-01-30 12h49.58.197975 -0500,
2,"[0.64, 0.4]",None,,,,,0,17,17,17,,,,,1782.1110180001706,,,,,,,,,,,,,,,,,,,,,,,,,,,,,,,,,,,,,,,,,,,,,,,1782.0962081002071,1782.1110180001706,1782.1110180001706,1782.6110539000947,1782.6110539000947,1785.1111862000544,1785.1111862000544,1785.0953035000712,None,1,,,,,,,,,,,,,,,,,,,,,,,,,,nback75,001,2024-01-30_12h16.59.453,untitled,2023.2.3,60.13807701205524,2024-01-30 12h49.58.197975 -0500,
4,"[-0.2, 0.1]",None,,,,,0,18,18,18,,,,,1785.1111862000544,,,,,,,,,,,,,,,,,,,,,,,,,,,,,,,,,,,,,,,,,,,,,,,1785.0960381000768,1785.1111862000544,1785.1111862000544,1785.6111207001377,1785.6111207001377,1788.1109669001307,1788.1109669001307,1788.0952704001684,None,1,,,,,,,,,,,,,,,,,,,,,,,,,,nback75,001,2024-01-30_12h16.59.453,untitled,2023.2.3,60.13807701205524,2024-01-30 12h49.58.197975 -0500,
4,"[-0.2, 0.1]",space,,,,,0,19,19,19,,,,,1788.1109669001307,,,,,,,,,,,,,,,,,,,,,,,,,,,,,,,,,,,,,,,,,,,,,,,1788.0960694001988,1788.1109669001307,1788.1109669001307,1788.6114996001124,1788.6114996001124,1791.110960500082,1791.110960500082,1791.0952497001272,space,1,0.5012781999539584,None,,,,,,,,,,,,,,,,,,,,,,,,nback75,001,2024-01-30_12h16.59.453,untitled,2023.2.3,60.13807701205524,2024-01-30 12h49.58.197975 -0500,
8,"[-0.2, -0.1]",None,,,,,0,20,20,20,,,,,1791.110960500082,,,,,,,,,,,,,,,,,,,,,,,,,,,,,,,,,,,,,,,,,,,,,,,1791.0960757001303,1791.110960500082,1791.110960500082,1791.6109345001169,1791.6109345001169,1794.1109882001765,1794.1109882001765,1794.0953660001978,None,1,,,,,,,,,,,,,,,,,,,,,,,,,,nback75,001,2024-01-30_12h16.59.453,untitled,2023.2.3,60.13807701205524,2024-01-30 12h49.58.197975 -0500,
5,"[0.2, 0.1]",None,,,,,0,21,21,21,,,,,1794.1109882001765,,,,,,,,,,,,,,,,,,,,,,,,,,,,,,,,,,,,,,,,,,,,,,,1794.0961902001873,1794.1109882001765,1794.1109882001765,1794.6109522001352,1794.6109522001352,1797.110776600195,1797.110776600195,1797.095269100042,None,1,,,,,,,,,,,,,,,,,,,,,,,,,,nback75,001,2024-01-30_12h16.59.453,untitled,2023.2.3,60.13807701205524,2024-01-30 12h49.58.197975 -0500,
5,"[0.2, 0.1]",space,,,,,0,22,22,22,,,,,1797.110776600195,,,,,,,,,,,,,,,,,,,,,,,,,,,,,,,,,,,,,,,,,,,,,,,1797.0961253000423,1797.110776600195,1797.110776600195,1797.6110167000443,1797.6110167000443,1800.1108443001285,1800.1108443001285,1800.095237800153,space,1,0.3933248999528587,None,,,,,,,,,,,,,,,,,,,,,,,,nback75,001,2024-01-30_12h16.59.453,untitled,2023.2.3,60.13807701205524,2024-01-30 12h49.58.197975 -0500,
1,"[-0.64, 0.4]",None,,,,,0,23,23,23,,,,,1800.1108443001285,,,,,,,,,,,,,,,,,,,,,,,,,,,,,,,,,,,,,,,,,,,,,,,1800.0961140000727,1800.1108443001285,1800.1108443001285,1800.6109661001246,1800.6109661001246,1803.1108413001057,1803.1108413001057,1803.0948769000825,None,1,,,,,,,,,,,,,,,,,,,,,,,,,,nback75,001,2024-01-30_12h16.59.453,untitled,2023.2.3,60.13807701205524,2024-01-30 12h49.58.197975 -0500,
3,"[0, 0.2]",None,,,,,0,24,24,24,,,,,1803.1108413001057,,,,,,,,,,,,,,,,,,,,,,,,,,,,,,,,,,,,,,,,,,,,,,,1803.0955986001063,1803.1108413001057,1803.1108413001057,1803.610666600056,1803.610666600056,1806.1107576000504,1806.1107576000504,1806.095055000158,None,1,,,,,,,,,,,,,,,,,,,,,,,,,,nback75,001,2024-01-30_12h16.59.453,untitled,2023.2.3,60.13807701205524,2024-01-30 12h49.58.197975 -0500,
6,"[-0.3, 0]",None,,,,,0,25,25,25,,,,,1806.1107576000504,,,,,,,,,,,,,,,,,,,,,,,,,,,,,,,,,,,,,,,,,,,,,,,1806.0958337001503,1806.1107576000504,1806.1107576000504,1806.610901000211,1806.610901000211,1809.1107668001205,1809.1107668001205,1809.0949971000664,None,1,,,,,,,,,,,,,,,,,,,,,,,,,,nback75,001,2024-01-30_12h16.59.453,untitled,2023.2.3,60.13807701205524,2024-01-30 12h49.58.197975 -0500,
1,"[-0.64, 0.4]",None,,,,,0,26,26,26,,,,,1809.1107668001205,,,,,,,,,,,,,,,,,,,,,,,,,,,,,,,,,,,,,,,,,,,,,,,1809.0958586002234,1809.1107668001205,1809.1107668001205,1809.6106676000636,1809.6106676000636,1812.1105944002047,1812.1105944002047,1812.0949770000298,None,1,,,,,,,,,,,,,,,,,,,,,,,,,,nback75,001,2024-01-30_12h16.59.453,untitled,2023.2.3,60.13807701205524,2024-01-30 12h49.58.197975 -0500,
1,"[-0.64, 0.4]",space,,,,,0,27,27,27,,,,,1812.1105944002047,,,,,,,,,,,,,,,,,,,,,,,,,,,,,,,,,,,,,,,,,,,,,,,1812.0957017000765,1812.1105944002047,1812.1105944002047,1812.6105821002275,1812.6105821002275,1815.1104143999983,1815.1104143999983,1815.0945137001108,space,1,0.47372280014678836,None,,,,,,,,,,,,,,,,,,,,,,,,nback75,001,2024-01-30_12h16.59.453,untitled,2023.2.3,60.13807701205524,2024-01-30 12h49.58.197975 -0500,
1,"[-0.64, 0.4]",space,,,,,0,28,28,28,,,,,1815.1104143999983,,,,,,,,,,,,,,,,,,,,,,,,,,,,,,,,,,,,,,,,,,,,,,,1815.0952612000983,1815.1104143999983,1815.1104143999983,1815.6104373000562,1815.6104373000562,1818.110463500023,1818.110463500023,1818.09487790009,space,1,0.5598971999716014,None,,,,,,,,,,,,,,,,,,,,,,,,nback75,001,2024-01-30_12h16.59.453,untitled,2023.2.3,60.13807701205524,2024-01-30 12h49.58.197975 -0500,
3,"[0, 0.2]",None,,,,,0,29,29,29,,,,,1818.110463500023,,,,,,,,,,,,,,,,,,,,,,,,,,,,,,,,,,,,,,,,,,,,,,,1818.0959496002179,1818.110463500023,1818.110463500023,1818.6105240001343,1818.6105240001343,1821.1106654000469,1821.1106654000469,1821.0950159002095,None,1,,,,,,,,,,,,,,,,,,,,,,,,,,nback75,001,2024-01-30_12h16.59.453,untitled,2023.2.3,60.13807701205524,2024-01-30 12h49.58.197975 -0500,
12,"[0.64, -0.4]",None,,,,,0,30,30,30,,,,,1821.1106654000469,,,,,,,,,,,,,,,,,,,,,,,,,,,,,,,,,,,,,,,,,,,,,,,1821.0958531000651,1821.1106654000469,1821.1106654000469,1821.6105130000506,1821.6105130000506,1824.1104203001596,1824.1104203001596,1824.0946360002272,None,1,,,,,,,,,,,,,,,,,,,,,,,,,,nback75,001,2024-01-30_12h16.59.453,untitled,2023.2.3,60.13807701205524,2024-01-30 12h49.58.197975 -0500,
12,"[0.64, -0.4]",space,,,,,0,31,31,31,,,,,1824.1104203001596,,,,,,,,,,,,,,,,,,,,,,,,,,,,,,,,,,,,,,,,,,,,,,,1824.0955405000132,1824.1104203001596,1824.1104203001596,1824.610481900163,1824.610481900163,1827.1103125000373,1827.1103125000373,1827.094727100106,space,1,0.3876356000546366,None,,,,,,,,,,,,,,,,,,,,,,,,nback75,001,2024-01-30_12h16.59.453,untitled,2023.2.3,60.13807701205524,2024-01-30 12h49.58.197975 -0500,
2,"[0.64, 0.4]",None,,,,,0,32,32,32,,,,,1827.1103125000373,,,,,,,,,,,,,,,,,,,,,,,,,,,,,,,,,,,,,,,,,,,,,,,1827.0957320001908,1827.1103125000373,1827.1103125000373,1827.6102173000108,1827.6102173000108,1830.110540600028,1830.110540600028,1830.0948331002146,None,1,,,,,,,,,,,,,,,,,,,,,,,,,,nback75,001,2024-01-30_12h16.59.453,untitled,2023.2.3,60.13807701205524,2024-01-30 12h49.58.197975 -0500,
1,"[-0.64, 0.4]",None,,,,,0,33,33,33,,,,,1830.110540600028,,,,,,,,,,,,,,,,,,,,,,,,,,,,,,,,,,,,,,,,,,,,,,,1830.0956727000885,1830.110540600028,1830.110540600028,1830.6103443000466,1830.6103443000466,1833.1100600000937,1833.1100600000937,1833.0942403001245,None,1,,,,,,,,,,,,,,,,,,,,,,,,,,nback75,001,2024-01-30_12h16.59.453,untitled,2023.2.3,60.13807701205524,2024-01-30 12h49.58.197975 -0500,
7,"[0.3, 0]",None,,,,,0,34,34,34,,,,,1833.1100600000937,,,,,,,,,,,,,,,,,,,,,,,,,,,,,,,,,,,,,,,,,,,,,,,1833.094825200038,1833.1100600000937,1833.1100600000937,1833.6102060000412,1833.6102060000412,1836.1103241001256,1836.1103241001256,1836.0946281000506,None,1,,,,,,,,,,,,,,,,,,,,,,,,,,nback75,001,2024-01-30_12h16.59.453,untitled,2023.2.3,60.13807701205524,2024-01-30 12h49.58.197975 -0500,
7,"[0.3, 0]",space,,,,,0,35,35,35,,,,,1836.1103241001256,,,,,,,,,,,,,,,,,,,,,,,,,,,,,,,,,,,,,,,,,,,,,,,1836.095426700078,1836.1103241001256,1836.1103241001256,1836.6102584002074,1836.6102584002074,1839.1102515000384,1839.1102515000384,1839.094366100151,space,1,0.44015349983237684,None,,,,,,,,,,,,,,,,,,,,,,,,nback75,001,2024-01-30_12h16.59.453,untitled,2023.2.3,60.13807701205524,2024-01-30 12h49.58.197975 -0500,
11,"[-0.64, -0.4]",None,,,,,0,36,36,36,,,,,1839.1102515000384,,,,,,,,,,,,,,,,,,,,,,,,,,,,,,,,,,,,,,,,,,,,,,,1839.0952140002046,1839.1102515000384,1839.1102515000384,1839.6099690000992,1839.6099690000992,1842.1100553001743,1842.1100553001743,1842.0941269001924,None,1,,,,,,,,,,,,,,,,,,,,,,,,,,nback75,001,2024-01-30_12h16.59.453,untitled,2023.2.3,60.13807701205524,2024-01-30 12h49.58.197975 -0500,
2,"[0.64, 0.4]",None,,,,,0,37,37,37,,,,,1842.1100553001743,,,,,,,,,,,,,,,,,,,,,,,,,,,,,,,,,,,,,,,,,,,,,,,1842.09480800014,1842.1100553001743,1842.1100553001743,1842.6100908000953,1842.6100908000953,1845.1099643001799,1845.1099643001799,1845.0942936001811,None,1,,,,,,,,,,,,,,,,,,,,,,,,,,nback75,001,2024-01-30_12h16.59.453,untitled,2023.2.3,60.13807701205524,2024-01-30 12h49.58.197975 -0500,
6,"[-0.3, 0]",None,,,,,0,38,38,38,,,,,1845.1099643001799,,,,,,,,,,,,,,,,,,,,,,,,,,,,,,,,,,,,,,,,,,,,,,,1845.0950891000684,1845.1099643001799,1845.1099643001799,1845.6100676001515,1845.6100676001515,1848.110082600033,1848.110082600033,1848.0945127001032,None,1,,,,,,,,,,,,,,,,,,,,,,,,,,nback75,001,2024-01-30_12h16.59.453,untitled,2023.2.3,60.13807701205524,2024-01-30 12h49.58.197975 -0500,
10,"[0, -0.2]",None,,,,,0,39,39,39,,,,,1848.110082600033,,,,,,,,,,,,,,,,,,,,,,,,,,,,,,,,,,,,,,,,,,,,,,,1848.0952911002096,1848.110082600033,1848.110082600033,1848.6100145000964,1848.6100145000964,1851.1101171001792,1851.1101171001792,1851.0942177001853,None,1,,,,,,,,,,,,,,,,,,,,,,,,,,nback75,001,2024-01-30_12h16.59.453,untitled,2023.2.3,60.13807701205524,2024-01-30 12h49.58.197975 -0500,
,,,,,,,,,,,,,,,,,,,,,,,,,,,,,,,,,,,,,,,,,,,,,,,,,,,,,,,,,,,,,,,,,,,,,,,,,,1851.0946933000814,1851.1101171001792,1851.1101171001792,1879.7611645001452,space,28.6418921998702,None,,,,,,,,,,,,,,,,,nback75,001,2024-01-30_12h16.59.453,untitled,2023.2.3,60.13807701205524,2024-01-30 12h49.58.197975 -0500,
,"[0.2, 0.1]",None,,,,,,,,,0,0,0,0,1880.7760219001211,,,,,,,,,,,,,,,,,,,,,,,,1879.7612112001516,1879.7759689001832,1880.7760219001211,1880.7602393000852,,,,,,,,,,,,,,,,,,,,,,,,,,,,,,,,,,,,,,,1880.769173500128,1880.7760219001211,1880.7760219001211,1881.2761460000183,1881.2761460000183,1883.7760091000237,1883.7760091000237,1883.760202200152,None,1,,,,,,,nback75,001,2024-01-30_12h16.59.453,untitled,2023.2.3,60.13807701205524,2024-01-30 12h49.58.197975 -0500,
,"[0.64, 0.4]",None,,,,,,,,,0,1,1,1,1883.7760091000237,,,,,,,,,,,,,,,,,,,,,,,,,,,,,,,,,,,,,,,,,,,,,,,,,,,,,,,,,,,,,,,,,,1883.7611776001286,1883.7760091000237,1883.7760091000237,1884.2761303000152,1884.2761303000152,1886.7759750001132,1886.7759750001132,1886.7600611001253,None,1,,,,,,,nback75,001,2024-01-30_12h16.59.453,untitled,2023.2.3,60.13807701205524,2024-01-30 12h49.58.197975 -0500,
,"[-0.3, 0]",None,,,,,,,,,0,2,2,2,1886.7759750001132,,,,,,,,,,,,,,,,,,,,,,,,,,,,,,,,,,,,,,,,,,,,,,,,,,,,,,,,,,,,,,,,,,1886.7606313000433,1886.7759750001132,1886.7759750001132,1887.2761521001812,1887.2761521001812,1889.7760151000693,1889.7760151000693,1889.7600563000888,None,1,,,,,,,nback75,001,2024-01-30_12h16.59.453,untitled,2023.2.3,60.13807701205524,2024-01-30 12h49.58.197975 -0500,
,"[0.2, -0.1]",None,,,,,,,,,0,3,3,3,1889.7760151000693,,,,,,,,,,,,,,,,,,,,,,,,,,,,,,,,,,,,,,,,,,,,,,,,,,,,,,,,,,,,,,,,,,1889.7607800001279,1889.7760151000693,1889.7760151000693,1890.2759626000188,1890.2759626000188,1892.7758595000487,1892.7758595000487,1892.759985400131,None,1,,,,,,,nback75,001,2024-01-30_12h16.59.453,untitled,2023.2.3,60.13807701205524,2024-01-30 12h49.58.197975 -0500,
,"[0, 0.2]",None,,,,,,,,,0,4,4,4,1892.7758595000487,,,,,,,,,,,,,,,,,,,,,,,,,,,,,,,,,,,,,,,,,,,,,,,,,,,,,,,,,,,,,,,,,,1892.760767800035,1892.7758595000487,1892.7758595000487,1893.275866100099,1893.275866100099,1895.7757732002065,1895.7757732002065,1895.7599436000455,None,1,,,,,,,nback75,001,2024-01-30_12h16.59.453,untitled,2023.2.3,60.13807701205524,2024-01-30 12h49.58.197975 -0500,
,"[0.2, -0.1]",space,,,,,,,,,0,5,5,5,1895.7757732002065,,,,,,,,,,,,,,,,,,,,,,,,,,,,,,,,,,,,,,,,,,,,,,,,,,,,,,,,,,,,,,,,,,1895.7606230000965,1895.7757732002065,1895.7757732002065,1896.275925300084,1896.275925300084,1898.7758457001764,1898.7758457001764,1898.7599379001185,space,1,0.5010036998428404,None,,,,,nback75,001,2024-01-30_12h16.59.453,untitled,2023.2.3,60.13807701205524,2024-01-30 12h49.58.197975 -0500,
,"[0, -0.2]",None,,,,,,,,,0,6,6,6,1898.7758457001764,,,,,,,,,,,,,,,,,,,,,,,,,,,,,,,,,,,,,,,,,,,,,,,,,,,,,,,,,,,,,,,,,,1898.7609436002094,1898.7758457001764,1898.7758457001764,1899.2760259001516,1899.2760259001516,1901.7757465001196,1901.7757465001196,1901.7597861001268,None,1,,,,,,,nback75,001,2024-01-30_12h16.59.453,untitled,2023.2.3,60.13807701205524,2024-01-30 12h49.58.197975 -0500,
,"[0.64, -0.4]",None,,,,,,,,,0,7,7,7,1901.7757465001196,,,,,,,,,,,,,,,,,,,,,,,,,,,,,,,,,,,,,,,,,,,,,,,,,,,,,,,,,,,,,,,,,,1901.7604357001837,1901.7757465001196,1901.7757465001196,1902.2757476000115,1902.2757476000115,1904.7756294000428,1904.7756294000428,1904.7598145001102,None,1,,,,,,,nback75,001,2024-01-30_12h16.59.453,untitled,2023.2.3,60.13807701205524,2024-01-30 12h49.58.197975 -0500,
,"[0.3, 0]",None,,,,,,,,,0,8,8,8,1904.7756294000428,,,,,,,,,,,,,,,,,,,,,,,,,,,,,,,,,,,,,,,,,,,,,,,,,,,,,,,,,,,,,,,,,,1904.760488,1904.7756294000428,1904.7756294000428,1905.2756239001174,1905.2756239001174,1907.775527200196,1907.775527200196,1907.7593563001137,None,1,,,,,,,nback75,001,2024-01-30_12h16.59.453,untitled,2023.2.3,60.13807701205524,2024-01-30 12h49.58.197975 -0500,
,"[0.64, -0.4]",space,,,,,,,,,0,9,9,9,1907.775527200196,,,,,,,,,,,,,,,,,,,,,,,,,,,,,,,,,,,,,,,,,,,,,,,,,,,,,,,,,,,,,,,,,,1907.7598860000726,1907.775527200196,1907.775527200196,1908.2757279002108,1908.2757279002108,1910.7755872001871,1910.7755872001871,1910.7591952001676,space,1,0.3428523000329733,None,,,,,nback75,001,2024-01-30_12h16.59.453,untitled,2023.2.3,60.13807701205524,2024-01-30 12h49.58.197975 -0500,
,"[-0.64, 0.4]",None,,,,,,,,,0,10,10,10,1910.7755872001871,,,,,,,,,,,,,,,,,,,,,,,,,,,,,,,,,,,,,,,,,,,,,,,,,,,,,,,,,,,,,,,,,,1910.759589600144,1910.7755872001871,1910.7755872001871,1911.275676800171,1911.275676800171,1913.7754891000222,1913.7754891000222,1913.7595056002028,None,1,,,,,,,nback75,001,2024-01-30_12h16.59.453,untitled,2023.2.3,60.13807701205524,2024-01-30 12h49.58.197975 -0500,
,"[0.2, 0.1]",None,,,,,,,,,0,11,11,11,1913.7754891000222,,,,,,,,,,,,,,,,,,,,,,,,,,,,,,,,,,,,,,,,,,,,,,,,,,,,,,,,,,,,,,,,,,1913.7601925001945,1913.7754891000222,1913.7754891000222,1914.2754888001364,1914.2754888001364,1916.7755216001533,1916.7755216001533,1916.7599932001904,space,0,1.0443549999035895,None,,,,,nback75,001,2024-01-30_12h16.59.453,untitled,2023.2.3,60.13807701205524,2024-01-30 12h49.58.197975 -0500,
,"[0.3, 0]",None,,,,,,,,,0,12,12,12,1916.7755216001533,,,,,,,,,,,,,,,,,,,,,,,,,,,,,,,,,,,,,,,,,,,,,,,,,,,,,,,,,,,,,,,,,,1916.7610897000413,1916.7755216001533,1916.7755216001533,1917.275640600128,1917.275640600128,1919.7753395000473,1919.7753395000473,1919.7599031000864,None,1,,,,,,,nback75,001,2024-01-30_12h16.59.453,untitled,2023.2.3,60.13807701205524,2024-01-30 12h49.58.197975 -0500,
,"[0.2, 0.1]",space,,,,,,,,,0,13,13,13,1919.7753395000473,,,,,,,,,,,,,,,,,,,,,,,,,,,,,,,,,,,,,,,,,,,,,,,,,,,,,,,,,,,,,,,,,,1919.7607917001005,1919.7753395000473,1919.7753395000473,1920.2753870000597,1920.2753870000597,1922.7751378000248,1922.7751378000248,1922.7589808001649,None,0,,,,,,,nback75,001,2024-01-30_12h16.59.453,untitled,2023.2.3,60.13807701205524,2024-01-30 12h49.58.197975 -0500,
,"[-0.3, 0]",None,,,,,,,,,0,14,14,14,1922.7751378000248,,,,,,,,,,,,,,,,,,,,,,,,,,,,,,,,,,,,,,,,,,,,,,,,,,,,,,,,,,,,,,,,,,1922.7593033001758,1922.7751378000248,1922.7751378000248,1923.2752708001062,1923.2752708001062,1925.7752431000117,1925.7752431000117,1925.7595246001147,None,1,,,,,,,nback75,001,2024-01-30_12h16.59.453,untitled,2023.2.3,60.13807701205524,2024-01-30 12h49.58.197975 -0500,
,"[0, 0.2]",None,,,,,,,,,0,15,15,15,1925.7752431000117,,,,,,,,,,,,,,,,,,,,,,,,,,,,,,,,,,,,,,,,,,,,,,,,,,,,,,,,,,,,,,,,,,1925.7602844000794,1925.7752431000117,1925.7752431000117,1926.2753965000156,1926.2753965000156,1928.7752252002247,1928.7752252002247,1928.7592910001986,None,1,,,,,,,nback75,001,2024-01-30_12h16.59.453,untitled,2023.2.3,60.13807701205524,2024-01-30 12h49.58.197975 -0500,
,"[-0.3, 0]",space,,,,,,,,,0,16,16,16,1928.7752252002247,,,,,,,,,,,,,,,,,,,,,,,,,,,,,,,,,,,,,,,,,,,,,,,,,,,,,,,,,,,,,,,,,,1928.7599508001003,1928.7752252002247,1928.7752252002247,1929.2754045000765,1929.2754045000765,1931.7752035001758,1931.7752035001758,1931.7597189000808,None,0,,,,,,,nback75,001,2024-01-30_12h16.59.453,untitled,2023.2.3,60.13807701205524,2024-01-30 12h49.58.197975 -0500,
,"[-0.64, -0.4]",None,,,,,,,,,0,17,17,17,1931.7752035001758,,,,,,,,,,,,,,,,,,,,,,,,,,,,,,,,,,,,,,,,,,,,,,,,,,,,,,,,,,,,,,,,,,1931.76049110014,1931.7752035001758,1931.7752035001758,1932.2752724001184,1932.2752724001184,1934.7752474001609,1934.7752474001609,1934.7594254000578,None,1,,,,,,,nback75,001,2024-01-30_12h16.59.453,untitled,2023.2.3,60.13807701205524,2024-01-30 12h49.58.197975 -0500,
,"[-0.2, -0.1]",None,,,,,,,,,0,18,18,18,1934.7752474001609,,,,,,,,,,,,,,,,,,,,,,,,,,,,,,,,,,,,,,,,,,,,,,,,,,,,,,,,,,,,,,,,,,1934.7602554000914,1934.7752474001609,1934.7752474001609,1935.2751517000142,1935.2751517000142,1937.7751827000175,1937.7751827000175,1937.7592309000902,None,1,,,,,,,nback75,001,2024-01-30_12h16.59.453,untitled,2023.2.3,60.13807701205524,2024-01-30 12h49.58.197975 -0500,
,"[0.2, -0.1]",None,,,,,,,,,0,19,19,19,1937.7751827000175,,,,,,,,,,,,,,,,,,,,,,,,,,,,,,,,,,,,,,,,,,,,,,,,,,,,,,,,,,,,,,,,,,1937.7599120000377,1937.7751827000175,1937.7751827000175,1938.275244000135,1938.275244000135,1940.7751563000493,1940.7751563000493,1940.7594865001738,None,1,,,,,,,nback75,001,2024-01-30_12h16.59.453,untitled,2023.2.3,60.13807701205524,2024-01-30 12h49.58.197975 -0500,
,"[0.2, -0.1]",None,,,,,,,,,0,20,20,20,1940.7751563000493,,,,,,,,,,,,,,,,,,,,,,,,,,,,,,,,,,,,,,,,,,,,,,,,,,,,,,,,,,,,,,,,,,1940.7602832000703,1940.7751563000493,1940.7751563000493,1941.2751164000947,1941.2751164000947,1943.7750605000183,1943.7750605000183,1943.7593482001685,None,1,,,,,,,nback75,001,2024-01-30_12h16.59.453,untitled,2023.2.3,60.13807701205524,2024-01-30 12h49.58.197975 -0500,
,"[-0.64, 0.4]",None,,,,,,,,,0,21,21,21,1943.7750605000183,,,,,,,,,,,,,,,,,,,,,,,,,,,,,,,,,,,,,,,,,,,,,,,,,,,,,,,,,,,,,,,,,,1943.7601916000713,1943.7750605000183,1943.7750605000183,1944.275133000221,1944.275133000221,1946.7747568001505,1946.7747568001505,1946.7587401000783,None,1,,,,,,,nback75,001,2024-01-30_12h16.59.453,untitled,2023.2.3,60.13807701205524,2024-01-30 12h49.58.197975 -0500,
,"[0, 0.2]",None,,,,,,,,,0,22,22,22,1946.7747568001505,,,,,,,,,,,,,,,,,,,,,,,,,,,,,,,,,,,,,,,,,,,,,,,,,,,,,,,,,,,,,,,,,,1946.7590537001379,1946.7747568001505,1946.7747568001505,1947.2750480000395,1947.2750480000395,1949.7749437000602,1949.7749437000602,1949.75912780012,None,1,,,,,,,nback75,001,2024-01-30_12h16.59.453,untitled,2023.2.3,60.13807701205524,2024-01-30 12h49.58.197975 -0500,
,"[0.64, -0.4]",None,,,,,,,,,0,23,23,23,1949.7749437000602,,,,,,,,,,,,,,,,,,,,,,,,,,,,,,,,,,,,,,,,,,,,,,,,,,,,,,,,,,,,,,,,,,1949.7598730002064,1949.7749437000602,1949.7749437000602,1950.274908900028,1950.274908900028,1952.7749206000008,1952.7749206000008,1952.7590996001381,None,1,,,,,,,nback75,001,2024-01-30_12h16.59.453,untitled,2023.2.3,60.13807701205524,2024-01-30 12h49.58.197975 -0500,
,"[0, 0.2]",space,,,,,,,,,0,24,24,24,1952.7749206000008,,,,,,,,,,,,,,,,,,,,,,,,,,,,,,,,,,,,,,,,,,,,,,,,,,,,,,,,,,,,,,,,,,1952.7598280000966,1952.7749206000008,1952.7749206000008,1953.2747067001183,1953.2747067001183,1955.7747110000346,1955.7747110000346,1955.759242300177,space,1,0.4337243000045419,None,,,,,nback75,001,2024-01-30_12h16.59.453,untitled,2023.2.3,60.13807701205524,2024-01-30 12h49.58.197975 -0500,
,"[-0.2, 0.1]",None,,,,,,,,,0,25,25,25,1955.7747110000346,,,,,,,,,,,,,,,,,,,,,,,,,,,,,,,,,,,,,,,,,,,,,,,,,,,,,,,,,,,,,,,,,,1955.7600703001954,1955.7747110000346,1955.7747110000346,1956.2749336000998,1956.2749336000998,1958.7747220001183,1958.7747220001183,1958.7588294001762,None,1,,,,,,,nback75,001,2024-01-30_12h16.59.453,untitled,2023.2.3,60.13807701205524,2024-01-30 12h49.58.197975 -0500,
,"[0.3, 0]",None,,,,,,,,,0,26,26,26,1958.7747220001183,,,,,,,,,,,,,,,,,,,,,,,,,,,,,,,,,,,,,,,,,,,,,,,,,,,,,,,,,,,,,,,,,,1958.7595358002,1958.7747220001183,1958.7747220001183,1959.2748059001751,1959.2748059001751,1961.7747751001734,1961.7747751001734,1961.7589253000915,None,1,,,,,,,nback75,001,2024-01-30_12h16.59.453,untitled,2023.2.3,60.13807701205524,2024-01-30 12h49.58.197975 -0500,
,"[-0.2, 0.1]",space,,,,,,,,,0,27,27,27,1961.7747751001734,,,,,,,,,,,,,,,,,,,,,,,,,,,,,,,,,,,,,,,,,,,,,,,,,,,,,,,,,,,,,,,,,,1961.7596998000517,1961.7747751001734,1961.7747751001734,1962.2748897001147,1962.2748897001147,1964.7744817000348,1964.7744817000348,1964.759112900123,space,1,0.41359999985434115,None,,,,,nback75,001,2024-01-30_12h16.59.453,untitled,2023.2.3,60.13807701205524,2024-01-30 12h49.58.197975 -0500,
,"[-0.2, 0.1]",None,,,,,,,,,0,28,28,28,1964.7744817000348,,,,,,,,,,,,,,,,,,,,,,,,,,,,,,,,,,,,,,,,,,,,,,,,,,,,,,,,,,,,,,,,,,1964.7600593001116,1964.7744817000348,1964.7744817000348,1965.2745522002224,1965.2745522002224,1967.774724900024,1967.774724900024,1967.7590887001716,space,0,1.771089900052175,None,,,,,nback75,001,2024-01-30_12h16.59.453,untitled,2023.2.3,60.13807701205524,2024-01-30 12h49.58.197975 -0500,
,"[0.2, 0.1]",None,,,,,,,,,0,29,29,29,1967.774724900024,,,,,,,,,,,,,,,,,,,,,,,,,,,,,,,,,,,,,,,,,,,,,,,,,,,,,,,,,,,,,,,,,,1967.7600888002198,1967.774724900024,1967.774724900024,1968.2744071001653,1968.2744071001653,1970.7745476001874,1970.7745476001874,1970.758746800013,None,1,,,,,,,nback75,001,2024-01-30_12h16.59.453,untitled,2023.2.3,60.13807701205524,2024-01-30 12h49.58.197975 -0500,
,"[-0.64, -0.4]",None,,,,,,,,,0,30,30,30,1970.7745476001874,,,,,,,,,,,,,,,,,,,,,,,,,,,,,,,,,,,,,,,,,,,,,,,,,,,,,,,,,,,,,,,,,,1970.7594944001175,1970.7745476001874,1970.7745476001874,1971.2743390002288,1971.2743390002288,1973.77450470021,1973.77450470021,1973.7587343000341,None,1,,,,,,,nback75,001,2024-01-30_12h16.59.453,untitled,2023.2.3,60.13807701205524,2024-01-30 12h49.58.197975 -0500,
,"[0, -0.2]",None,,,,,,,,,0,31,31,31,1973.77450470021,,,,,,,,,,,,,,,,,,,,,,,,,,,,,,,,,,,,,,,,,,,,,,,,,,,,,,,,,,,,,,,,,,1973.7596712000668,1973.77450470021,1973.77450470021,1974.2744788001291,1974.2744788001291,1976.7744335001335,1976.7744335001335,1976.7585289001,None,1,,,,,,,nback75,001,2024-01-30_12h16.59.453,untitled,2023.2.3,60.13807701205524,2024-01-30 12h49.58.197975 -0500,
,"[-0.64, -0.4]",space,,,,,,,,,0,32,32,32,1976.7744335001335,,,,,,,,,,,,,,,,,,,,,,,,,,,,,,,,,,,,,,,,,,,,,,,,,,,,,,,,,,,,,,,,,,1976.7592013000976,1976.7744335001335,1976.7744335001335,1977.2743564001285,1977.2743564001285,1979.7743553000037,1979.7743553000037,1979.7588523000013,space,1,0.46415609982796013,None,,,,,nback75,001,2024-01-30_12h16.59.453,untitled,2023.2.3,60.13807701205524,2024-01-30 12h49.58.197975 -0500,
,"[0.64, 0.4]",None,,,,,,,,,0,33,33,33,1979.7743553000037,,,,,,,,,,,,,,,,,,,,,,,,,,,,,,,,,,,,,,,,,,,,,,,,,,,,,,,,,,,,,,,,,,1979.75989570003,1979.7743553000037,1979.7743553000037,1980.2745906000491,1980.2745906000491,1982.7744177000131,1982.7744177000131,1982.7586325001903,None,1,,,,,,,nback75,001,2024-01-30_12h16.59.453,untitled,2023.2.3,60.13807701205524,2024-01-30 12h49.58.197975 -0500,
,"[-0.3, 0]",None,,,,,,,,,0,34,34,34,1982.7744177000131,,,,,,,,,,,,,,,,,,,,,,,,,,,,,,,,,,,,,,,,,,,,,,,,,,,,,,,,,,,,,,,,,,1982.7593987002037,1982.7744177000131,1982.7744177000131,1983.274222300155,1983.274222300155,1985.7741983002052,1985.7741983002052,1985.7584826000966,None,1,,,,,,,nback75,001,2024-01-30_12h16.59.453,untitled,2023.2.3,60.13807701205524,2024-01-30 12h49.58.197975 -0500,
,"[0.3, 0]",None,,,,,,,,,0,35,35,35,1985.7741983002052,,,,,,,,,,,,,,,,,,,,,,,,,,,,,,,,,,,,,,,,,,,,,,,,,,,,,,,,,,,,,,,,,,1985.7592861000448,1985.7741983002052,1985.7741983002052,1986.2741644000635,1986.2741644000635,1988.774197500199,1988.774197500199,1988.7585080000572,None,1,,,,,,,nback75,001,2024-01-30_12h16.59.453,untitled,2023.2.3,60.13807701205524,2024-01-30 12h49.58.197975 -0500,
,"[-0.3, 0]",space,,,,,,,,,0,36,36,36,1988.774197500199,,,,,,,,,,,,,,,,,,,,,,,,,,,,,,,,,,,,,,,,,,,,,,,,,,,,,,,,,,,,,,,,,,1988.7592647001147,1988.774197500199,1988.774197500199,1989.2742843001615,1989.2742843001615,1991.7740683001466,1991.7740683001466,1991.75823580008,space,1,0.5730111999437213,None,,,,,nback75,001,2024-01-30_12h16.59.453,untitled,2023.2.3,60.13807701205524,2024-01-30 12h49.58.197975 -0500,
,"[0, -0.2]",None,,,,,,,,,0,37,37,37,1991.7740683001466,,,,,,,,,,,,,,,,,,,,,,,,,,,,,,,,,,,,,,,,,,,,,,,,,,,,,,,,,,,,,,,,,,1991.7589863000903,1991.7740683001466,1991.7740683001466,1992.2740897000767,1992.2740897000767,1994.7742161001079,1994.7742161001079,1994.7582994000986,None,1,,,,,,,nback75,001,2024-01-30_12h16.59.453,untitled,2023.2.3,60.13807701205524,2024-01-30 12h49.58.197975 -0500,
,"[0.3, 0]",None,,,,,,,,,0,38,38,38,1994.7742161001079,,,,,,,,,,,,,,,,,,,,,,,,,,,,,,,,,,,,,,,,,,,,,,,,,,,,,,,,,,,,,,,,,,1994.759140800219,1994.7742161001079,1994.7742161001079,1995.2741471000481,1995.2741471000481,1997.7740778001025,1997.7740778001025,1997.7583531001583,None,1,,,,,,,nback75,001,2024-01-30_12h16.59.453,untitled,2023.2.3,60.13807701205524,2024-01-30 12h49.58.197975 -0500,
,"[0.2, 0.1]",None,,,,,,,,,0,39,39,39,1997.7740778001025,,,,,,,,,,,,,,,,,,,,,,,,,,,,,,,,,,,,,,,,,,,,,,,,,,,,,,,,,,,,,,,,,,1997.7595536001027,1997.7740778001025,1997.7740778001025,1998.2740202001296,1998.2740202001296,2000.7740679001436,2000.7740679001436,2000.7581426000688,None,1,,,,,,,nback75,001,2024-01-30_12h16.59.453,untitled,2023.2.3,60.13807701205524,2024-01-30 12h49.58.197975 -0500,
,,,,,,,,,,,,,,,,,,,,,,,,,,,,,,,,,,,,,,,,,,,,,,,,,,,,,,,,,,,,,,,,,,,,,,,,,,,,,,,,,,,,,,,,,,,,,2000.758519800147,2000.7740679001436,2003.773954700213,2003.758294200059,,,,,,,,
