square,location,corrAns,trials_0.thisRepN,trials_0.thisTrialN,trials_0.thisN,trials_0.thisIndex,trials_1.thisRepN,trials_1.thisTrialN,trials_1.thisN,trials_1.thisIndex,trials_2.thisRepN,trials_2.thisTrialN,trials_2.thisN,trials_2.thisIndex,thisRow.t,notes,Instructions.started,instructions.started,key_resp.started,inst_sq11.started,Instructions.stopped,key_resp.keys,key_resp.rt,key_resp.duration,All.started,sq_1.started,sq_2.started,sq_3.started,sq_4.started,sq_5.started,sq_6.started,sq_7.started,sq_8.started,sq_9.started,sq_10.started,sq_11.started,sq_12.started,All.stopped,Fixation.started,fixation_3.started,fixation_3.stopped,Fixation.stopped,N_back_0_Trial.started,target_square_0.started,response_0.started,fixation_0.started,target_square_0.stopped,fixation_0.stopped,N_back_0_Trial.stopped,response_0.keys,response_0.corr,response_0.rt,response_0.duration,Instructions_1.started,instructions_1.started,key_resp_1.started,Instructions_1.stopped,key_resp_1.keys,key_resp_1.rt,key_resp_1.duration,N_back_1_Trial.started,target_square_1.started,response_1.started,fixation_1.started,target_square_1.stopped,fixation_1.stopped,N_back_1_Trial.stopped,response_1.keys,response_1.corr,response_1.rt,response_1.duration,Instructions_2.started,instructions_2.started,key_resp_2.started,Instructions_2.stopped,key_resp_2.keys,key_resp_2.rt,key_resp_2.duration,N_back_2_trials.started,target_square_2.started,response_2.started,target_square_2.stopped,fixation_2.started,fixation_2.stopped,N_back_2_trials.stopped,response_2.keys,response_2.corr,response_2.rt,response_2.duration,End.started,thank_you.started,End.stopped,participant,session,date,expName,psychopyVersion,frameRate,expStart,Unnamed: 100
,,,,,,,,,,,,,,,,,0.0015701000083936,0.0043137000029673,0.0043137000029673,0.0043137000029673,11.800495600007707,space,11.78994750000129,None,,,,,,,,,,,,,,,,,,,,,,,,,,,,,,,,,,,,,,,,,,,,,,,,,,,,,,,,,,,,,,,,,,,,,nback46,1.0,2024-01-09_13h49.09.067,untitled,2023.2.3,59.92969048721344,2024-01-09 14h37.52.900746 -0500,
6.0,"[-0.3, 0]",None,0.0,0.0,0.0,0.0,,,,,,,,,13.819359600005557,,,,,,,,,,11.800524500009487,11.815919000000576,11.815919000000576,11.815919000000576,11.815919000000576,11.815919000000576,11.815919000000576,11.815919000000576,11.815919000000576,11.815919000000576,11.815919000000576,11.815919000000576,11.815919000000576,12.80006599999615,12.800092700010282,12.816151599996374,13.819359600005557,13.800365000002785,13.817477999997209,13.819359600005557,13.819359600005557,14.299327500004438,14.332487200008472,16.79920760000823,16.81607700001041,None,1.0,,,,,,,,,,,,,,,,,,,,,,,,,,,,,,,,,,,,,,,,,,nback46,1.0,2024-01-09_13h49.09.067,untitled,2023.2.3,59.92969048721344,2024-01-09 14h37.52.900746 -0500,
10.0,"[0, -0.2]",None,0.0,1.0,1.0,1.0,,,,,,,,,16.832755900002667,,,,,,,,,,,,,,,,,,,,,,,,,,,,16.81701780000003,16.832755900002667,16.832755900002667,17.299221399996895,17.33257389999926,19.799316800010278,19.81602670000575,None,1.0,,,,,,,,,,,,,,,,,,,,,,,,,,,,,,,,,,,,,,,,,,nback46,1.0,2024-01-09_13h49.09.067,untitled,2023.2.3,59.92969048721344,2024-01-09 14h37.52.900746 -0500,
11.0,"[-0.64, -0.4]",space,0.0,2.0,2.0,2.0,,,,,,,,,19.832551900006365,,,,,,,,,,,,,,,,,,,,,,,,,,,,19.81683239999984,19.832551900006365,19.832551900006365,20.29923289999715,20.33264280000003,22.79919430000882,22.81591000000481,space,1.0,0.3177588999969885,None,,,,,,,,,,,,,,,,,,,,,,,,,,,,,,,,,,,,,,,,nback46,1.0,2024-01-09_13h49.09.067,untitled,2023.2.3,59.92969048721344,2024-01-09 14h37.52.900746 -0500,
12.0,"[0.64, -0.4]",None,0.0,3.0,3.0,3.0,,,,,,,,,22.832394600001862,,,,,,,,,,,,,,,,,,,,,,,,,,,,22.817012300001807,22.832394600001862,22.832394600001862,23.31589260000328,23.33239830000093,25.81597979999788,25.81619710000814,None,1.0,,,,,,,,,,,,,,,,,,,,,,,,,,,,,,,,,,,,,,,,,,nback46,1.0,2024-01-09_13h49.09.067,untitled,2023.2.3,59.92969048721344,2024-01-09 14h37.52.900746 -0500,
1.0,"[-0.64, 0.4]",None,0.0,4.0,4.0,4.0,,,,,,,,,25.83255690000078,,,,,,,,,,,,,,,,,,,,,,,,,,,,25.81702800000494,25.83255690000078,25.83255690000078,26.29893699999957,26.3323742000066,28.799169699996128,28.815953600002103,None,1.0,,,,,,,,,,,,,,,,,,,,,,,,,,,,,,,,,,,,,,,,,,nback46,1.0,2024-01-09_13h49.09.067,untitled,2023.2.3,59.92969048721344,2024-01-09 14h37.52.900746 -0500,
1.0,"[-0.64, 0.4]",None,0.0,5.0,5.0,5.0,,,,,,,,,28.832322300004307,,,,,,,,,,,,,,,,,,,,,,,,,,,,28.81679740000982,28.832322300004307,28.832322300004307,29.315931400007685,29.332336200008285,31.815677400009008,31.81585189999896,None,1.0,,,,,,,,,,,,,,,,,,,,,,,,,,,,,,,,,,,,,,,,,,nback46,1.0,2024-01-09_13h49.09.067,untitled,2023.2.3,59.92969048721344,2024-01-09 14h37.52.900746 -0500,
4.0,"[-0.2, 0.1]",None,0.0,6.0,6.0,6.0,,,,,,,,,31.832283499999903,,,,,,,,,,,,,,,,,,,,,,,,,,,,31.81653820000065,31.832283499999903,31.832283499999903,32.315622399997665,32.332117600002675,34.815669700008584,34.81588799999736,None,1.0,,,,,,,,,,,,,,,,,,,,,,,,,,,,,,,,,,,,,,,,,,nback46,1.0,2024-01-09_13h49.09.067,untitled,2023.2.3,59.92969048721344,2024-01-09 14h37.52.900746 -0500,
5.0,"[0.2, 0.1]",None,0.0,7.0,7.0,7.0,,,,,,,,,34.83247390000906,,,,,,,,,,,,,,,,,,,,,,,,,,,,34.81666710000718,34.83247390000906,34.83247390000906,35.315702300009434,35.332195499999216,37.8156267000013,37.81581529999676,None,1.0,,,,,,,,,,,,,,,,,,,,,,,,,,,,,,,,,,,,,,,,,,nback46,1.0,2024-01-09_13h49.09.067,untitled,2023.2.3,59.92969048721344,2024-01-09 14h37.52.900746 -0500,
11.0,"[-0.64, -0.4]",space,0.0,8.0,8.0,8.0,,,,,,,,,37.832159800003865,,,,,,,,,,,,,,,,,,,,,,,,,,,,37.81656350000412,37.832159800003865,37.832159800003865,38.31547310001042,38.33224709999922,40.8155456000095,40.81572230000165,space,1.0,0.3136909000022569,None,,,,,,,,,,,,,,,,,,,,,,,,,,,,,,,,,,,,,,,,nback46,1.0,2024-01-09_13h49.09.067,untitled,2023.2.3,59.92969048721344,2024-01-09 14h37.52.900746 -0500,
9.0,"[0.2, -0.1]",None,0.0,9.0,9.0,9.0,,,,,,,,,40.832144300002255,,,,,,,,,,,,,,,,,,,,,,,,,,,,40.81663240000489,40.832144300002255,40.832144300002255,41.315488799999,41.332183400008944,43.815491200002725,43.81567789999826,None,1.0,,,,,,,,,,,,,,,,,,,,,,,,,,,,,,,,,,,,,,,,,,nback46,1.0,2024-01-09_13h49.09.067,untitled,2023.2.3,59.92969048721344,2024-01-09 14h37.52.900746 -0500,
8.0,"[-0.2, -0.1]",None,0.0,10.0,10.0,10.0,,,,,,,,,43.83213009999599,,,,,,,,,,,,,,,,,,,,,,,,,,,,43.81640900000639,43.83213009999599,43.83213009999599,44.31555690000823,44.33220689999871,46.81548220000696,46.8156597000052,None,1.0,,,,,,,,,,,,,,,,,,,,,,,,,,,,,,,,,,,,,,,,,,nback46,1.0,2024-01-09_13h49.09.067,untitled,2023.2.3,59.92969048721344,2024-01-09 14h37.52.900746 -0500,
9.0,"[0.2, -0.1]",None,0.0,11.0,11.0,11.0,,,,,,,,,46.83205050000106,,,,,,,,,,,,,,,,,,,,,,,,,,,,46.816342100006295,46.83205050000106,46.83205050000106,47.31531820000964,47.33208150000428,49.81531960000575,49.81549520000408,None,1.0,,,,,,,,,,,,,,,,,,,,,,,,,,,,,,,,,,,,,,,,,,nback46,1.0,2024-01-09_13h49.09.067,untitled,2023.2.3,59.92969048721344,2024-01-09 14h37.52.900746 -0500,
6.0,"[-0.3, 0]",None,0.0,12.0,12.0,12.0,,,,,,,,,49.83186550000392,,,,,,,,,,,,,,,,,,,,,,,,,,,,49.816205000010086,49.83186550000392,49.83186550000392,50.31525670000701,50.33190170000307,52.81532930000685,52.81550440000137,None,1.0,,,,,,,,,,,,,,,,,,,,,,,,,,,,,,,,,,,,,,,,,,nback46,1.0,2024-01-09_13h49.09.067,untitled,2023.2.3,59.92969048721344,2024-01-09 14h37.52.900746 -0500,
9.0,"[0.2, -0.1]",None,0.0,13.0,13.0,13.0,,,,,,,,,52.8321275000053,,,,,,,,,,,,,,,,,,,,,,,,,,,,52.81618320000416,52.8321275000053,52.8321275000053,53.3154205000028,53.33190420000756,55.81536330000381,55.81557259999681,None,1.0,,,,,,,,,,,,,,,,,,,,,,,,,,,,,,,,,,,,,,,,,,nback46,1.0,2024-01-09_13h49.09.067,untitled,2023.2.3,59.92969048721344,2024-01-09 14h37.52.900746 -0500,
7.0,"[0.3, 0]",None,0.0,14.0,14.0,14.0,,,,,,,,,55.83195269999851,,,,,,,,,,,,,,,,,,,,,,,,,,,,55.816421499999706,55.83195269999851,55.83195269999851,56.31547060000594,56.33187010000984,58.81534090000787,58.815520700009074,None,1.0,,,,,,,,,,,,,,,,,,,,,,,,,,,,,,,,,,,,,,,,,,nback46,1.0,2024-01-09_13h49.09.067,untitled,2023.2.3,59.92969048721344,2024-01-09 14h37.52.900746 -0500,
2.0,"[0.64, 0.4]",None,0.0,15.0,15.0,15.0,,,,,,,,,58.83189250000578,,,,,,,,,,,,,,,,,,,,,,,,,,,,58.81619730000966,58.83189250000578,58.83189250000578,59.315328900003806,59.33186230000865,61.81516379999812,61.81535190000432,None,1.0,,,,,,,,,,,,,,,,,,,,,,,,,,,,,,,,,,,,,,,,,,nback46,1.0,2024-01-09_13h49.09.067,untitled,2023.2.3,59.92969048721344,2024-01-09 14h37.52.900746 -0500,
2.0,"[0.64, 0.4]",None,0.0,16.0,16.0,16.0,,,,,,,,,61.83191449999868,,,,,,,,,,,,,,,,,,,,,,,,,,,,61.81607149999763,61.83191449999868,61.83191449999868,62.31523049999669,62.331744800001616,64.81514259999676,64.8153408000071,None,1.0,,,,,,,,,,,,,,,,,,,,,,,,,,,,,,,,,,,,,,,,,,nback46,1.0,2024-01-09_13h49.09.067,untitled,2023.2.3,59.92969048721344,2024-01-09 14h37.52.900746 -0500,
11.0,"[-0.64, -0.4]",space,0.0,17.0,17.0,17.0,,,,,,,,,64.8318125000078,,,,,,,,,,,,,,,,,,,,,,,,,,,,64.81612730000052,64.8318125000078,64.8318125000078,65.31532700000389,65.33173990000796,67.81507240000064,67.81524989999889,space,1.0,0.3882375999965006,None,,,,,,,,,,,,,,,,,,,,,,,,,,,,,,,,,,,,,,,,nback46,1.0,2024-01-09_13h49.09.067,untitled,2023.2.3,59.92969048721344,2024-01-09 14h37.52.900746 -0500,
11.0,"[-0.64, -0.4]",space,0.0,18.0,18.0,18.0,,,,,,,,,67.83173550000356,,,,,,,,,,,,,,,,,,,,,,,,,,,,67.81610930000897,67.83173550000356,67.83173550000356,68.31494890000613,68.33162710000761,70.81505900000047,70.81523390000802,space,1.0,0.3824719999975059,None,,,,,,,,,,,,,,,,,,,,,,,,,,,,,,,,,,,,,,,,nback46,1.0,2024-01-09_13h49.09.067,untitled,2023.2.3,59.92969048721344,2024-01-09 14h37.52.900746 -0500,
7.0,"[0.3, 0]",None,0.0,19.0,19.0,19.0,,,,,,,,,70.83167490000778,,,,,,,,,,,,,,,,,,,,,,,,,,,,70.81611939999857,70.83167490000778,70.83167490000778,71.31520160000946,71.33169059999636,73.8150358999992,73.81520939999609,None,1.0,,,,,,,,,,,,,,,,,,,,,,,,,,,,,,,,,,,,,,,,,,nback46,1.0,2024-01-09_13h49.09.067,untitled,2023.2.3,59.92969048721344,2024-01-09 14h37.52.900746 -0500,
3.0,"[0, 0.2]",None,0.0,20.0,20.0,20.0,,,,,,,,,73.83159650000744,,,,,,,,,,,,,,,,,,,,,,,,,,,,73.81588140000531,73.83159650000744,73.83159650000744,74.31496350000089,74.33175759999722,76.81485860000248,76.81500090000918,None,1.0,,,,,,,,,,,,,,,,,,,,,,,,,,,,,,,,,,,,,,,,,,nback46,1.0,2024-01-09_13h49.09.067,untitled,2023.2.3,59.92969048721344,2024-01-09 14h37.52.900746 -0500,
10.0,"[0, -0.2]",None,0.0,21.0,21.0,21.0,,,,,,,,,76.8314595999982,,,,,,,,,,,,,,,,,,,,,,,,,,,,76.81546800000069,76.8314595999982,76.8314595999982,77.3148896000057,77.33154630000354,79.81492669999716,79.81511510000564,None,1.0,,,,,,,,,,,,,,,,,,,,,,,,,,,,,,,,,,,,,,,,,,nback46,1.0,2024-01-09_13h49.09.067,untitled,2023.2.3,59.92969048721344,2024-01-09 14h37.52.900746 -0500,
1.0,"[-0.64, 0.4]",None,0.0,22.0,22.0,22.0,,,,,,,,,79.83157710000523,,,,,,,,,,,,,,,,,,,,,,,,,,,,79.81582380000327,79.83157710000523,79.83157710000523,80.31488449999597,80.33155950000219,82.81486559999757,82.81505109999853,None,1.0,,,,,,,,,,,,,,,,,,,,,,,,,,,,,,,,,,,,,,,,,,nback46,1.0,2024-01-09_13h49.09.067,untitled,2023.2.3,59.92969048721344,2024-01-09 14h37.52.900746 -0500,
2.0,"[0.64, 0.4]",None,0.0,23.0,23.0,23.0,,,,,,,,,82.83161400000972,,,,,,,,,,,,,,,,,,,,,,,,,,,,82.81579330000386,82.83161400000972,82.83161400000972,83.31495220000215,83.33151960000396,85.8148949000024,85.81508650000615,None,1.0,,,,,,,,,,,,,,,,,,,,,,,,,,,,,,,,,,,,,,,,,,nback46,1.0,2024-01-09_13h49.09.067,untitled,2023.2.3,59.92969048721344,2024-01-09 14h37.52.900746 -0500,
6.0,"[-0.3, 0]",None,0.0,24.0,24.0,24.0,,,,,,,,,85.83135469999979,,,,,,,,,,,,,,,,,,,,,,,,,,,,85.81573879999632,85.83135469999979,85.83135469999979,86.31488610000815,86.33140969999658,88.81480140000349,88.8149781000102,None,1.0,,,,,,,,,,,,,,,,,,,,,,,,,,,,,,,,,,,,,,,,,,nback46,1.0,2024-01-09_13h49.09.067,untitled,2023.2.3,59.92969048721344,2024-01-09 14h37.52.900746 -0500,
3.0,"[0, 0.2]",None,0.0,25.0,25.0,25.0,,,,,,,,,88.8314975000103,,,,,,,,,,,,,,,,,,,,,,,,,,,,88.81568500000867,88.8314975000103,88.8314975000103,89.31483780000417,89.33136560001003,91.81463110000186,91.8147994000028,None,1.0,,,,,,,,,,,,,,,,,,,,,,,,,,,,,,,,,,,,,,,,,,nback46,1.0,2024-01-09_13h49.09.067,untitled,2023.2.3,59.92969048721344,2024-01-09 14h37.52.900746 -0500,
11.0,"[-0.64, -0.4]",space,0.0,26.0,26.0,26.0,,,,,,,,,91.83163129999592,,,,,,,,,,,,,,,,,,,,,,,,,,,,91.81546730000991,91.83163129999592,91.83163129999592,92.31466610000643,92.33146070000656,94.81467550000524,94.81484520000232,space,1.0,0.3115393000043696,None,,,,,,,,,,,,,,,,,,,,,,,,,,,,,,,,,,,,,,,,nback46,1.0,2024-01-09_13h49.09.067,untitled,2023.2.3,59.92969048721344,2024-01-09 14h37.52.900746 -0500,
1.0,"[-0.64, 0.4]",None,0.0,27.0,27.0,27.0,,,,,,,,,94.83132949999708,,,,,,,,,,,,,,,,,,,,,,,,,,,,94.81567500000529,94.83132949999708,94.83132949999708,95.31474020000314,95.33121960000426,97.81454849999864,97.81474040000468,None,1.0,,,,,,,,,,,,,,,,,,,,,,,,,,,,,,,,,,,,,,,,,,nback46,1.0,2024-01-09_13h49.09.067,untitled,2023.2.3,59.92969048721344,2024-01-09 14h37.52.900746 -0500,
3.0,"[0, 0.2]",None,0.0,28.0,28.0,28.0,,,,,,,,,97.83128759999818,,,,,,,,,,,,,,,,,,,,,,,,,,,,97.81542670000636,97.83128759999818,97.83128759999818,98.31459619999804,98.33116020000308,100.81451450000168,100.8146800000104,None,1.0,,,,,,,,,,,,,,,,,,,,,,,,,,,,,,,,,,,,,,,,,,nback46,1.0,2024-01-09_13h49.09.067,untitled,2023.2.3,59.92969048721344,2024-01-09 14h37.52.900746 -0500,
9.0,"[0.2, -0.1]",None,0.0,29.0,29.0,29.0,,,,,,,,,100.83116739999969,,,,,,,,,,,,,,,,,,,,,,,,,,,,100.81530360000032,100.83116739999969,100.83116739999969,101.31458760000532,101.33118670000113,103.81446999999751,103.814641200006,None,1.0,,,,,,,,,,,,,,,,,,,,,,,,,,,,,,,,,,,,,,,,,,nback46,1.0,2024-01-09_13h49.09.067,untitled,2023.2.3,59.92969048721344,2024-01-09 14h37.52.900746 -0500,
8.0,"[-0.2, -0.1]",None,0.0,30.0,30.0,30.0,,,,,,,,,103.8310785000067,,,,,,,,,,,,,,,,,,,,,,,,,,,,103.8152807000006,103.8310785000067,103.8310785000067,104.31439600000158,104.3308151000092,106.81430840000394,106.81443150000996,None,1.0,,,,,,,,,,,,,,,,,,,,,,,,,,,,,,,,,,,,,,,,,,nback46,1.0,2024-01-09_13h49.09.067,untitled,2023.2.3,59.92969048721344,2024-01-09 14h37.52.900746 -0500,
12.0,"[0.64, -0.4]",None,0.0,31.0,31.0,31.0,,,,,,,,,106.83080080000218,,,,,,,,,,,,,,,,,,,,,,,,,,,,106.8149776000064,106.83080080000218,106.83080080000218,107.31445240000905,107.33119320000696,109.81438630000048,109.81455510000524,None,1.0,,,,,,,,,,,,,,,,,,,,,,,,,,,,,,,,,,,,,,,,,,nback46,1.0,2024-01-09_13h49.09.067,untitled,2023.2.3,59.92969048721344,2024-01-09 14h37.52.900746 -0500,
9.0,"[0.2, -0.1]",None,0.0,32.0,32.0,32.0,,,,,,,,,109.83108250000804,,,,,,,,,,,,,,,,,,,,,,,,,,,,109.8152412000054,109.83108250000804,109.83108250000804,110.31453289999628,110.33095050000702,112.81430470000488,112.81445590000658,None,1.0,,,,,,,,,,,,,,,,,,,,,,,,,,,,,,,,,,,,,,,,,,nback46,1.0,2024-01-09_13h49.09.067,untitled,2023.2.3,59.92969048721344,2024-01-09 14h37.52.900746 -0500,
11.0,"[-0.64, -0.4]",space,0.0,33.0,33.0,33.0,,,,,,,,,112.83095129999856,,,,,,,,,,,,,,,,,,,,,,,,,,,,112.81504880001012,112.83095129999856,112.83095129999856,113.3145402000082,113.33113560000491,115.81436820000818,115.81453660000987,space,1.0,0.3535398999956669,None,,,,,,,,,,,,,,,,,,,,,,,,,,,,,,,,,,,,,,,,nback46,1.0,2024-01-09_13h49.09.067,untitled,2023.2.3,59.92969048721344,2024-01-09 14h37.52.900746 -0500,
7.0,"[0.3, 0]",None,0.0,34.0,34.0,34.0,,,,,,,,,115.83097320000525,,,,,,,,,,,,,,,,,,,,,,,,,,,,115.81553249999706,115.83097320000525,115.83097320000525,116.31428720000258,116.33087649999652,118.81403150000553,118.81412720000662,None,1.0,,,,,,,,,,,,,,,,,,,,,,,,,,,,,,,,,,,,,,,,,,nback46,1.0,2024-01-09_13h49.09.067,untitled,2023.2.3,59.92969048721344,2024-01-09 14h37.52.900746 -0500,
11.0,"[-0.64, -0.4]",space,0.0,35.0,35.0,35.0,,,,,,,,,118.83072759999776,,,,,,,,,,,,,,,,,,,,,,,,,,,,118.8145613000088,118.83072759999776,118.83072759999776,119.31417399999918,119.33091250000872,121.814378199997,121.81457010000304,space,1.0,0.4568809000047622,None,,,,,,,,,,,,,,,,,,,,,,,,,,,,,,,,,,,,,,,,nback46,1.0,2024-01-09_13h49.09.067,untitled,2023.2.3,59.92969048721344,2024-01-09 14h37.52.900746 -0500,
4.0,"[-0.2, 0.1]",None,0.0,36.0,36.0,36.0,,,,,,,,,121.83086499999628,,,,,,,,,,,,,,,,,,,,,,,,,,,,121.81544200000644,121.83086499999628,121.83086499999628,122.31426210000063,122.33092459999898,124.81424190000688,124.81441240001004,None,1.0,,,,,,,,,,,,,,,,,,,,,,,,,,,,,,,,,,,,,,,,,,nback46,1.0,2024-01-09_13h49.09.067,untitled,2023.2.3,59.92969048721344,2024-01-09 14h37.52.900746 -0500,
5.0,"[0.2, 0.1]",None,0.0,37.0,37.0,37.0,,,,,,,,,124.83074340000168,,,,,,,,,,,,,,,,,,,,,,,,,,,,124.81506930000614,124.83074340000168,124.83074340000168,125.31420970000909,125.33082470000954,127.81429470000148,127.81448620000448,None,1.0,,,,,,,,,,,,,,,,,,,,,,,,,,,,,,,,,,,,,,,,,,nback46,1.0,2024-01-09_13h49.09.067,untitled,2023.2.3,59.92969048721344,2024-01-09 14h37.52.900746 -0500,
6.0,"[-0.3, 0]",None,0.0,38.0,38.0,38.0,,,,,,,,,127.83089589999872,,,,,,,,,,,,,,,,,,,,,,,,,,,,127.8152085000038,127.83089589999872,127.83089589999872,128.31414870001026,128.33067409999785,130.81408830000146,130.8142935000069,None,1.0,,,,,,,,,,,,,,,,,,,,,,,,,,,,,,,,,,,,,,,,,,nback46,1.0,2024-01-09_13h49.09.067,untitled,2023.2.3,59.92969048721344,2024-01-09 14h37.52.900746 -0500,
11.0,"[-0.64, -0.4]",space,0.0,39.0,39.0,39.0,,,,,,,,,130.83071660000132,,,,,,,,,,,,,,,,,,,,,,,,,,,,130.8151199999993,130.83071660000132,130.83071660000132,131.31403500000306,131.3307741000026,133.81406060000882,133.81423960000393,space,1.0,0.3294737000105669,None,,,,,,,,,,,,,,,,,,,,,,,,,,,,,,,,,,,,,,,,nback46,1.0,2024-01-09_13h49.09.067,untitled,2023.2.3,59.92969048721344,2024-01-09 14h37.52.900746 -0500,
,,,,,,,,,,,,,,,,,,,,,,,,,,,,,,,,,,,,,,,,,,,,,,,,,,,,,,133.815053600003,133.83075190000818,133.83075190000818,145.01563039999746,space,11.181596800000989,None,,,,,,,,,,,,,,,,,,,,,,,,,,,,,,,,,nback46,1.0,2024-01-09_13h49.09.067,untitled,2023.2.3,59.92969048721344,2024-01-09 14h37.52.900746 -0500,
10.0,"[0, -0.2]",None,,,,,0.0,0.0,0.0,0.0,,,,,146.03465460000734,,,,,,,,,,,,,,,,,,,,,,,,145.0156685999973,145.03038189999643,146.03465460000734,146.01494670000102,,,,,,,,,,,,,,,,,,,146.0327421999973,146.03465460000734,146.03465460000734,146.53045109999948,146.54735360000632,149.03058279999823,149.0307730000059,None,1.0,,,,,,,,,,,,,,,,,,,,,,,,nback46,1.0,2024-01-09_13h49.09.067,untitled,2023.2.3,59.92969048721344,2024-01-09 14h37.52.900746 -0500,
5.0,"[0.2, 0.1]",None,,,,,0.0,1.0,1.0,1.0,,,,,149.04715840000426,,,,,,,,,,,,,,,,,,,,,,,,,,,,,,,,,,,,,,,,,,,,,,149.03179870000167,149.04715840000426,149.04715840000426,149.53034009999828,149.54709069999808,152.03025160000834,152.03042140000616,None,1.0,,,,,,,,,,,,,,,,,,,,,,,,nback46,1.0,2024-01-09_13h49.09.067,untitled,2023.2.3,59.92969048721344,2024-01-09 14h37.52.900746 -0500,
6.0,"[-0.3, 0]",None,,,,,0.0,2.0,2.0,2.0,,,,,152.04708279999613,,,,,,,,,,,,,,,,,,,,,,,,,,,,,,,,,,,,,,,,,,,,,,152.0311320000037,152.04708279999613,152.04708279999613,152.53028990000894,152.5470720000012,155.03026909999608,155.0304482000065,None,1.0,,,,,,,,,,,,,,,,,,,,,,,,nback46,1.0,2024-01-09_13h49.09.067,untitled,2023.2.3,59.92969048721344,2024-01-09 14h37.52.900746 -0500,
6.0,"[-0.3, 0]",space,,,,,0.0,3.0,3.0,3.0,,,,,155.04729990000487,,,,,,,,,,,,,,,,,,,,,,,,,,,,,,,,,,,,,,,,,,,,,,155.03127069999755,155.04729990000487,155.04729990000487,155.53036469999645,155.54717980000714,158.0303120000026,158.0305967000022,space,1.0,0.3172290000075008,None,,,,,,,,,,,,,,,,,,,,,,nback46,1.0,2024-01-09_13h49.09.067,untitled,2023.2.3,59.92969048721344,2024-01-09 14h37.52.900746 -0500,
12.0,"[0.64, -0.4]",None,,,,,0.0,4.0,4.0,4.0,,,,,158.04703660000814,,,,,,,,,,,,,,,,,,,,,,,,,,,,,,,,,,,,,,,,,,,,,,158.0317272000102,158.04703660000814,158.04703660000814,158.53025589999743,158.54721289999725,161.03033660000074,161.03051470000355,None,1.0,,,,,,,,,,,,,,,,,,,,,,,,nback46,1.0,2024-01-09_13h49.09.067,untitled,2023.2.3,59.92969048721344,2024-01-09 14h37.52.900746 -0500,
10.0,"[0, -0.2]",None,,,,,0.0,5.0,5.0,5.0,,,,,161.04694559999916,,,,,,,,,,,,,,,,,,,,,,,,,,,,,,,,,,,,,,,,,,,,,,161.03119200000947,161.04694559999916,161.04694559999916,161.53034480000497,161.5470326000068,164.03029049999896,164.03050030001032,None,1.0,,,,,,,,,,,,,,,,,,,,,,,,nback46,1.0,2024-01-09_13h49.09.067,untitled,2023.2.3,59.92969048721344,2024-01-09 14h37.52.900746 -0500,
2.0,"[0.64, 0.4]",None,,,,,0.0,6.0,6.0,6.0,,,,,164.04700259999663,,,,,,,,,,,,,,,,,,,,,,,,,,,,,,,,,,,,,,,,,,,,,,164.03131980000762,164.04700259999663,164.04700259999663,164.53019469999708,164.5469191000011,167.03018030000385,167.0303363999992,None,1.0,,,,,,,,,,,,,,,,,,,,,,,,nback46,1.0,2024-01-09_13h49.09.067,untitled,2023.2.3,59.92969048721344,2024-01-09 14h37.52.900746 -0500,
9.0,"[0.2, -0.1]",None,,,,,0.0,7.0,7.0,7.0,,,,,167.04683030000888,,,,,,,,,,,,,,,,,,,,,,,,,,,,,,,,,,,,,,,,,,,,,,167.03101420000894,167.04683030000888,167.04683030000888,167.53019330000097,167.5467564999999,170.03007010000874,170.03026870000758,None,1.0,,,,,,,,,,,,,,,,,,,,,,,,nback46,1.0,2024-01-09_13h49.09.067,untitled,2023.2.3,59.92969048721344,2024-01-09 14h37.52.900746 -0500,
9.0,"[0.2, -0.1]",space,,,,,0.0,8.0,8.0,8.0,,,,,170.04694960000052,,,,,,,,,,,,,,,,,,,,,,,,,,,,,,,,,,,,,,,,,,,,,,170.03106290000142,170.04694960000052,170.04694960000052,170.53008870000485,170.54678270001023,173.0301230000041,173.03032069999608,space,1.0,0.3481534000020474,None,,,,,,,,,,,,,,,,,,,,,,nback46,1.0,2024-01-09_13h49.09.067,untitled,2023.2.3,59.92969048721344,2024-01-09 14h37.52.900746 -0500,
6.0,"[-0.3, 0]",None,,,,,0.0,9.0,9.0,9.0,,,,,173.04682299999695,,,,,,,,,,,,,,,,,,,,,,,,,,,,,,,,,,,,,,,,,,,,,,173.03124399999797,173.04682299999695,173.04682299999695,173.53015310000046,173.5468899999978,176.03005590000248,176.03022830000555,None,1.0,,,,,,,,,,,,,,,,,,,,,,,,nback46,1.0,2024-01-09_13h49.09.067,untitled,2023.2.3,59.92969048721344,2024-01-09 14h37.52.900746 -0500,
11.0,"[-0.64, -0.4]",None,,,,,0.0,10.0,10.0,10.0,,,,,176.04681569999957,,,,,,,,,,,,,,,,,,,,,,,,,,,,,,,,,,,,,,,,,,,,,,176.03086959999928,176.04681569999957,176.04681569999957,176.53002190000552,176.5466882000037,179.02995579999697,179.03012589999707,None,1.0,,,,,,,,,,,,,,,,,,,,,,,,nback46,1.0,2024-01-09_13h49.09.067,untitled,2023.2.3,59.92969048721344,2024-01-09 14h37.52.900746 -0500,
11.0,"[-0.64, -0.4]",space,,,,,0.0,11.0,11.0,11.0,,,,,179.04665630000818,,,,,,,,,,,,,,,,,,,,,,,,,,,,,,,,,,,,,,,,,,,,,,179.03057090000948,179.04665630000818,179.04665630000818,179.52990619999764,179.54657869999937,182.0298812999972,182.03007090000028,space,1.0,0.3253496999968774,None,,,,,,,,,,,,,,,,,,,,,,nback46,1.0,2024-01-09_13h49.09.067,untitled,2023.2.3,59.92969048721344,2024-01-09 14h37.52.900746 -0500,
4.0,"[-0.2, 0.1]",None,,,,,0.0,12.0,12.0,12.0,,,,,182.04670800000892,,,,,,,,,,,,,,,,,,,,,,,,,,,,,,,,,,,,,,,,,,,,,,182.03098599999797,182.04670800000892,182.04670800000892,182.5298771000089,182.54667670000345,185.02995350000856,185.03013290000672,None,1.0,,,,,,,,,,,,,,,,,,,,,,,,nback46,1.0,2024-01-09_13h49.09.067,untitled,2023.2.3,59.92969048721344,2024-01-09 14h37.52.900746 -0500,
3.0,"[0, 0.2]",None,,,,,0.0,13.0,13.0,13.0,,,,,185.046548600003,,,,,,,,,,,,,,,,,,,,,,,,,,,,,,,,,,,,,,,,,,,,,,185.03084000000672,185.046548600003,185.046548600003,185.5298935000028,185.54662730000564,188.02971080000864,188.0298628000019,None,1.0,,,,,,,,,,,,,,,,,,,,,,,,nback46,1.0,2024-01-09_13h49.09.067,untitled,2023.2.3,59.92969048721344,2024-01-09 14h37.52.900746 -0500,
3.0,"[0, 0.2]",space,,,,,0.0,14.0,14.0,14.0,,,,,188.0464040000079,,,,,,,,,,,,,,,,,,,,,,,,,,,,,,,,,,,,,,,,,,,,,,188.03042060000007,188.0464040000079,188.0464040000079,188.5296232999972,188.5464897000056,191.0297898999997,191.0299563000008,space,1.0,0.3304903999960515,None,,,,,,,,,,,,,,,,,,,,,,nback46,1.0,2024-01-09_13h49.09.067,untitled,2023.2.3,59.92969048721344,2024-01-09 14h37.52.900746 -0500,
8.0,"[-0.2, -0.1]",None,,,,,0.0,15.0,15.0,15.0,,,,,191.04665450000903,,,,,,,,,,,,,,,,,,,,,,,,,,,,,,,,,,,,,,,,,,,,,,191.03086169999733,191.04665450000903,191.04665450000903,191.52970630000345,191.54652070000884,194.0297397000104,194.0299282000051,None,1.0,,,,,,,,,,,,,,,,,,,,,,,,nback46,1.0,2024-01-09_13h49.09.067,untitled,2023.2.3,59.92969048721344,2024-01-09 14h37.52.900746 -0500,
1.0,"[-0.64, 0.4]",None,,,,,0.0,16.0,16.0,16.0,,,,,194.04655959999943,,,,,,,,,,,,,,,,,,,,,,,,,,,,,,,,,,,,,,,,,,,,,,194.03066790000597,194.04655959999943,194.04655959999943,194.52979040000355,194.5464374000003,197.02972040000896,197.029898000008,None,1.0,,,,,,,,,,,,,,,,,,,,,,,,nback46,1.0,2024-01-09_13h49.09.067,untitled,2023.2.3,59.92969048721344,2024-01-09 14h37.52.900746 -0500,
2.0,"[0.64, 0.4]",None,,,,,0.0,17.0,17.0,17.0,,,,,197.0463546999963,,,,,,,,,,,,,,,,,,,,,,,,,,,,,,,,,,,,,,,,,,,,,,197.0306264999963,197.0463546999963,197.0463546999963,197.5296491000045,197.5464104999992,200.02969940000912,200.0298799000011,None,1.0,,,,,,,,,,,,,,,,,,,,,,,,nback46,1.0,2024-01-09_13h49.09.067,untitled,2023.2.3,59.92969048721344,2024-01-09 14h37.52.900746 -0500,
4.0,"[-0.2, 0.1]",None,,,,,0.0,18.0,18.0,18.0,,,,,200.0463072999992,,,,,,,,,,,,,,,,,,,,,,,,,,,,,,,,,,,,,,,,,,,,,,200.0305045999994,200.0463072999992,200.0463072999992,200.52977760000795,200.54633240000112,203.0296364000096,203.0298630000034,None,1.0,,,,,,,,,,,,,,,,,,,,,,,,nback46,1.0,2024-01-09_13h49.09.067,untitled,2023.2.3,59.92969048721344,2024-01-09 14h37.52.900746 -0500,
4.0,"[-0.2, 0.1]",space,,,,,0.0,19.0,19.0,19.0,,,,,203.0462917999976,,,,,,,,,,,,,,,,,,,,,,,,,,,,,,,,,,,,,,,,,,,,,,203.0306508000067,203.0462917999976,203.0462917999976,203.52976150000177,203.54634570000053,206.02961169999617,206.0298172000039,space,1.0,0.391682600005879,None,,,,,,,,,,,,,,,,,,,,,,nback46,1.0,2024-01-09_13h49.09.067,untitled,2023.2.3,59.92969048721344,2024-01-09 14h37.52.900746 -0500,
8.0,"[-0.2, -0.1]",None,,,,,0.0,20.0,20.0,20.0,,,,,206.0462211999984,,,,,,,,,,,,,,,,,,,,,,,,,,,,,,,,,,,,,,,,,,,,,,206.0307694000076,206.0462211999984,206.0462211999984,206.52952310000543,206.54635000000417,209.0296223000041,209.02980760000355,None,1.0,,,,,,,,,,,,,,,,,,,,,,,,nback46,1.0,2024-01-09_13h49.09.067,untitled,2023.2.3,59.92969048721344,2024-01-09 14h37.52.900746 -0500,
5.0,"[0.2, 0.1]",None,,,,,0.0,21.0,21.0,21.0,,,,,209.04619660000023,,,,,,,,,,,,,,,,,,,,,,,,,,,,,,,,,,,,,,,,,,,,,,209.03054360000533,209.04619660000023,209.04619660000023,209.5295361000026,209.5462456000096,212.02951049999683,212.02967869999705,None,1.0,,,,,,,,,,,,,,,,,,,,,,,,nback46,1.0,2024-01-09_13h49.09.067,untitled,2023.2.3,59.92969048721344,2024-01-09 14h37.52.900746 -0500,
5.0,"[0.2, 0.1]",space,,,,,0.0,22.0,22.0,22.0,,,,,212.04627700000128,,,,,,,,,,,,,,,,,,,,,,,,,,,,,,,,,,,,,,,,,,,,,,212.0303303999972,212.04627700000128,212.04627700000128,212.52952240000013,212.54623600000923,215.0294676000049,215.02964770000835,space,1.0,0.35605659999419,None,,,,,,,,,,,,,,,,,,,,,,nback46,1.0,2024-01-09_13h49.09.067,untitled,2023.2.3,59.92969048721344,2024-01-09 14h37.52.900746 -0500,
1.0,"[-0.64, 0.4]",None,,,,,0.0,23.0,23.0,23.0,,,,,215.0459955999977,,,,,,,,,,,,,,,,,,,,,,,,,,,,,,,,,,,,,,,,,,,,,,215.03048750000016,215.0459955999977,215.0459955999977,215.5294477999996,215.54618040000787,218.02949760000047,218.02968629999668,None,1.0,,,,,,,,,,,,,,,,,,,,,,,,nback46,1.0,2024-01-09_13h49.09.067,untitled,2023.2.3,59.92969048721344,2024-01-09 14h37.52.900746 -0500,
3.0,"[0, 0.2]",None,,,,,0.0,24.0,24.0,24.0,,,,,218.0461137000093,,,,,,,,,,,,,,,,,,,,,,,,,,,,,,,,,,,,,,,,,,,,,,218.0304050999985,218.0461137000093,218.0461137000093,218.529512299996,218.545998600006,221.02934190000812,221.0295434,None,1.0,,,,,,,,,,,,,,,,,,,,,,,,nback46,1.0,2024-01-09_13h49.09.067,untitled,2023.2.3,59.92969048721344,2024-01-09 14h37.52.900746 -0500,
6.0,"[-0.3, 0]",None,,,,,0.0,25.0,25.0,25.0,,,,,221.0462007000024,,,,,,,,,,,,,,,,,,,,,,,,,,,,,,,,,,,,,,,,,,,,,,221.03031380000172,221.0462007000024,221.0462007000024,221.5294477999996,221.54608060000464,224.0292191000044,224.02938930000528,None,1.0,,,,,,,,,,,,,,,,,,,,,,,,nback46,1.0,2024-01-09_13h49.09.067,untitled,2023.2.3,59.92969048721344,2024-01-09 14h37.52.900746 -0500,
1.0,"[-0.64, 0.4]",None,,,,,0.0,26.0,26.0,26.0,,,,,224.04585110000332,,,,,,,,,,,,,,,,,,,,,,,,,,,,,,,,,,,,,,,,,,,,,,224.03009179999933,224.04585110000332,224.04585110000332,224.52934600001024,224.54611080000177,227.02923310000915,227.0294024000032,None,1.0,,,,,,,,,,,,,,,,,,,,,,,,nback46,1.0,2024-01-09_13h49.09.067,untitled,2023.2.3,59.92969048721344,2024-01-09 14h37.52.900746 -0500,
1.0,"[-0.64, 0.4]",space,,,,,0.0,27.0,27.0,27.0,,,,,227.04597730000387,,,,,,,,,,,,,,,,,,,,,,,,,,,,,,,,,,,,,,,,,,,,,,227.0300703000103,227.04597730000387,227.04597730000387,227.52924509999863,227.5459845000005,230.0292614000064,230.02945929999987,space,1.0,0.3214583999942988,None,,,,,,,,,,,,,,,,,,,,,,nback46,1.0,2024-01-09_13h49.09.067,untitled,2023.2.3,59.92969048721344,2024-01-09 14h37.52.900746 -0500,
1.0,"[-0.64, 0.4]",space,,,,,0.0,28.0,28.0,28.0,,,,,230.04596980000497,,,,,,,,,,,,,,,,,,,,,,,,,,,,,,,,,,,,,,,,,,,,,,230.03038989999916,230.04596980000497,230.04596980000497,230.5290358000057,230.54581740000867,233.0291930000094,233.02937309999837,None,0.0,,,,,,,,,,,,,,,,,,,,,,,,nback46,1.0,2024-01-09_13h49.09.067,untitled,2023.2.3,59.92969048721344,2024-01-09 14h37.52.900746 -0500,
3.0,"[0, 0.2]",None,,,,,0.0,29.0,29.0,29.0,,,,,233.04580480000004,,,,,,,,,,,,,,,,,,,,,,,,,,,,,,,,,,,,,,,,,,,,,,233.0302001000091,233.04580480000004,233.04580480000004,233.52926850000225,233.5458700000017,236.0291105000069,236.02929370000493,None,1.0,,,,,,,,,,,,,,,,,,,,,,,,nback46,1.0,2024-01-09_13h49.09.067,untitled,2023.2.3,59.92969048721344,2024-01-09 14h37.52.900746 -0500,
12.0,"[0.64, -0.4]",None,,,,,0.0,30.0,30.0,30.0,,,,,236.0458309000096,,,,,,,,,,,,,,,,,,,,,,,,,,,,,,,,,,,,,,,,,,,,,,236.0299387999985,236.0458309000096,236.0458309000096,236.5291991999984,236.5458816000028,239.0289816000004,239.02910970000084,None,1.0,,,,,,,,,,,,,,,,,,,,,,,,nback46,1.0,2024-01-09_13h49.09.067,untitled,2023.2.3,59.92969048721344,2024-01-09 14h37.52.900746 -0500,
12.0,"[0.64, -0.4]",space,,,,,0.0,31.0,31.0,31.0,,,,,239.04564730000857,,,,,,,,,,,,,,,,,,,,,,,,,,,,,,,,,,,,,,,,,,,,,,239.02943880000385,239.04564730000857,239.04564730000857,239.5290658000013,239.54564490000485,242.0290326999966,242.02921510000303,space,1.0,0.3624951000092551,None,,,,,,,,,,,,,,,,,,,,,,nback46,1.0,2024-01-09_13h49.09.067,untitled,2023.2.3,59.92969048721344,2024-01-09 14h37.52.900746 -0500,
2.0,"[0.64, 0.4]",None,,,,,0.0,32.0,32.0,32.0,,,,,242.0457361000008,,,,,,,,,,,,,,,,,,,,,,,,,,,,,,,,,,,,,,,,,,,,,,242.03012680000396,242.0457361000008,242.0457361000008,242.52874940000763,242.5457790000073,245.02898350000032,245.02917829999933,None,1.0,,,,,,,,,,,,,,,,,,,,,,,,nback46,1.0,2024-01-09_13h49.09.067,untitled,2023.2.3,59.92969048721344,2024-01-09 14h37.52.900746 -0500,
1.0,"[-0.64, 0.4]",None,,,,,0.0,33.0,33.0,33.0,,,,,245.0458234999969,,,,,,,,,,,,,,,,,,,,,,,,,,,,,,,,,,,,,,,,,,,,,,245.0299490000034,245.0458234999969,245.0458234999969,245.52898580000328,245.5455836000037,248.02899760000585,248.02919770000156,None,1.0,,,,,,,,,,,,,,,,,,,,,,,,nback46,1.0,2024-01-09_13h49.09.067,untitled,2023.2.3,59.92969048721344,2024-01-09 14h37.52.900746 -0500,
7.0,"[0.3, 0]",None,,,,,0.0,34.0,34.0,34.0,,,,,248.04552490000788,,,,,,,,,,,,,,,,,,,,,,,,,,,,,,,,,,,,,,,,,,,,,,248.03005909999771,248.04552490000788,248.04552490000788,248.5289607000013,248.5456336000061,251.02895950000675,251.02916160000316,None,1.0,,,,,,,,,,,,,,,,,,,,,,,,nback46,1.0,2024-01-09_13h49.09.067,untitled,2023.2.3,59.92969048721344,2024-01-09 14h37.52.900746 -0500,
7.0,"[0.3, 0]",space,,,,,0.0,35.0,35.0,35.0,,,,,251.0456668999977,,,,,,,,,,,,,,,,,,,,,,,,,,,,,,,,,,,,,,,,,,,,,,251.0300337000081,251.0456668999977,251.0456668999977,251.5286338000005,251.54569739999715,254.02895420001005,254.0291419999994,space,1.0,0.9140574000048218,None,,,,,,,,,,,,,,,,,,,,,,nback46,1.0,2024-01-09_13h49.09.067,untitled,2023.2.3,59.92969048721344,2024-01-09 14h37.52.900746 -0500,
11.0,"[-0.64, -0.4]",None,,,,,0.0,36.0,36.0,36.0,,,,,254.04544119999628,,,,,,,,,,,,,,,,,,,,,,,,,,,,,,,,,,,,,,,,,,,,,,254.03004320000764,254.04544119999628,254.04544119999628,254.5286063000094,254.545503500005,257.0288763999997,257.02905610000016,None,1.0,,,,,,,,,,,,,,,,,,,,,,,,nback46,1.0,2024-01-09_13h49.09.067,untitled,2023.2.3,59.92969048721344,2024-01-09 14h37.52.900746 -0500,
2.0,"[0.64, 0.4]",None,,,,,0.0,37.0,37.0,37.0,,,,,257.0455659,,,,,,,,,,,,,,,,,,,,,,,,,,,,,,,,,,,,,,,,,,,,,,257.0298353999969,257.0455659,257.0455659,257.5287226000073,257.54552640000475,260.0287408000004,260.02894010000455,None,1.0,,,,,,,,,,,,,,,,,,,,,,,,nback46,1.0,2024-01-09_13h49.09.067,untitled,2023.2.3,59.92969048721344,2024-01-09 14h37.52.900746 -0500,
6.0,"[-0.3, 0]",None,,,,,0.0,38.0,38.0,38.0,,,,,260.04532889999973,,,,,,,,,,,,,,,,,,,,,,,,,,,,,,,,,,,,,,,,,,,,,,260.0296200000012,260.04532889999973,260.04532889999973,260.5286899000057,260.5455024999974,263.0282791000064,263.0283744000044,None,1.0,,,,,,,,,,,,,,,,,,,,,,,,nback46,1.0,2024-01-09_13h49.09.067,untitled,2023.2.3,59.92969048721344,2024-01-09 14h37.52.900746 -0500,
10.0,"[0, -0.2]",None,,,,,0.0,39.0,39.0,39.0,,,,,263.0452268000081,,,,,,,,,,,,,,,,,,,,,,,,,,,,,,,,,,,,,,,,,,,,,,263.0287940999988,263.0452268000081,263.0452268000081,263.5286262000009,263.545363600002,266.0286797000008,266.0288459000003,None,1.0,,,,,,,,,,,,,,,,,,,,,,,,nback46,1.0,2024-01-09_13h49.09.067,untitled,2023.2.3,59.92969048721344,2024-01-09 14h37.52.900746 -0500,
,,,,,,,,,,,,,,,,,,,,,,,,,,,,,,,,,,,,,,,,,,,,,,,,,,,,,,,,,,,,,,,,,,,,,,,,266.02930340000603,266.0455188000051,266.0455188000051,280.380216000005,space,14.321618300004047,None,,,,,,,,,,,,,,,nback46,1.0,2024-01-09_13h49.09.067,untitled,2023.2.3,59.92969048721344,2024-01-09 14h37.52.900746 -0500,
,"[0.2, 0.1]",None,,,,,,,,,0.0,0.0,0.0,0.0,281.395995400002,,,,,,,,,,,,,,,,,,,,,,,,280.3802658000059,280.3950954000029,281.395995400002,281.37944170000264,,,,,,,,,,,,,,,,,,,,,,,,,,,,,,,,,,,,,281.3939531000069,281.395995400002,281.395995400002,281.8952319000091,281.8952319000091,284.3951432000031,284.39533860000665,None,1.0,,,,,,nback46,1.0,2024-01-09_13h49.09.067,untitled,2023.2.3,59.92969048721344,2024-01-09 14h37.52.900746 -0500,
,"[0.64, 0.4]",None,,,,,,,,,0.0,1.0,1.0,1.0,284.4118080000044,,,,,,,,,,,,,,,,,,,,,,,,,,,,,,,,,,,,,,,,,,,,,,,,,,,,,,,,,,,,,,,,284.3962009000097,284.4118080000044,284.4118080000044,284.9116893000028,284.89507130000857,287.3950118000066,287.39510190000874,None,1.0,,,,,,nback46,1.0,2024-01-09_13h49.09.067,untitled,2023.2.3,59.92969048721344,2024-01-09 14h37.52.900746 -0500,
,"[-0.3, 0]",None,,,,,,,,,0.0,2.0,2.0,2.0,287.411560499997,,,,,,,,,,,,,,,,,,,,,,,,,,,,,,,,,,,,,,,,,,,,,,,,,,,,,,,,,,,,,,,,287.3955197000032,287.411560499997,287.411560499997,287.9117082000012,287.89492659999814,290.39504339999985,290.3952552999981,None,1.0,,,,,,nback46,1.0,2024-01-09_13h49.09.067,untitled,2023.2.3,59.92969048721344,2024-01-09 14h37.52.900746 -0500,
,"[0.2, -0.1]",None,,,,,,,,,0.0,3.0,3.0,3.0,290.41157759999624,,,,,,,,,,,,,,,,,,,,,,,,,,,,,,,,,,,,,,,,,,,,,,,,,,,,,,,,,,,,,,,,290.3960800000059,290.41157759999624,290.41157759999624,290.9115612000023,290.89482830000634,293.39490070000465,293.3950754999969,None,1.0,,,,,,nback46,1.0,2024-01-09_13h49.09.067,untitled,2023.2.3,59.92969048721344,2024-01-09 14h37.52.900746 -0500,
,"[0, 0.2]",None,,,,,,,,,0.0,4.0,4.0,4.0,293.41149569999834,,,,,,,,,,,,,,,,,,,,,,,,,,,,,,,,,,,,,,,,,,,,,,,,,,,,,,,,,,,,,,,,293.39577240000654,293.41149569999834,293.41149569999834,293.91144769999664,293.89483260001,296.3949394000083,296.3951180000004,None,1.0,,,,,,nback46,1.0,2024-01-09_13h49.09.067,untitled,2023.2.3,59.92969048721344,2024-01-09 14h37.52.900746 -0500,
,"[0.2, -0.1]",space,,,,,,,,,0.0,5.0,5.0,5.0,296.4113178999978,,,,,,,,,,,,,,,,,,,,,,,,,,,,,,,,,,,,,,,,,,,,,,,,,,,,,,,,,,,,,,,,296.3958030000067,296.4113178999978,296.4113178999978,296.91143780000857,296.89471310000226,299.3948765000096,299.3950554000039,space,1.0,1.8970935999968788,None,,,,nback46,1.0,2024-01-09_13h49.09.067,untitled,2023.2.3,59.92969048721344,2024-01-09 14h37.52.900746 -0500,
,"[0, -0.2]",None,,,,,,,,,0.0,6.0,6.0,6.0,299.4115202999965,,,,,,,,,,,,,,,,,,,,,,,,,,,,,,,,,,,,,,,,,,,,,,,,,,,,,,,,,,,,,,,,299.39607240000623,299.4115202999965,299.4115202999965,299.9114073000092,299.89476470000227,302.3948878000083,302.39509279999766,None,1.0,,,,,,nback46,1.0,2024-01-09_13h49.09.067,untitled,2023.2.3,59.92969048721344,2024-01-09 14h37.52.900746 -0500,
,"[0.64, -0.4]",None,,,,,,,,,0.0,7.0,7.0,7.0,302.4115313000075,,,,,,,,,,,,,,,,,,,,,,,,,,,,,,,,,,,,,,,,,,,,,,,,,,,,,,,,,,,,,,,,302.395929899998,302.4115313000075,302.4115313000075,302.9116914000042,302.8948362000083,305.39477110000735,305.3949533999985,None,1.0,,,,,,nback46,1.0,2024-01-09_13h49.09.067,untitled,2023.2.3,59.92969048721344,2024-01-09 14h37.52.900746 -0500,
,"[0.3, 0]",None,,,,,,,,,0.0,8.0,8.0,8.0,305.4114450000052,,,,,,,,,,,,,,,,,,,,,,,,,,,,,,,,,,,,,,,,,,,,,,,,,,,,,,,,,,,,,,,,305.395689500001,305.4114450000052,305.4114450000052,305.911316800004,305.8945926000015,308.3947838000022,308.3949766000005,None,1.0,,,,,,nback46,1.0,2024-01-09_13h49.09.067,untitled,2023.2.3,59.92969048721344,2024-01-09 14h37.52.900746 -0500,
,"[0.64, -0.4]",space,,,,,,,,,0.0,9.0,9.0,9.0,308.4113167000032,,,,,,,,,,,,,,,,,,,,,,,,,,,,,,,,,,,,,,,,,,,,,,,,,,,,,,,,,,,,,,,,308.39576330001,308.4113167000032,308.4113167000032,308.9112492999993,308.894601100008,311.39456800000335,311.39475649999804,space,1.0,0.8496889000089141,None,,,,nback46,1.0,2024-01-09_13h49.09.067,untitled,2023.2.3,59.92969048721344,2024-01-09 14h37.52.900746 -0500,
,"[-0.64, 0.4]",None,,,,,,,,,0.0,10.0,10.0,10.0,311.41135930000746,,,,,,,,,,,,,,,,,,,,,,,,,,,,,,,,,,,,,,,,,,,,,,,,,,,,,,,,,,,,,,,,311.39574079999875,311.41135930000746,311.41135930000746,311.91114430000016,311.8946774000069,314.39471649999905,314.3949117000011,None,1.0,,,,,,nback46,1.0,2024-01-09_13h49.09.067,untitled,2023.2.3,59.92969048721344,2024-01-09 14h37.52.900746 -0500,
,"[0.2, 0.1]",None,,,,,,,,,0.0,11.0,11.0,11.0,314.41117760000634,,,,,,,,,,,,,,,,,,,,,,,,,,,,,,,,,,,,,,,,,,,,,,,,,,,,,,,,,,,,,,,,314.3956787000061,314.41117760000634,314.41117760000634,314.9111492000084,314.89461909999955,317.39464900000894,317.3948211000097,None,1.0,,,,,,nback46,1.0,2024-01-09_13h49.09.067,untitled,2023.2.3,59.92969048721344,2024-01-09 14h37.52.900746 -0500,
,"[0.3, 0]",None,,,,,,,,,0.0,12.0,12.0,12.0,317.4111577000004,,,,,,,,,,,,,,,,,,,,,,,,,,,,,,,,,,,,,,,,,,,,,,,,,,,,,,,,,,,,,,,,317.3954828999995,317.4111577000004,317.4111577000004,317.91098110000894,317.8943192000006,320.3945101999998,320.3946852000081,None,1.0,,,,,,nback46,1.0,2024-01-09_13h49.09.067,untitled,2023.2.3,59.92969048721344,2024-01-09 14h37.52.900746 -0500,
,"[0.2, 0.1]",space,,,,,,,,,0.0,13.0,13.0,13.0,320.4112901000044,,,,,,,,,,,,,,,,,,,,,,,,,,,,,,,,,,,,,,,,,,,,,,,,,,,,,,,,,,,,,,,,320.3953676000092,320.4112901000044,320.4112901000044,320.9110226000048,320.8944087999989,323.3943767000019,323.394550099998,space,1.0,0.9761804000008852,None,,,,nback46,1.0,2024-01-09_13h49.09.067,untitled,2023.2.3,59.92969048721344,2024-01-09 14h37.52.900746 -0500,
,"[-0.3, 0]",None,,,,,,,,,0.0,14.0,14.0,14.0,323.4111622000055,,,,,,,,,,,,,,,,,,,,,,,,,,,,,,,,,,,,,,,,,,,,,,,,,,,,,,,,,,,,,,,,323.3953795999987,323.4111622000055,323.4111622000055,323.9111475999962,323.8942861999967,326.3942293,326.3943822000001,None,1.0,,,,,,nback46,1.0,2024-01-09_13h49.09.067,untitled,2023.2.3,59.92969048721344,2024-01-09 14h37.52.900746 -0500,
,"[0, 0.2]",None,,,,,,,,,0.0,15.0,15.0,15.0,326.4111094999971,,,,,,,,,,,,,,,,,,,,,,,,,,,,,,,,,,,,,,,,,,,,,,,,,,,,,,,,,,,,,,,,326.3950318999996,326.4111094999971,326.4111094999971,326.91094929999963,326.89429019999807,329.3944602999982,329.3946716000064,None,1.0,,,,,,nback46,1.0,2024-01-09_13h49.09.067,untitled,2023.2.3,59.92969048721344,2024-01-09 14h37.52.900746 -0500,
,"[-0.3, 0]",space,,,,,,,,,0.0,16.0,16.0,16.0,329.411002599998,,,,,,,,,,,,,,,,,,,,,,,,,,,,,,,,,,,,,,,,,,,,,,,,,,,,,,,,,,,,,,,,329.39548910000303,329.411002599998,329.411002599998,329.9110426999978,329.8942643000046,332.3944593000051,332.3946481000021,space,1.0,0.6196810999972513,None,,,,nback46,1.0,2024-01-09_13h49.09.067,untitled,2023.2.3,59.92969048721344,2024-01-09 14h37.52.900746 -0500,
,"[-0.64, -0.4]",None,,,,,,,,,0.0,17.0,17.0,17.0,332.4109902000055,,,,,,,,,,,,,,,,,,,,,,,,,,,,,,,,,,,,,,,,,,,,,,,,,,,,,,,,,,,,,,,,332.3955244000099,332.4109902000055,332.4109902000055,332.9110418000055,332.8943055999989,335.39435740000044,335.39456719999725,None,1.0,,,,,,nback46,1.0,2024-01-09_13h49.09.067,untitled,2023.2.3,59.92969048721344,2024-01-09 14h37.52.900746 -0500,
,"[-0.2, -0.1]",None,,,,,,,,,0.0,18.0,18.0,18.0,335.4109922000061,,,,,,,,,,,,,,,,,,,,,,,,,,,,,,,,,,,,,,,,,,,,,,,,,,,,,,,,,,,,,,,,335.39538940000057,335.4109922000061,335.4109922000061,335.9109626999998,335.8942573000095,338.39429130000644,338.39448970000376,None,1.0,,,,,,nback46,1.0,2024-01-09_13h49.09.067,untitled,2023.2.3,59.92969048721344,2024-01-09 14h37.52.900746 -0500,
,"[0.2, -0.1]",None,,,,,,,,,0.0,19.0,19.0,19.0,338.41082879999885,,,,,,,,,,,,,,,,,,,,,,,,,,,,,,,,,,,,,,,,,,,,,,,,,,,,,,,,,,,,,,,,338.395268399996,338.41082879999885,338.41082879999885,338.9108855000086,338.89437100000214,341.39410649999627,341.39427650001016,None,1.0,,,,,,nback46,1.0,2024-01-09_13h49.09.067,untitled,2023.2.3,59.92969048721344,2024-01-09 14h37.52.900746 -0500,
,"[0.2, -0.1]",None,,,,,,,,,0.0,20.0,20.0,20.0,341.4109673000057,,,,,,,,,,,,,,,,,,,,,,,,,,,,,,,,,,,,,,,,,,,,,,,,,,,,,,,,,,,,,,,,341.39502840000205,341.4109673000057,341.4109673000057,341.91076440000325,341.8941143999982,344.39498090000416,344.39514490000147,None,1.0,,,,,,nback46,1.0,2024-01-09_13h49.09.067,untitled,2023.2.3,59.92969048721344,2024-01-09 14h37.52.900746 -0500,
,"[-0.64, 0.4]",None,,,,,,,,,0.0,21.0,21.0,21.0,344.41065810000873,,,,,,,,,,,,,,,,,,,,,,,,,,,,,,,,,,,,,,,,,,,,,,,,,,,,,,,,,,,,,,,,344.39576490000763,344.41065810000873,344.41065810000873,344.9108572999976,344.89403930000844,347.3942015000066,347.3944109000004,None,1.0,,,,,,nback46,1.0,2024-01-09_13h49.09.067,untitled,2023.2.3,59.92969048721344,2024-01-09 14h37.52.900746 -0500,
,"[0, 0.2]",None,,,,,,,,,0.0,22.0,22.0,22.0,347.4108600000036,,,,,,,,,,,,,,,,,,,,,,,,,,,,,,,,,,,,,,,,,,,,,,,,,,,,,,,,,,,,,,,,347.3951819000067,347.4108600000036,347.4108600000036,347.91076680000697,347.8940901000024,350.3939619000012,350.39412140000786,None,1.0,,,,,,nback46,1.0,2024-01-09_13h49.09.067,untitled,2023.2.3,59.92969048721344,2024-01-09 14h37.52.900746 -0500,
,"[0.64, -0.4]",None,,,,,,,,,0.0,23.0,23.0,23.0,350.4106971000001,,,,,,,,,,,,,,,,,,,,,,,,,,,,,,,,,,,,,,,,,,,,,,,,,,,,,,,,,,,,,,,,350.39475750000565,350.4106971000001,350.4106971000001,350.9106840000022,350.8939309999987,353.3940722999978,353.3942662000045,None,1.0,,,,,,nback46,1.0,2024-01-09_13h49.09.067,untitled,2023.2.3,59.92969048721344,2024-01-09 14h37.52.900746 -0500,
,"[0, 0.2]",space,,,,,,,,,0.0,24.0,24.0,24.0,353.4106638000085,,,,,,,,,,,,,,,,,,,,,,,,,,,,,,,,,,,,,,,,,,,,,,,,,,,,,,,,,,,,,,,,353.3950520000071,353.4106638000085,353.4106638000085,353.9106699999975,353.8938770000095,356.3938928999996,356.3940669000003,space,1.0,1.6809631999931298,None,,,,nback46,1.0,2024-01-09_13h49.09.067,untitled,2023.2.3,59.92969048721344,2024-01-09 14h37.52.900746 -0500,
,"[-0.2, 0.1]",None,,,,,,,,,0.0,25.0,25.0,25.0,356.4107667000062,,,,,,,,,,,,,,,,,,,,,,,,,,,,,,,,,,,,,,,,,,,,,,,,,,,,,,,,,,,,,,,,356.3948978999979,356.4107667000062,356.4107667000062,356.9107787999965,356.8940695000056,359.3938165,359.3939806999988,None,1.0,,,,,,nback46,1.0,2024-01-09_13h49.09.067,untitled,2023.2.3,59.92969048721344,2024-01-09 14h37.52.900746 -0500,
,"[0.3, 0]",None,,,,,,,,,0.0,26.0,26.0,26.0,359.41042800000287,,,,,,,,,,,,,,,,,,,,,,,,,,,,,,,,,,,,,,,,,,,,,,,,,,,,,,,,,,,,,,,,359.39459760001046,359.41042800000287,359.41042800000287,359.910446199996,359.8938022000075,362.3937098000024,362.3938803000056,None,1.0,,,,,,nback46,1.0,2024-01-09_13h49.09.067,untitled,2023.2.3,59.92969048721344,2024-01-09 14h37.52.900746 -0500,
,"[-0.2, 0.1]",space,,,,,,,,,0.0,27.0,27.0,27.0,362.4103519000055,,,,,,,,,,,,,,,,,,,,,,,,,,,,,,,,,,,,,,,,,,,,,,,,,,,,,,,,,,,,,,,,362.3944964999973,362.4103519000055,362.4103519000055,362.9104615999968,362.8937043000042,365.3938438000041,365.39402230001,space,1.0,0.5909435999928974,None,,,,nback46,1.0,2024-01-09_13h49.09.067,untitled,2023.2.3,59.92969048721344,2024-01-09 14h37.52.900746 -0500,
,"[-0.2, 0.1]",None,,,,,,,,,0.0,28.0,28.0,28.0,365.4103623999981,,,,,,,,,,,,,,,,,,,,,,,,,,,,,,,,,,,,,,,,,,,,,,,,,,,,,,,,,,,,,,,,365.39481520000845,365.4103623999981,365.4103623999981,365.9103877000016,365.8936650999967,368.39374719999614,368.3939035000076,None,1.0,,,,,,nback46,1.0,2024-01-09_13h49.09.067,untitled,2023.2.3,59.92969048721344,2024-01-09 14h37.52.900746 -0500,
,"[0.2, 0.1]",None,,,,,,,,,0.0,29.0,29.0,29.0,368.41043780000473,,,,,,,,,,,,,,,,,,,,,,,,,,,,,,,,,,,,,,,,,,,,,,,,,,,,,,,,,,,,,,,,368.3944925999968,368.41043780000473,368.41043780000473,368.9103706000024,368.8936943000008,371.3935972000036,371.3937675000052,None,1.0,,,,,,nback46,1.0,2024-01-09_13h49.09.067,untitled,2023.2.3,59.92969048721344,2024-01-09 14h37.52.900746 -0500,
,"[-0.64, -0.4]",None,,,,,,,,,0.0,30.0,30.0,30.0,371.4102614000003,,,,,,,,,,,,,,,,,,,,,,,,,,,,,,,,,,,,,,,,,,,,,,,,,,,,,,,,,,,,,,,,371.3944167000009,371.4102614000003,371.4102614000003,371.9102621000056,371.8937155000021,374.3939817000064,374.3941278999992,None,1.0,,,,,,nback46,1.0,2024-01-09_13h49.09.067,untitled,2023.2.3,59.92969048721344,2024-01-09 14h37.52.900746 -0500,
,"[0, -0.2]",None,,,,,,,,,0.0,31.0,31.0,31.0,374.41034030000446,,,,,,,,,,,,,,,,,,,,,,,,,,,,,,,,,,,,,,,,,,,,,,,,,,,,,,,,,,,,,,,,374.39477670000633,374.41034030000446,374.41034030000446,374.91018520000216,374.8936442999984,377.3934932999982,377.3936524000019,None,1.0,,,,,,nback46,1.0,2024-01-09_13h49.09.067,untitled,2023.2.3,59.92969048721344,2024-01-09 14h37.52.900746 -0500,
,"[-0.64, -0.4]",space,,,,,,,,,0.0,32.0,32.0,32.0,377.4102214000013,,,,,,,,,,,,,,,,,,,,,,,,,,,,,,,,,,,,,,,,,,,,,,,,,,,,,,,,,,,,,,,,377.39430630000425,377.4102214000013,377.4102214000013,377.91021270000783,377.893716599996,380.3936626000068,380.3938509,space,1.0,0.8480469999922207,None,,,,nback46,1.0,2024-01-09_13h49.09.067,untitled,2023.2.3,59.92969048721344,2024-01-09 14h37.52.900746 -0500,
,"[0.64, 0.4]",None,,,,,,,,,0.0,33.0,33.0,33.0,380.4104009000002,,,,,,,,,,,,,,,,,,,,,,,,,,,,,,,,,,,,,,,,,,,,,,,,,,,,,,,,,,,,,,,,380.3948431000026,380.4104009000002,380.4104009000002,380.9102319000085,380.89347180000914,383.3933849000023,383.3935255999968,None,1.0,,,,,,nback46,1.0,2024-01-09_13h49.09.067,untitled,2023.2.3,59.92969048721344,2024-01-09 14h37.52.900746 -0500,
,"[-0.3, 0]",None,,,,,,,,,0.0,34.0,34.0,34.0,383.4102655000024,,,,,,,,,,,,,,,,,,,,,,,,,,,,,,,,,,,,,,,,,,,,,,,,,,,,,,,,,,,,,,,,383.3942189000081,383.4102655000024,383.4102655000024,383.9101160999999,383.8934968000103,386.3934947000089,386.3937071999972,None,1.0,,,,,,nback46,1.0,2024-01-09_13h49.09.067,untitled,2023.2.3,59.92969048721344,2024-01-09 14h37.52.900746 -0500,
,"[0.3, 0]",None,,,,,,,,,0.0,35.0,35.0,35.0,386.4102230999997,,,,,,,,,,,,,,,,,,,,,,,,,,,,,,,,,,,,,,,,,,,,,,,,,,,,,,,,,,,,,,,,386.39452499999607,386.4102230999997,386.4102230999997,386.9100399000017,386.8934792000073,389.39318769999954,389.3932657999976,None,1.0,,,,,,nback46,1.0,2024-01-09_13h49.09.067,untitled,2023.2.3,59.92969048721344,2024-01-09 14h37.52.900746 -0500,
,"[-0.3, 0]",space,,,,,,,,,0.0,36.0,36.0,36.0,389.4099610999983,,,,,,,,,,,,,,,,,,,,,,,,,,,,,,,,,,,,,,,,,,,,,,,,,,,,,,,,,,,,,,,,389.3935891000001,389.4099610999983,389.4099610999983,389.91008010000223,389.8932312999968,392.3933720000059,392.3935599999968,space,1.0,0.4728690999909304,None,,,,nback46,1.0,2024-01-09_13h49.09.067,untitled,2023.2.3,59.92969048721344,2024-01-09 14h37.52.900746 -0500,
,"[0, -0.2]",None,,,,,,,,,0.0,37.0,37.0,37.0,392.4101209000073,,,,,,,,,,,,,,,,,,,,,,,,,,,,,,,,,,,,,,,,,,,,,,,,,,,,,,,,,,,,,,,,392.3944120000088,392.4101209000073,392.4101209000073,392.9100333000097,392.89326360001,395.39330110000446,395.39347730000736,None,1.0,,,,,,nback46,1.0,2024-01-09_13h49.09.067,untitled,2023.2.3,59.92969048721344,2024-01-09 14h37.52.900746 -0500,
,"[0.3, 0]",None,,,,,,,,,0.0,38.0,38.0,38.0,395.4099961000029,,,,,,,,,,,,,,,,,,,,,,,,,,,,,,,,,,,,,,,,,,,,,,,,,,,,,,,,,,,,,,,,395.3941481000074,395.4099961000029,395.4099961000029,395.9100315999967,395.8934494999994,398.3932927999995,398.3935007999971,None,1.0,,,,,,nback46,1.0,2024-01-09_13h49.09.067,untitled,2023.2.3,59.92969048721344,2024-01-09 14h37.52.900746 -0500,
,"[0.2, 0.1]",None,,,,,,,,,0.0,39.0,39.0,39.0,398.4100573000033,,,,,,,,,,,,,,,,,,,,,,,,,,,,,,,,,,,,,,,,,,,,,,,,,,,,,,,,,,,,,,,,398.3943527000083,398.4100573000033,398.4100573000033,398.9099525000056,398.8931775000092,401.39329580000776,401.3934930999967,None,1.0,,,,,,nback46,1.0,2024-01-09_13h49.09.067,untitled,2023.2.3,59.92969048721344,2024-01-09 14h37.52.900746 -0500,
,,,,,,,,,,,,,,,,,,,,,,,,,,,,,,,,,,,,,,,,,,,,,,,,,,,,,,,,,,,,,,,,,,,,,,,,,,,,,,,,,,,,,,,,,,401.3940246999992,401.4098120999988,404.3932230000064,,,,,,,,
