square,location,corrAns,trials_0.thisRepN,trials_0.thisTrialN,trials_0.thisN,trials_0.thisIndex,trials_1.thisRepN,trials_1.thisTrialN,trials_1.thisN,trials_1.thisIndex,trials_2.thisRepN,trials_2.thisTrialN,trials_2.thisN,trials_2.thisIndex,thisRow.t,notes,Instructions.started,instructions.started,key_resp.started,inst_sq11.started,Instructions.stopped,key_resp.keys,key_resp.rt,key_resp.duration,All.started,sq_1.started,sq_2.started,sq_3.started,sq_4.started,sq_5.started,sq_6.started,sq_7.started,sq_8.started,sq_9.started,sq_10.started,sq_11.started,sq_12.started,All.stopped,Fixation.started,fixation_3.started,fixation_3.stopped,Fixation.stopped,N_back_0_Trial.started,target_square_0.started,response_0.started,fixation_0.started,target_square_0.stopped,fixation_0.stopped,response_0.stopped,N_back_0_Trial.stopped,response_0.keys,response_0.corr,response_0.rt,response_0.duration,Instructions_1.started,instructions_1.started,key_resp_1.started,Instructions_1.stopped,key_resp_1.keys,key_resp_1.rt,key_resp_1.duration,N_back_1_Trial.started,target_square_1.started,response_1.started,target_square_1.stopped,fixation_1.started,fixation_1.stopped,response_1.stopped,N_back_1_Trial.stopped,response_1.keys,response_1.corr,response_1.rt,response_1.duration,Instructions_2.started,instructions_2.started,key_resp_2.started,Instructions_2.stopped,key_resp_2.keys,key_resp_2.rt,key_resp_2.duration,N_back_2_trials.started,target_square_2.started,response_2.started,target_square_2.stopped,fixation_2.started,fixation_2.stopped,response_2.stopped,N_back_2_trials.stopped,response_2.keys,response_2.corr,response_2.rt,response_2.duration,End.started,thank_you.started,thank_you.stopped,End.stopped,participant,session,date,expName,psychopyVersion,frameRate,expStart,Unnamed: 104
,,,,,,,,,,,,,,,,,0.001243699924089,0.0036096000112593,0.0036096000112593,0.0036096000112593,2419.2982695000246,space,2419.2919797999784,None,,,,,,,,,,,,,,,,,,,,,,,,,,,,,,,,,,,,,,,,,,,,,,,,,,,,,,,,,,,,,,,,,,,,,,,,,nback10,1.0,2023-12-07_19h15.11.770,untitled,2023.2.3,60.09593715699712,2023-12-07 19h15.26.445572 -0500,
6.0,"[-0.3, 0]",None,0.0,0.0,0.0,0.0,,,,,,,,,2421.3130476999795,,,,,,,,,,2419.298321099952,2419.3132768999785,2419.3132768999785,2419.3132768999785,2419.3132768999785,2419.3132768999785,2419.3132768999785,2419.3132768999785,2419.3132768999785,2419.3132768999785,2419.3132768999785,2419.3132768999785,2419.3132768999785,2420.296916799969,2420.2969286999432,2420.313109299983,2421.3130476999795,2421.2969774999656,2421.310751299956,2421.3130476999795,2421.3130476999795,2421.796741800033,2421.813378999941,2424.296516899951,2424.3131839999696,2424.297346599982,None,1.0,,,,,,,,,,,,,,,,,,,,,,,,,,,,,,,,,,,,,,,,,,,,,nback10,1.0,2023-12-07_19h15.11.770,untitled,2023.2.3,60.09593715699712,2023-12-07 19h15.26.445572 -0500,
10.0,"[0, -0.2]",None,0.0,1.0,1.0,1.0,,,,,,,,,2424.3131839999696,,,,,,,,,,,,,,,,,,,,,,,,,,,,2424.298135799938,2424.3131839999696,2424.3131839999696,2424.796500599943,2424.813115200028,2427.296514399932,2427.3134290999733,2427.296929799952,None,1.0,,,,,,,,,,,,,,,,,,,,,,,,,,,,,,,,,,,,,,,,,,,,,nback10,1.0,2023-12-07_19h15.11.770,untitled,2023.2.3,60.09593715699712,2023-12-07 19h15.26.445572 -0500,
11.0,"[-0.64, -0.4]",space,0.0,2.0,2.0,2.0,,,,,,,,,2427.3134290999733,,,,,,,,,,,,,,,,,,,,,,,,,,,,2427.297507099924,2427.3134290999733,2427.3134290999733,2427.7964382999344,2427.812925199978,2430.296397499973,2430.312946800026,2430.297248799936,space,1.0,0.4980205000611022,None,,,,,,,,,,,,,,,,,,,,,,,,,,,,,,,,,,,,,,,,,,,nback10,1.0,2023-12-07_19h15.11.770,untitled,2023.2.3,60.09593715699712,2023-12-07 19h15.26.445572 -0500,
12.0,"[0.64, -0.4]",None,0.0,3.0,3.0,3.0,,,,,,,,,2430.312946800026,,,,,,,,,,,,,,,,,,,,,,,,,,,,2430.2982534000184,2430.312946800026,2430.312946800026,2430.796350399964,2430.8130689000245,2433.296571000013,2433.3130703999195,2433.297436099965,None,1.0,,,,,,,,,,,,,,,,,,,,,,,,,,,,,,,,,,,,,,,,,,,,,nback10,1.0,2023-12-07_19h15.11.770,untitled,2023.2.3,60.09593715699712,2023-12-07 19h15.26.445572 -0500,
1.0,"[-0.64, 0.4]",None,0.0,4.0,4.0,4.0,,,,,,,,,2433.3130703999195,,,,,,,,,,,,,,,,,,,,,,,,,,,,2433.2981179999188,2433.3130703999195,2433.3130703999195,2433.796299599926,2433.812886400032,2436.29633729998,2436.313125199988,2436.297331299982,None,1.0,,,,,,,,,,,,,,,,,,,,,,,,,,,,,,,,,,,,,,,,,,,,,nback10,1.0,2023-12-07_19h15.11.770,untitled,2023.2.3,60.09593715699712,2023-12-07 19h15.26.445572 -0500,
1.0,"[-0.64, 0.4]",None,0.0,5.0,5.0,5.0,,,,,,,,,2436.313125199988,,,,,,,,,,,,,,,,,,,,,,,,,,,,2436.2980958999838,2436.313125199988,2436.313125199988,2436.796295800013,2436.812947999919,2439.296287099947,2439.3128683000105,2439.296885999968,None,1.0,,,,,,,,,,,,,,,,,,,,,,,,,,,,,,,,,,,,,,,,,,,,,nback10,1.0,2023-12-07_19h15.11.770,untitled,2023.2.3,60.09593715699712,2023-12-07 19h15.26.445572 -0500,
4.0,"[-0.2, 0.1]",None,0.0,6.0,6.0,6.0,,,,,,,,,2439.3128683000105,,,,,,,,,,,,,,,,,,,,,,,,,,,,2439.2972752000205,2439.3128683000105,2439.3128683000105,2439.7963440000312,2439.812775700004,2442.29624029994,2442.31278129993,2442.2970487999264,None,1.0,,,,,,,,,,,,,,,,,,,,,,,,,,,,,,,,,,,,,,,,,,,,,nback10,1.0,2023-12-07_19h15.11.770,untitled,2023.2.3,60.09593715699712,2023-12-07 19h15.26.445572 -0500,
5.0,"[0.2, 0.1]",None,0.0,7.0,7.0,7.0,,,,,,,,,2442.31278129993,,,,,,,,,,,,,,,,,,,,,,,,,,,,2442.297869800008,2442.31278129993,2442.31278129993,2442.796206500032,2442.812875299948,2445.2961109000025,2445.3128559000324,2445.29695540003,None,1.0,,,,,,,,,,,,,,,,,,,,,,,,,,,,,,,,,,,,,,,,,,,,,nback10,1.0,2023-12-07_19h15.11.770,untitled,2023.2.3,60.09593715699712,2023-12-07 19h15.26.445572 -0500,
11.0,"[-0.64, -0.4]",space,0.0,8.0,8.0,8.0,,,,,,,,,2445.3128559000324,,,,,,,,,,,,,,,,,,,,,,,,,,,,2445.2976182999555,2445.3128559000324,2445.3128559000324,2445.812733999919,2445.812733999919,2448.312747900025,2448.312747900025,2448.297109799925,space,1.0,0.3927811000030488,None,,,,,,,,,,,,,,,,,,,,,,,,,,,,,,,,,,,,,,,,,,,nback10,1.0,2023-12-07_19h15.11.770,untitled,2023.2.3,60.09593715699712,2023-12-07 19h15.26.445572 -0500,
9.0,"[0.2, -0.1]",None,0.0,9.0,9.0,9.0,,,,,,,,,2448.312747900025,,,,,,,,,,,,,,,,,,,,,,,,,,,,2448.2979965999257,2448.312747900025,2448.312747900025,2448.796042999951,2448.8127170000225,2451.296098700026,2451.312631399953,2451.2969605999533,None,1.0,,,,,,,,,,,,,,,,,,,,,,,,,,,,,,,,,,,,,,,,,,,,,nback10,1.0,2023-12-07_19h15.11.770,untitled,2023.2.3,60.09593715699712,2023-12-07 19h15.26.445572 -0500,
8.0,"[-0.2, -0.1]",None,0.0,10.0,10.0,10.0,,,,,,,,,2451.312631399953,,,,,,,,,,,,,,,,,,,,,,,,,,,,2451.2978143999358,2451.312631399953,2451.312631399953,2451.79598429997,2451.81274329999,2454.2959649999398,2454.312527399976,2454.2965523999883,None,1.0,,,,,,,,,,,,,,,,,,,,,,,,,,,,,,,,,,,,,,,,,,,,,nback10,1.0,2023-12-07_19h15.11.770,untitled,2023.2.3,60.09593715699712,2023-12-07 19h15.26.445572 -0500,
9.0,"[0.2, -0.1]",None,0.0,11.0,11.0,11.0,,,,,,,,,2454.312527399976,,,,,,,,,,,,,,,,,,,,,,,,,,,,2454.2968668999383,2454.312527399976,2454.312527399976,2454.795911399997,2454.8124996999977,2457.2960104999365,2457.3125872999663,2457.2969186999835,None,1.0,,,,,,,,,,,,,,,,,,,,,,,,,,,,,,,,,,,,,,,,,,,,,nback10,1.0,2023-12-07_19h15.11.770,untitled,2023.2.3,60.09593715699712,2023-12-07 19h15.26.445572 -0500,
6.0,"[-0.3, 0]",None,0.0,12.0,12.0,12.0,,,,,,,,,2457.3125872999663,,,,,,,,,,,,,,,,,,,,,,,,,,,,2457.2976088,2457.3125872999663,2457.3125872999663,2457.7959934999235,2457.8125138999894,2460.2958725999342,2460.31261319993,2460.296605099924,None,1.0,,,,,,,,,,,,,,,,,,,,,,,,,,,,,,,,,,,,,,,,,,,,,nback10,1.0,2023-12-07_19h15.11.770,untitled,2023.2.3,60.09593715699712,2023-12-07 19h15.26.445572 -0500,
9.0,"[0.2, -0.1]",None,0.0,13.0,13.0,13.0,,,,,,,,,2460.31261319993,,,,,,,,,,,,,,,,,,,,,,,,,,,,2460.2972551999846,2460.31261319993,2460.31261319993,2460.812395500019,2460.812395500019,2463.3123669000342,2463.3123669000342,2463.2964876999613,None,1.0,,,,,,,,,,,,,,,,,,,,,,,,,,,,,,,,,,,,,,,,,,,,,nback10,1.0,2023-12-07_19h15.11.770,untitled,2023.2.3,60.09593715699712,2023-12-07 19h15.26.445572 -0500,
7.0,"[0.3, 0]",None,0.0,14.0,14.0,14.0,,,,,,,,,2463.3123669000342,,,,,,,,,,,,,,,,,,,,,,,,,,,,2463.29716279998,2463.3123669000342,2463.3123669000342,2463.812557899975,2463.812557899975,2466.3124449999304,2466.3124449999304,2466.2966868999647,None,1.0,,,,,,,,,,,,,,,,,,,,,,,,,,,,,,,,,,,,,,,,,,,,,nback10,1.0,2023-12-07_19h15.11.770,untitled,2023.2.3,60.09593715699712,2023-12-07 19h15.26.445572 -0500,
2.0,"[0.64, 0.4]",None,0.0,15.0,15.0,15.0,,,,,,,,,2466.3124449999304,,,,,,,,,,,,,,,,,,,,,,,,,,,,2466.297332999995,2466.3124449999304,2466.3124449999304,2466.8125306,2466.8125306,2469.312268199981,2469.312268199981,2469.2965368999867,None,1.0,,,,,,,,,,,,,,,,,,,,,,,,,,,,,,,,,,,,,,,,,,,,,nback10,1.0,2023-12-07_19h15.11.770,untitled,2023.2.3,60.09593715699712,2023-12-07 19h15.26.445572 -0500,
2.0,"[0.64, 0.4]",None,0.0,16.0,16.0,16.0,,,,,,,,,2469.312268199981,,,,,,,,,,,,,,,,,,,,,,,,,,,,2469.297146099969,2469.312268199981,2469.312268199981,2469.812420399976,2469.812420399976,2472.3132278999547,2472.3132278999547,2472.299062000005,None,1.0,,,,,,,,,,,,,,,,,,,,,,,,,,,,,,,,,,,,,,,,,,,,,nback10,1.0,2023-12-07_19h15.11.770,untitled,2023.2.3,60.09593715699712,2023-12-07 19h15.26.445572 -0500,
11.0,"[-0.64, -0.4]",space,0.0,17.0,17.0,17.0,,,,,,,,,2472.3132278999547,,,,,,,,,,,,,,,,,,,,,,,,,,,,2472.3019235000247,2472.3132278999547,2472.3132278999547,2472.812251299969,2472.812251299969,2475.312217299943,2475.312217299943,2475.296517499956,space,1.0,0.383353800047189,None,,,,,,,,,,,,,,,,,,,,,,,,,,,,,,,,,,,,,,,,,,,nback10,1.0,2023-12-07_19h15.11.770,untitled,2023.2.3,60.09593715699712,2023-12-07 19h15.26.445572 -0500,
11.0,"[-0.64, -0.4]",space,0.0,18.0,18.0,18.0,,,,,,,,,2475.312217299943,,,,,,,,,,,,,,,,,,,,,,,,,,,,2475.297316399985,2475.312217299943,2475.312217299943,2475.8122534999857,2475.8122534999857,2478.3122109000105,2478.3122109000105,2478.2964254999533,space,1.0,0.4605713000055402,None,,,,,,,,,,,,,,,,,,,,,,,,,,,,,,,,,,,,,,,,,,,nback10,1.0,2023-12-07_19h15.11.770,untitled,2023.2.3,60.09593715699712,2023-12-07 19h15.26.445572 -0500,
7.0,"[0.3, 0]",None,0.0,19.0,19.0,19.0,,,,,,,,,2478.3122109000105,,,,,,,,,,,,,,,,,,,,,,,,,,,,2478.297237799969,2478.3122109000105,2478.3122109000105,2478.812218499952,2478.812218499952,2481.3120835999725,2481.3120835999725,2481.2963418000145,None,1.0,,,,,,,,,,,,,,,,,,,,,,,,,,,,,,,,,,,,,,,,,,,,,nback10,1.0,2023-12-07_19h15.11.770,untitled,2023.2.3,60.09593715699712,2023-12-07 19h15.26.445572 -0500,
3.0,"[0, 0.2]",None,0.0,20.0,20.0,20.0,,,,,,,,,2481.3120835999725,,,,,,,,,,,,,,,,,,,,,,,,,,,,2481.2969728999306,2481.3120835999725,2481.3120835999725,2481.812180100009,2481.812180100009,2484.312221899978,2484.312221899978,2484.2961096999934,None,1.0,,,,,,,,,,,,,,,,,,,,,,,,,,,,,,,,,,,,,,,,,,,,,nback10,1.0,2023-12-07_19h15.11.770,untitled,2023.2.3,60.09593715699712,2023-12-07 19h15.26.445572 -0500,
10.0,"[0, -0.2]",None,0.0,21.0,21.0,21.0,,,,,,,,,2484.312221899978,,,,,,,,,,,,,,,,,,,,,,,,,,,,2484.296594799962,2484.312221899978,2484.312221899978,2484.8121265999507,2484.8121265999507,2487.3119492999977,2487.3119492999977,2487.2960538000334,None,1.0,,,,,,,,,,,,,,,,,,,,,,,,,,,,,,,,,,,,,,,,,,,,,nback10,1.0,2023-12-07_19h15.11.770,untitled,2023.2.3,60.09593715699712,2023-12-07 19h15.26.445572 -0500,
1.0,"[-0.64, 0.4]",None,0.0,22.0,22.0,22.0,,,,,,,,,2487.3119492999977,,,,,,,,,,,,,,,,,,,,,,,,,,,,2487.2966525999364,2487.3119492999977,2487.3119492999977,2487.812088100007,2487.812088100007,2490.3120900000213,2490.3120900000213,2490.2961540999822,None,1.0,,,,,,,,,,,,,,,,,,,,,,,,,,,,,,,,,,,,,,,,,,,,,nback10,1.0,2023-12-07_19h15.11.770,untitled,2023.2.3,60.09593715699712,2023-12-07 19h15.26.445572 -0500,
2.0,"[0.64, 0.4]",None,0.0,23.0,23.0,23.0,,,,,,,,,2490.3120900000213,,,,,,,,,,,,,,,,,,,,,,,,,,,,2490.2967635999667,2490.3120900000213,2490.3120900000213,2490.812052399968,2490.812052399968,2493.312140599941,2493.312140599941,2493.2961250999942,None,1.0,,,,,,,,,,,,,,,,,,,,,,,,,,,,,,,,,,,,,,,,,,,,,nback10,1.0,2023-12-07_19h15.11.770,untitled,2023.2.3,60.09593715699712,2023-12-07 19h15.26.445572 -0500,
6.0,"[-0.3, 0]",None,0.0,24.0,24.0,24.0,,,,,,,,,2493.312140599941,,,,,,,,,,,,,,,,,,,,,,,,,,,,2493.2967456999468,2493.312140599941,2493.312140599941,2493.812004599953,2493.812004599953,2496.311820199946,2496.311820199946,2496.296046899981,None,1.0,,,,,,,,,,,,,,,,,,,,,,,,,,,,,,,,,,,,,,,,,,,,,nback10,1.0,2023-12-07_19h15.11.770,untitled,2023.2.3,60.09593715699712,2023-12-07 19h15.26.445572 -0500,
3.0,"[0, 0.2]",None,0.0,25.0,25.0,25.0,,,,,,,,,2496.311820199946,,,,,,,,,,,,,,,,,,,,,,,,,,,,2496.2967068,2496.311820199946,2496.311820199946,2496.812026300002,2496.812026300002,2499.3119259999366,2499.3119259999366,2499.2958087000297,None,1.0,,,,,,,,,,,,,,,,,,,,,,,,,,,,,,,,,,,,,,,,,,,,,nback10,1.0,2023-12-07_19h15.11.770,untitled,2023.2.3,60.09593715699712,2023-12-07 19h15.26.445572 -0500,
11.0,"[-0.64, -0.4]",space,0.0,26.0,26.0,26.0,,,,,,,,,2499.3119259999366,,,,,,,,,,,,,,,,,,,,,,,,,,,,2499.296359000029,2499.3119259999366,2499.3119259999366,2499.8118199999444,2499.8118199999444,2502.311940699932,2502.311940699932,2502.295746000018,space,1.0,0.3873154000611976,None,,,,,,,,,,,,,,,,,,,,,,,,,,,,,,,,,,,,,,,,,,,nback10,1.0,2023-12-07_19h15.11.770,untitled,2023.2.3,60.09593715699712,2023-12-07 19h15.26.445572 -0500,
1.0,"[-0.64, 0.4]",None,0.0,27.0,27.0,27.0,,,,,,,,,2502.311940699932,,,,,,,,,,,,,,,,,,,,,,,,,,,,2502.2967308999505,2502.311940699932,2502.311940699932,2502.8117248000344,2502.8117248000344,2505.3117883999366,2505.3117883999366,2505.296189300017,None,1.0,,,,,,,,,,,,,,,,,,,,,,,,,,,,,,,,,,,,,,,,,,,,,nback10,1.0,2023-12-07_19h15.11.770,untitled,2023.2.3,60.09593715699712,2023-12-07 19h15.26.445572 -0500,
3.0,"[0, 0.2]",None,0.0,28.0,28.0,28.0,,,,,,,,,2505.3117883999366,,,,,,,,,,,,,,,,,,,,,,,,,,,,2505.297026999993,2505.3117883999366,2505.3117883999366,2505.8118378999643,2505.8118378999643,2508.3118834999623,2508.3118834999623,2508.296117299935,None,1.0,,,,,,,,,,,,,,,,,,,,,,,,,,,,,,,,,,,,,,,,,,,,,nback10,1.0,2023-12-07_19h15.11.770,untitled,2023.2.3,60.09593715699712,2023-12-07 19h15.26.445572 -0500,
9.0,"[0.2, -0.1]",None,0.0,29.0,29.0,29.0,,,,,,,,,2508.3118834999623,,,,,,,,,,,,,,,,,,,,,,,,,,,,2508.296880599926,2508.3118834999623,2508.3118834999623,2508.811802499928,2508.811802499928,2511.311612599995,2511.311612599995,2511.295536599937,None,1.0,,,,,,,,,,,,,,,,,,,,,,,,,,,,,,,,,,,,,,,,,,,,,nback10,1.0,2023-12-07_19h15.11.770,untitled,2023.2.3,60.09593715699712,2023-12-07 19h15.26.445572 -0500,
8.0,"[-0.2, -0.1]",None,0.0,30.0,30.0,30.0,,,,,,,,,2511.311612599995,,,,,,,,,,,,,,,,,,,,,,,,,,,,2511.295876099961,2511.311612599995,2511.311612599995,2511.811616000021,2511.811616000021,2514.3116890999954,2514.3116890999954,2514.295878499979,None,1.0,,,,,,,,,,,,,,,,,,,,,,,,,,,,,,,,,,,,,,,,,,,,,nback10,1.0,2023-12-07_19h15.11.770,untitled,2023.2.3,60.09593715699712,2023-12-07 19h15.26.445572 -0500,
12.0,"[0.64, -0.4]",None,0.0,31.0,31.0,31.0,,,,,,,,,2514.3116890999954,,,,,,,,,,,,,,,,,,,,,,,,,,,,2514.2966860999586,2514.3116890999954,2514.3116890999954,2514.811591299949,2514.811591299949,2517.3118139000144,2517.3118139000144,2517.295976600028,None,1.0,,,,,,,,,,,,,,,,,,,,,,,,,,,,,,,,,,,,,,,,,,,,,nback10,1.0,2023-12-07_19h15.11.770,untitled,2023.2.3,60.09593715699712,2023-12-07 19h15.26.445572 -0500,
9.0,"[0.2, -0.1]",None,0.0,32.0,32.0,32.0,,,,,,,,,2517.3118139000144,,,,,,,,,,,,,,,,,,,,,,,,,,,,2517.2967640999705,2517.3118139000144,2517.3118139000144,2517.811611799989,2517.811611799989,2520.311465499922,2520.311465499922,2520.295661699958,None,1.0,,,,,,,,,,,,,,,,,,,,,,,,,,,,,,,,,,,,,,,,,,,,,nback10,1.0,2023-12-07_19h15.11.770,untitled,2023.2.3,60.09593715699712,2023-12-07 19h15.26.445572 -0500,
11.0,"[-0.64, -0.4]",space,0.0,33.0,33.0,33.0,,,,,,,,,2520.311465499922,,,,,,,,,,,,,,,,,,,,,,,,,,,,2520.2962599999737,2520.311465499922,2520.311465499922,2520.811550999992,2520.811550999992,2523.3115400000243,2523.3115400000243,2523.295841199928,space,1.0,0.3939628000371158,None,,,,,,,,,,,,,,,,,,,,,,,,,,,,,,,,,,,,,,,,,,,nback10,1.0,2023-12-07_19h15.11.770,untitled,2023.2.3,60.09593715699712,2023-12-07 19h15.26.445572 -0500,
7.0,"[0.3, 0]",None,0.0,34.0,34.0,34.0,,,,,,,,,2523.3115400000243,,,,,,,,,,,,,,,,,,,,,,,,,,,,2523.296845500008,2523.3115400000243,2523.3115400000243,2523.811373299919,2523.811373299919,2526.311561599956,2526.311561599956,2526.295383599936,None,1.0,,,,,,,,,,,,,,,,,,,,,,,,,,,,,,,,,,,,,,,,,,,,,nback10,1.0,2023-12-07_19h15.11.770,untitled,2023.2.3,60.09593715699712,2023-12-07 19h15.26.445572 -0500,
11.0,"[-0.64, -0.4]",space,0.0,35.0,35.0,35.0,,,,,,,,,2526.311561599956,,,,,,,,,,,,,,,,,,,,,,,,,,,,2526.295866200002,2526.311561599956,2526.311561599956,2526.81136339996,2526.81136339996,2529.3113545000087,2529.3113545000087,2529.2957548999693,space,1.0,0.39700339990668,None,,,,,,,,,,,,,,,,,,,,,,,,,,,,,,,,,,,,,,,,,,,nback10,1.0,2023-12-07_19h15.11.770,untitled,2023.2.3,60.09593715699712,2023-12-07 19h15.26.445572 -0500,
4.0,"[-0.2, 0.1]",None,0.0,36.0,36.0,36.0,,,,,,,,,2529.3113545000087,,,,,,,,,,,,,,,,,,,,,,,,,,,,2529.2964517999208,2529.3113545000087,2529.3113545000087,2529.8112084999448,2529.8112084999448,2532.311226799968,2532.311226799968,2532.2955712999683,None,1.0,,,,,,,,,,,,,,,,,,,,,,,,,,,,,,,,,,,,,,,,,,,,,nback10,1.0,2023-12-07_19h15.11.770,untitled,2023.2.3,60.09593715699712,2023-12-07 19h15.26.445572 -0500,
5.0,"[0.2, 0.1]",None,0.0,37.0,37.0,37.0,,,,,,,,,2532.311226799968,,,,,,,,,,,,,,,,,,,,,,,,,,,,2532.2962183000054,2532.311226799968,2532.311226799968,2532.811517699971,2532.811517699971,2535.311263200012,2535.311263200012,2535.2952261000173,None,1.0,,,,,,,,,,,,,,,,,,,,,,,,,,,,,,,,,,,,,,,,,,,,,nback10,1.0,2023-12-07_19h15.11.770,untitled,2023.2.3,60.09593715699712,2023-12-07 19h15.26.445572 -0500,
6.0,"[-0.3, 0]",None,0.0,38.0,38.0,38.0,,,,,,,,,2535.311263200012,,,,,,,,,,,,,,,,,,,,,,,,,,,,2535.29589910002,2535.311263200012,2535.311263200012,2535.8113214999903,2535.8113214999903,2538.311530999956,2538.311530999956,2538.295290199924,None,1.0,,,,,,,,,,,,,,,,,,,,,,,,,,,,,,,,,,,,,,,,,,,,,nback10,1.0,2023-12-07_19h15.11.770,untitled,2023.2.3,60.09593715699712,2023-12-07 19h15.26.445572 -0500,
11.0,"[-0.64, -0.4]",space,0.0,39.0,39.0,39.0,,,,,,,,,2538.311530999956,,,,,,,,,,,,,,,,,,,,,,,,,,,,2538.2961045999546,2538.311530999956,2538.311530999956,2538.811250000028,2538.811250000028,2541.3113349999767,2541.3113349999767,2541.29558809998,space,1.0,0.393360499991104,None,,,,,,,,,,,,,,,,,,,,,,,,,,,,,,,,,,,,,,,,,,,nback10,1.0,2023-12-07_19h15.11.770,untitled,2023.2.3,60.09593715699712,2023-12-07 19h15.26.445572 -0500,
,,,,,,,,,,,,,,,,,,,,,,,,,,,,,,,,,,,,,,,,,,,,,,,,,,,,,,,2541.2963116000174,2541.3113349999767,2541.3113349999767,2586.745341599919,space,45.42750630003866,None,,,,,,,,,,,,,,,,,,,,,,,,,,,,,,,,,,,,nback10,1.0,2023-12-07_19h15.11.770,untitled,2023.2.3,60.09593715699712,2023-12-07 19h15.26.445572 -0500,
10.0,"[0, -0.2]",None,,,,,0.0,0.0,0.0,0.0,,,,,2587.7605333999963,,,,,,,,,,,,,,,,,,,,,,,,2586.745378499967,2586.760321700014,2587.7605333999963,2587.744326199987,,,,,,,,,,,,,,,,,,,,2587.7537020000163,2587.7605333999963,2587.7605333999963,2588.260413100012,2588.260413100012,2590.7604583000066,2590.7604583000066,2590.744443899952,None,1.0,,,,,,,,,,,,,,,,,,,,,,,,,,nback10,1.0,2023-12-07_19h15.11.770,untitled,2023.2.3,60.09593715699712,2023-12-07 19h15.26.445572 -0500,
5.0,"[0.2, 0.1]",None,,,,,0.0,1.0,1.0,1.0,,,,,2590.7604583000066,,,,,,,,,,,,,,,,,,,,,,,,,,,,,,,,,,,,,,,,,,,,,,,2590.745237999945,2590.7604583000066,2590.7604583000066,2591.2602510999423,2591.2602510999423,2593.7602436000016,2593.7602436000016,2593.7446574999485,None,1.0,,,,,,,,,,,,,,,,,,,,,,,,,,nback10,1.0,2023-12-07_19h15.11.770,untitled,2023.2.3,60.09593715699712,2023-12-07 19h15.26.445572 -0500,
6.0,"[-0.3, 0]",None,,,,,0.0,2.0,2.0,2.0,,,,,2593.7602436000016,,,,,,,,,,,,,,,,,,,,,,,,,,,,,,,,,,,,,,,,,,,,,,,2593.745558899944,2593.7602436000016,2593.7602436000016,2594.260265199933,2594.260265199933,2596.7602504999377,2596.7602504999377,2596.744516299921,None,1.0,,,,,,,,,,,,,,,,,,,,,,,,,,nback10,1.0,2023-12-07_19h15.11.770,untitled,2023.2.3,60.09593715699712,2023-12-07 19h15.26.445572 -0500,
6.0,"[-0.3, 0]",space,,,,,0.0,3.0,3.0,3.0,,,,,2596.7602504999377,,,,,,,,,,,,,,,,,,,,,,,,,,,,,,,,,,,,,,,,,,,,,,,2596.745178399957,2596.7602504999377,2596.7602504999377,2597.260234999936,2597.260234999936,2599.760055699968,2599.760055699968,2599.7439678999363,space,1.0,0.4668837001081556,None,,,,,,,,,,,,,,,,,,,,,,,,nback10,1.0,2023-12-07_19h15.11.770,untitled,2023.2.3,60.09593715699712,2023-12-07 19h15.26.445572 -0500,
12.0,"[0.64, -0.4]",None,,,,,0.0,4.0,4.0,4.0,,,,,2599.760055699968,,,,,,,,,,,,,,,,,,,,,,,,,,,,,,,,,,,,,,,,,,,,,,,2599.7444150999654,2599.760055699968,2599.760055699968,2600.2601502999896,2600.2601502999896,2602.7604132000124,2602.7604132000124,2602.7441679999465,None,1.0,,,,,,,,,,,,,,,,,,,,,,,,,,nback10,1.0,2023-12-07_19h15.11.770,untitled,2023.2.3,60.09593715699712,2023-12-07 19h15.26.445572 -0500,
10.0,"[0, -0.2]",None,,,,,0.0,5.0,5.0,5.0,,,,,2602.7604132000124,,,,,,,,,,,,,,,,,,,,,,,,,,,,,,,,,,,,,,,,,,,,,,,2602.744640599936,2602.7604132000124,2602.7604132000124,2603.2601494999835,2603.2601494999835,2605.759841599968,2605.759841599968,2605.7438556000125,None,1.0,,,,,,,,,,,,,,,,,,,,,,,,,,nback10,1.0,2023-12-07_19h15.11.770,untitled,2023.2.3,60.09593715699712,2023-12-07 19h15.26.445572 -0500,
2.0,"[0.64, 0.4]",None,,,,,0.0,6.0,6.0,6.0,,,,,2605.759841599968,,,,,,,,,,,,,,,,,,,,,,,,,,,,,,,,,,,,,,,,,,,,,,,2605.7443392999703,2605.759841599968,2605.759841599968,2606.260082899942,2606.260082899942,2608.7600890999893,2608.7600890999893,2608.744279299979,None,1.0,,,,,,,,,,,,,,,,,,,,,,,,,,nback10,1.0,2023-12-07_19h15.11.770,untitled,2023.2.3,60.09593715699712,2023-12-07 19h15.26.445572 -0500,
9.0,"[0.2, -0.1]",None,,,,,0.0,7.0,7.0,7.0,,,,,2608.7600890999893,,,,,,,,,,,,,,,,,,,,,,,,,,,,,,,,,,,,,,,,,,,,,,,2608.7448942000046,2608.7600890999893,2608.7600890999893,2609.259930299944,2609.259930299944,2611.7600251999684,2611.7600251999684,2611.744429299957,None,1.0,,,,,,,,,,,,,,,,,,,,,,,,,,nback10,1.0,2023-12-07_19h15.11.770,untitled,2023.2.3,60.09593715699712,2023-12-07 19h15.26.445572 -0500,
9.0,"[0.2, -0.1]",space,,,,,0.0,8.0,8.0,8.0,,,,,2611.7600251999684,,,,,,,,,,,,,,,,,,,,,,,,,,,,,,,,,,,,,,,,,,,,,,,2611.745155100012,2611.7600251999684,2611.7600251999684,2612.259943999932,2612.259943999932,2614.760102899978,2614.760102899978,2614.74376480002,space,1.0,0.4961433999706059,None,,,,,,,,,,,,,,,,,,,,,,,,nback10,1.0,2023-12-07_19h15.11.770,untitled,2023.2.3,60.09593715699712,2023-12-07 19h15.26.445572 -0500,
6.0,"[-0.3, 0]",None,,,,,0.0,9.0,9.0,9.0,,,,,2614.760102899978,,,,,,,,,,,,,,,,,,,,,,,,,,,,,,,,,,,,,,,,,,,,,,,2614.744441799936,2614.760102899978,2614.760102899978,2615.259877000004,2615.259877000004,2617.759956200025,2617.759956200025,2617.744356799987,None,1.0,,,,,,,,,,,,,,,,,,,,,,,,,,nback10,1.0,2023-12-07_19h15.11.770,untitled,2023.2.3,60.09593715699712,2023-12-07 19h15.26.445572 -0500,
11.0,"[-0.64, -0.4]",None,,,,,0.0,10.0,10.0,10.0,,,,,2617.759956200025,,,,,,,,,,,,,,,,,,,,,,,,,,,,,,,,,,,,,,,,,,,,,,,2617.7450805000262,2617.759956200025,2617.759956200025,2618.259834300028,2618.259834300028,2620.7598172000144,2620.7598172000144,2620.743864199961,None,1.0,,,,,,,,,,,,,,,,,,,,,,,,,,nback10,1.0,2023-12-07_19h15.11.770,untitled,2023.2.3,60.09593715699712,2023-12-07 19h15.26.445572 -0500,
11.0,"[-0.64, -0.4]",space,,,,,0.0,11.0,11.0,11.0,,,,,2620.7598172000144,,,,,,,,,,,,,,,,,,,,,,,,,,,,,,,,,,,,,,,,,,,,,,,2620.7445727000013,2620.7598172000144,2620.7598172000144,2621.2599065999966,2621.2599065999966,2623.7597676999867,2623.7597676999867,2623.744306799956,space,1.0,0.3908189000794664,None,,,,,,,,,,,,,,,,,,,,,,,,nback10,1.0,2023-12-07_19h15.11.770,untitled,2023.2.3,60.09593715699712,2023-12-07 19h15.26.445572 -0500,
4.0,"[-0.2, 0.1]",None,,,,,0.0,12.0,12.0,12.0,,,,,2623.7597676999867,,,,,,,,,,,,,,,,,,,,,,,,,,,,,,,,,,,,,,,,,,,,,,,2623.7451823999872,2623.7597676999867,2623.7597676999867,2624.259858299978,2624.259858299978,2626.7599012999563,2626.7599012999563,2626.743635199964,None,1.0,,,,,,,,,,,,,,,,,,,,,,,,,,nback10,1.0,2023-12-07_19h15.11.770,untitled,2023.2.3,60.09593715699712,2023-12-07 19h15.26.445572 -0500,
3.0,"[0, 0.2]",None,,,,,0.0,13.0,13.0,13.0,,,,,2626.7599012999563,,,,,,,,,,,,,,,,,,,,,,,,,,,,,,,,,,,,,,,,,,,,,,,2626.744313100004,2626.7599012999563,2626.7599012999563,2627.2596225999296,2627.2596225999296,2629.7596016000025,2629.7596016000025,2629.743927899981,None,1.0,,,,,,,,,,,,,,,,,,,,,,,,,,nback10,1.0,2023-12-07_19h15.11.770,untitled,2023.2.3,60.09593715699712,2023-12-07 19h15.26.445572 -0500,
3.0,"[0, 0.2]",space,,,,,0.0,14.0,14.0,14.0,,,,,2629.7596016000025,,,,,,,,,,,,,,,,,,,,,,,,,,,,,,,,,,,,,,,,,,,,,,,2629.744732499937,2629.7596016000025,2629.7596016000025,2630.259566599969,2630.259566599969,2632.759633900016,2632.759633900016,2632.744316800032,space,1.0,0.3801076000090688,None,,,,,,,,,,,,,,,,,,,,,,,,nback10,1.0,2023-12-07_19h15.11.770,untitled,2023.2.3,60.09593715699712,2023-12-07 19h15.26.445572 -0500,
8.0,"[-0.2, -0.1]",None,,,,,0.0,15.0,15.0,15.0,,,,,2632.759633900016,,,,,,,,,,,,,,,,,,,,,,,,,,,,,,,,,,,,,,,,,,,,,,,2632.745256799972,2632.759633900016,2632.759633900016,2633.2596533999317,2633.2596533999317,2635.7596403999487,2635.7596403999487,2635.744085400016,None,1.0,,,,,,,,,,,,,,,,,,,,,,,,,,nback10,1.0,2023-12-07_19h15.11.770,untitled,2023.2.3,60.09593715699712,2023-12-07 19h15.26.445572 -0500,
1.0,"[-0.64, 0.4]",None,,,,,0.0,16.0,16.0,16.0,,,,,2635.7596403999487,,,,,,,,,,,,,,,,,,,,,,,,,,,,,,,,,,,,,,,,,,,,,,,2635.745027799974,2635.7596403999487,2635.7596403999487,2636.259744299925,2636.259744299925,2638.7596113999607,2638.7596113999607,2638.7436582000228,None,1.0,,,,,,,,,,,,,,,,,,,,,,,,,,nback10,1.0,2023-12-07_19h15.11.770,untitled,2023.2.3,60.09593715699712,2023-12-07 19h15.26.445572 -0500,
2.0,"[0.64, 0.4]",None,,,,,0.0,17.0,17.0,17.0,,,,,2638.7596113999607,,,,,,,,,,,,,,,,,,,,,,,,,,,,,,,,,,,,,,,,,,,,,,,2638.7441765000112,2638.7596113999607,2638.7596113999607,2639.260327899945,2639.260327899945,2641.759495500009,2641.759495500009,2641.743799699936,None,1.0,,,,,,,,,,,,,,,,,,,,,,,,,,nback10,1.0,2023-12-07_19h15.11.770,untitled,2023.2.3,60.09593715699712,2023-12-07 19h15.26.445572 -0500,
4.0,"[-0.2, 0.1]",None,,,,,0.0,18.0,18.0,18.0,,,,,2641.759495500009,,,,,,,,,,,,,,,,,,,,,,,,,,,,,,,,,,,,,,,,,,,,,,,2641.7444849000312,2641.759495500009,2641.759495500009,2642.2592947999947,2642.2592947999947,2644.759481200017,2644.759481200017,2644.743611700018,None,1.0,,,,,,,,,,,,,,,,,,,,,,,,,,nback10,1.0,2023-12-07_19h15.11.770,untitled,2023.2.3,60.09593715699712,2023-12-07 19h15.26.445572 -0500,
4.0,"[-0.2, 0.1]",space,,,,,0.0,19.0,19.0,19.0,,,,,2644.759481200017,,,,,,,,,,,,,,,,,,,,,,,,,,,,,,,,,,,,,,,,,,,,,,,2644.7442259999225,2644.759481200017,2644.759481200017,2645.259466500021,2645.259466500021,2647.759314100025,2647.759314100025,2647.743670900003,space,1.0,1.6732687000185251,None,,,,,,,,,,,,,,,,,,,,,,,,nback10,1.0,2023-12-07_19h15.11.770,untitled,2023.2.3,60.09593715699712,2023-12-07 19h15.26.445572 -0500,
8.0,"[-0.2, -0.1]",None,,,,,0.0,20.0,20.0,20.0,,,,,2647.759314100025,,,,,,,,,,,,,,,,,,,,,,,,,,,,,,,,,,,,,,,,,,,,,,,2647.744514600025,2647.759314100025,2647.759314100025,2648.2593921999214,2648.2593921999214,2650.7595278000226,2650.7595278000226,2650.743312699953,None,1.0,,,,,,,,,,,,,,,,,,,,,,,,,,nback10,1.0,2023-12-07_19h15.11.770,untitled,2023.2.3,60.09593715699712,2023-12-07 19h15.26.445572 -0500,
5.0,"[0.2, 0.1]",None,,,,,0.0,21.0,21.0,21.0,,,,,2650.7595278000226,,,,,,,,,,,,,,,,,,,,,,,,,,,,,,,,,,,,,,,,,,,,,,,2650.743750200025,2650.7595278000226,2650.7595278000226,2651.2593588000163,2651.2593588000163,2653.759168999968,2653.759168999968,2653.743236399954,None,1.0,,,,,,,,,,,,,,,,,,,,,,,,,,nback10,1.0,2023-12-07_19h15.11.770,untitled,2023.2.3,60.09593715699712,2023-12-07 19h15.26.445572 -0500,
5.0,"[0.2, 0.1]",space,,,,,0.0,22.0,22.0,22.0,,,,,2653.759168999968,,,,,,,,,,,,,,,,,,,,,,,,,,,,,,,,,,,,,,,,,,,,,,,2653.7438327999557,2653.759168999968,2653.759168999968,2654.2592864999315,2654.2592864999315,2656.759238800034,2656.759238800034,2656.7435416999506,space,1.0,0.757757700048387,None,,,,,,,,,,,,,,,,,,,,,,,,nback10,1.0,2023-12-07_19h15.11.770,untitled,2023.2.3,60.09593715699712,2023-12-07 19h15.26.445572 -0500,
1.0,"[-0.64, 0.4]",None,,,,,0.0,23.0,23.0,23.0,,,,,2656.759238800034,,,,,,,,,,,,,,,,,,,,,,,,,,,,,,,,,,,,,,,,,,,,,,,2656.7444439999526,2656.759238800034,2656.759238800034,2657.2593933999306,2657.2593933999306,2659.7593144000275,2659.7593144000275,2659.7433018999877,None,1.0,,,,,,,,,,,,,,,,,,,,,,,,,,nback10,1.0,2023-12-07_19h15.11.770,untitled,2023.2.3,60.09593715699712,2023-12-07 19h15.26.445572 -0500,
3.0,"[0, 0.2]",None,,,,,0.0,24.0,24.0,24.0,,,,,2659.7593144000275,,,,,,,,,,,,,,,,,,,,,,,,,,,,,,,,,,,,,,,,,,,,,,,2659.7440789999678,2659.7593144000275,2659.7593144000275,2660.259118799935,2660.259118799935,2662.7592711999314,2662.7592711999314,2662.74327169999,None,1.0,,,,,,,,,,,,,,,,,,,,,,,,,,nback10,1.0,2023-12-07_19h15.11.770,untitled,2023.2.3,60.09593715699712,2023-12-07 19h15.26.445572 -0500,
6.0,"[-0.3, 0]",None,,,,,0.0,25.0,25.0,25.0,,,,,2662.7592711999314,,,,,,,,,,,,,,,,,,,,,,,,,,,,,,,,,,,,,,,,,,,,,,,2662.7438062999863,2662.7592711999314,2662.7592711999314,2663.259162500035,2663.259162500035,2665.7590125999413,2665.7590125999413,2665.743218599935,None,1.0,,,,,,,,,,,,,,,,,,,,,,,,,,nback10,1.0,2023-12-07_19h15.11.770,untitled,2023.2.3,60.09593715699712,2023-12-07 19h15.26.445572 -0500,
1.0,"[-0.64, 0.4]",None,,,,,0.0,26.0,26.0,26.0,,,,,2665.7590125999413,,,,,,,,,,,,,,,,,,,,,,,,,,,,,,,,,,,,,,,,,,,,,,,2665.743862099945,2665.7590125999413,2665.7590125999413,2666.259167299955,2666.259167299955,2668.7589906000067,2668.7589906000067,2668.743335600011,None,1.0,,,,,,,,,,,,,,,,,,,,,,,,,,nback10,1.0,2023-12-07_19h15.11.770,untitled,2023.2.3,60.09593715699712,2023-12-07 19h15.26.445572 -0500,
1.0,"[-0.64, 0.4]",space,,,,,0.0,27.0,27.0,27.0,,,,,2668.7589906000067,,,,,,,,,,,,,,,,,,,,,,,,,,,,,,,,,,,,,,,,,,,,,,,2668.7440311999526,2668.7589906000067,2668.7589906000067,2669.2591150000226,2669.2591150000226,2671.7590896999463,2671.7590896999463,2671.7430175000336,space,1.0,0.6511464000213891,None,,,,,,,,,,,,,,,,,,,,,,,,nback10,1.0,2023-12-07_19h15.11.770,untitled,2023.2.3,60.09593715699712,2023-12-07 19h15.26.445572 -0500,
1.0,"[-0.64, 0.4]",space,,,,,0.0,28.0,28.0,28.0,,,,,2671.7590896999463,,,,,,,,,,,,,,,,,,,,,,,,,,,,,,,,,,,,,,,,,,,,,,,2671.7437871999573,2671.7590896999463,2671.7590896999463,2672.258891799953,2672.258891799953,2674.758870200021,2674.758870200021,2674.74310089997,space,1.0,1.0085282999789342,None,,,,,,,,,,,,,,,,,,,,,,,,nback10,1.0,2023-12-07_19h15.11.770,untitled,2023.2.3,60.09593715699712,2023-12-07 19h15.26.445572 -0500,
3.0,"[0, 0.2]",None,,,,,0.0,29.0,29.0,29.0,,,,,2674.758870200021,,,,,,,,,,,,,,,,,,,,,,,,,,,,,,,,,,,,,,,,,,,,,,,2674.743813299923,2674.758870200021,2674.758870200021,2675.258785599959,2675.258785599959,2677.7589051999385,2677.7589051999385,2677.743258700008,None,1.0,,,,,,,,,,,,,,,,,,,,,,,,,,nback10,1.0,2023-12-07_19h15.11.770,untitled,2023.2.3,60.09593715699712,2023-12-07 19h15.26.445572 -0500,
12.0,"[0.64, -0.4]",None,,,,,0.0,30.0,30.0,30.0,,,,,2677.7589051999385,,,,,,,,,,,,,,,,,,,,,,,,,,,,,,,,,,,,,,,,,,,,,,,2677.744062599959,2677.7589051999385,2677.7589051999385,2678.258996499935,2678.258996499935,2680.7587793000275,2680.7587793000275,2680.7429938999703,None,1.0,,,,,,,,,,,,,,,,,,,,,,,,,,nback10,1.0,2023-12-07_19h15.11.770,untitled,2023.2.3,60.09593715699712,2023-12-07 19h15.26.445572 -0500,
12.0,"[0.64, -0.4]",space,,,,,0.0,31.0,31.0,31.0,,,,,2680.7587793000275,,,,,,,,,,,,,,,,,,,,,,,,,,,,,,,,,,,,,,,,,,,,,,,2680.743805999984,2680.7587793000275,2680.7587793000275,2681.258793200017,2681.258793200017,2683.7588859000243,2683.7588859000243,2683.7432127000066,space,1.0,0.8555247999029234,None,,,,,,,,,,,,,,,,,,,,,,,,nback10,1.0,2023-12-07_19h15.11.770,untitled,2023.2.3,60.09593715699712,2023-12-07 19h15.26.445572 -0500,
2.0,"[0.64, 0.4]",None,,,,,0.0,32.0,32.0,32.0,,,,,2683.7588859000243,,,,,,,,,,,,,,,,,,,,,,,,,,,,,,,,,,,,,,,,,,,,,,,2683.744176800013,2683.7588859000243,2683.7588859000243,2684.2586853000103,2684.2586853000103,2686.758757499978,2686.758757499978,2686.742972799926,None,1.0,,,,,,,,,,,,,,,,,,,,,,,,,,nback10,1.0,2023-12-07_19h15.11.770,untitled,2023.2.3,60.09593715699712,2023-12-07 19h15.26.445572 -0500,
1.0,"[-0.64, 0.4]",None,,,,,0.0,33.0,33.0,33.0,,,,,2686.758757499978,,,,,,,,,,,,,,,,,,,,,,,,,,,,,,,,,,,,,,,,,,,,,,,2686.7435873999493,2686.758757499978,2686.758757499978,2687.2588368,2687.2588368,2689.7587802999187,2689.7587802999187,2689.742775499937,None,1.0,,,,,,,,,,,,,,,,,,,,,,,,,,nback10,1.0,2023-12-07_19h15.11.770,untitled,2023.2.3,60.09593715699712,2023-12-07 19h15.26.445572 -0500,
7.0,"[0.3, 0]",None,,,,,0.0,34.0,34.0,34.0,,,,,2689.7587802999187,,,,,,,,,,,,,,,,,,,,,,,,,,,,,,,,,,,,,,,,,,,,,,,2689.7433775999816,2689.7587802999187,2689.7587802999187,2690.2585935000097,2690.2585935000097,2692.7585519999266,2692.7585519999266,2692.7426512999227,None,1.0,,,,,,,,,,,,,,,,,,,,,,,,,,nback10,1.0,2023-12-07_19h15.11.770,untitled,2023.2.3,60.09593715699712,2023-12-07 19h15.26.445572 -0500,
7.0,"[0.3, 0]",space,,,,,0.0,35.0,35.0,35.0,,,,,2692.7585519999266,,,,,,,,,,,,,,,,,,,,,,,,,,,,,,,,,,,,,,,,,,,,,,,2692.7432531999657,2692.7585519999266,2692.7585519999266,2693.2587298,2693.2587298,2695.7586427999195,2695.7586427999195,2695.742616100004,space,1.0,0.7088140000123531,None,,,,,,,,,,,,,,,,,,,,,,,,nback10,1.0,2023-12-07_19h15.11.770,untitled,2023.2.3,60.09593715699712,2023-12-07 19h15.26.445572 -0500,
11.0,"[-0.64, -0.4]",None,,,,,0.0,36.0,36.0,36.0,,,,,2695.7586427999195,,,,,,,,,,,,,,,,,,,,,,,,,,,,,,,,,,,,,,,,,,,,,,,2695.743460800033,2695.7586427999195,2695.7586427999195,2696.2584662999725,2696.2584662999725,2698.758595500025,2698.758595500025,2698.742817600025,None,1.0,,,,,,,,,,,,,,,,,,,,,,,,,,nback10,1.0,2023-12-07_19h15.11.770,untitled,2023.2.3,60.09593715699712,2023-12-07 19h15.26.445572 -0500,
2.0,"[0.64, 0.4]",None,,,,,0.0,37.0,37.0,37.0,,,,,2698.758595500025,,,,,,,,,,,,,,,,,,,,,,,,,,,,,,,,,,,,,,,,,,,,,,,2698.74347570003,2698.758595500025,2698.758595500025,2699.258413799922,2699.258413799922,2701.758886400028,2701.758886400028,2701.7429055999964,None,1.0,,,,,,,,,,,,,,,,,,,,,,,,,,nback10,1.0,2023-12-07_19h15.11.770,untitled,2023.2.3,60.09593715699712,2023-12-07 19h15.26.445572 -0500,
6.0,"[-0.3, 0]",None,,,,,0.0,38.0,38.0,38.0,,,,,2701.758886400028,,,,,,,,,,,,,,,,,,,,,,,,,,,,,,,,,,,,,,,,,,,,,,,2701.743679999956,2701.758886400028,2701.758886400028,2702.258555599954,2702.258555599954,2704.758322699927,2704.758322699927,2704.7423206999665,None,1.0,,,,,,,,,,,,,,,,,,,,,,,,,,nback10,1.0,2023-12-07_19h15.11.770,untitled,2023.2.3,60.09593715699712,2023-12-07 19h15.26.445572 -0500,
10.0,"[0, -0.2]",None,,,,,0.0,39.0,39.0,39.0,,,,,2704.758322699927,,,,,,,,,,,,,,,,,,,,,,,,,,,,,,,,,,,,,,,,,,,,,,,2704.742645499995,2704.758322699927,2704.758322699927,2705.258415599936,2705.258415599936,2707.7589267999865,2707.7589267999865,2707.7424792000093,None,1.0,,,,,,,,,,,,,,,,,,,,,,,,,,nback10,1.0,2023-12-07_19h15.11.770,untitled,2023.2.3,60.09593715699712,2023-12-07 19h15.26.445572 -0500,
,,,,,,,,,,,,,,,,,,,,,,,,,,,,,,,,,,,,,,,,,,,,,,,,,,,,,,,,,,,,,,,,,,,,,,,,,,2707.7428536999505,2707.7589267999865,2707.7589267999865,2743.159126000013,space,35.39539090008475,None,,,,,,,,,,,,,,,,,nback10,1.0,2023-12-07_19h15.11.770,untitled,2023.2.3,60.09593715699712,2023-12-07 19h15.26.445572 -0500,
,"[0.2, 0.1]",None,,,,,,,,,0.0,0.0,0.0,0.0,2744.17444219999,,,,,,,,,,,,,,,,,,,,,,,,2743.159161099931,2743.174357699929,2744.17444219999,2744.158416699968,,,,,,,,,,,,,,,,,,,,,,,,,,,,,,,,,,,,,,,2744.168662299984,2744.17444219999,2744.17444219999,2744.67421810003,2744.67421810003,2747.174327799934,2747.174327799934,2747.1586070000194,None,1.0,,,,,,,nback10,1.0,2023-12-07_19h15.11.770,untitled,2023.2.3,60.09593715699712,2023-12-07 19h15.26.445572 -0500,
,"[0.64, 0.4]",None,,,,,,,,,0.0,1.0,1.0,1.0,2747.174327799934,,,,,,,,,,,,,,,,,,,,,,,,,,,,,,,,,,,,,,,,,,,,,,,,,,,,,,,,,,,,,,,,,,2747.1594786000205,2747.174327799934,2747.174327799934,2747.674086999963,2747.674086999963,2750.1743731999304,2750.1743731999304,2750.158247299958,None,1.0,,,,,,,nback10,1.0,2023-12-07_19h15.11.770,untitled,2023.2.3,60.09593715699712,2023-12-07 19h15.26.445572 -0500,
,"[-0.3, 0]",None,,,,,,,,,0.0,2.0,2.0,2.0,2750.1743731999304,,,,,,,,,,,,,,,,,,,,,,,,,,,,,,,,,,,,,,,,,,,,,,,,,,,,,,,,,,,,,,,,,,2750.158899300033,2750.1743731999304,2750.1743731999304,2750.6742036999203,2750.6742036999203,2753.1742946000304,2753.1742946000304,2753.158399399952,None,1.0,,,,,,,nback10,1.0,2023-12-07_19h15.11.770,untitled,2023.2.3,60.09593715699712,2023-12-07 19h15.26.445572 -0500,
,"[0.2, -0.1]",None,,,,,,,,,0.0,3.0,3.0,3.0,2753.1742946000304,,,,,,,,,,,,,,,,,,,,,,,,,,,,,,,,,,,,,,,,,,,,,,,,,,,,,,,,,,,,,,,,,,2753.1590201000217,2753.1742946000304,2753.1742946000304,2753.6742725999798,2753.6742725999798,2756.174207299948,2756.174207299948,2756.158345700009,None,1.0,,,,,,,nback10,1.0,2023-12-07_19h15.11.770,untitled,2023.2.3,60.09593715699712,2023-12-07 19h15.26.445572 -0500,
,"[0, 0.2]",None,,,,,,,,,0.0,4.0,4.0,4.0,2756.174207299948,,,,,,,,,,,,,,,,,,,,,,,,,,,,,,,,,,,,,,,,,,,,,,,,,,,,,,,,,,,,,,,,,,2756.159030099981,2756.174207299948,2756.174207299948,2756.674108700012,2756.674108700012,2759.173995899968,2759.173995899968,2759.158360100002,None,1.0,,,,,,,nback10,1.0,2023-12-07_19h15.11.770,untitled,2023.2.3,60.09593715699712,2023-12-07 19h15.26.445572 -0500,
,"[0.2, -0.1]",space,,,,,,,,,0.0,5.0,5.0,5.0,2759.173995899968,,,,,,,,,,,,,,,,,,,,,,,,,,,,,,,,,,,,,,,,,,,,,,,,,,,,,,,,,,,,,,,,,,2759.158896800014,2759.173995899968,2759.173995899968,2759.67420619994,2759.67420619994,2762.174087399966,2762.174087399966,2762.1582073000027,space,1.0,1.2389728999696672,None,,,,,nback10,1.0,2023-12-07_19h15.11.770,untitled,2023.2.3,60.09593715699712,2023-12-07 19h15.26.445572 -0500,
,"[0, -0.2]",None,,,,,,,,,0.0,6.0,6.0,6.0,2762.174087399966,,,,,,,,,,,,,,,,,,,,,,,,,,,,,,,,,,,,,,,,,,,,,,,,,,,,,,,,,,,,,,,,,,2762.159130099928,2762.174087399966,2762.174087399966,2762.674221199937,2762.674221199937,2765.174087599968,2765.174087599968,2765.1584417999256,None,1.0,,,,,,,nback10,1.0,2023-12-07_19h15.11.770,untitled,2023.2.3,60.09593715699712,2023-12-07 19h15.26.445572 -0500,
,"[0.64, -0.4]",None,,,,,,,,,0.0,7.0,7.0,7.0,2765.174087599968,,,,,,,,,,,,,,,,,,,,,,,,,,,,,,,,,,,,,,,,,,,,,,,,,,,,,,,,,,,,,,,,,,2765.159351499984,2765.174087599968,2765.174087599968,2765.673951899982,2765.673951899982,2768.1739387999987,2768.1739387999987,2768.158081099973,None,1.0,,,,,,,nback10,1.0,2023-12-07_19h15.11.770,untitled,2023.2.3,60.09593715699712,2023-12-07 19h15.26.445572 -0500,
,"[0.3, 0]",None,,,,,,,,,0.0,8.0,8.0,8.0,2768.1739387999987,,,,,,,,,,,,,,,,,,,,,,,,,,,,,,,,,,,,,,,,,,,,,,,,,,,,,,,,,,,,,,,,,,2768.158727400005,2768.1739387999987,2768.1739387999987,2768.673985600006,2768.673985600006,2771.1738478000043,2771.1738478000043,2771.157966000028,None,1.0,,,,,,,nback10,1.0,2023-12-07_19h15.11.770,untitled,2023.2.3,60.09593715699712,2023-12-07 19h15.26.445572 -0500,
,"[0.64, -0.4]",space,,,,,,,,,0.0,9.0,9.0,9.0,2771.1738478000043,,,,,,,,,,,,,,,,,,,,,,,,,,,,,,,,,,,,,,,,,,,,,,,,,,,,,,,,,,,,,,,,,,2771.1583340999205,2771.1738478000043,2771.1738478000043,2771.6740947000217,2771.6740947000217,2774.173956200015,2774.173956200015,2774.157945599989,space,1.0,0.9931620999705046,None,,,,,nback10,1.0,2023-12-07_19h15.11.770,untitled,2023.2.3,60.09593715699712,2023-12-07 19h15.26.445572 -0500,
,"[-0.64, 0.4]",None,,,,,,,,,0.0,10.0,10.0,10.0,2774.173956200015,,,,,,,,,,,,,,,,,,,,,,,,,,,,,,,,,,,,,,,,,,,,,,,,,,,,,,,,,,,,,,,,,,2774.1586126999464,2774.173956200015,2774.173956200015,2774.673985900008,2774.673985900008,2777.173870699946,2777.173870699946,2777.1575976000167,None,1.0,,,,,,,nback10,1.0,2023-12-07_19h15.11.770,untitled,2023.2.3,60.09593715699712,2023-12-07 19h15.26.445572 -0500,
,"[0.2, 0.1]",None,,,,,,,,,0.0,11.0,11.0,11.0,2777.173870699946,,,,,,,,,,,,,,,,,,,,,,,,,,,,,,,,,,,,,,,,,,,,,,,,,,,,,,,,,,,,,,,,,,2777.157956299954,2777.173870699946,2777.173870699946,2777.6737598000327,2777.6737598000327,2780.1739095000084,2780.1739095000084,2780.157584700035,None,1.0,,,,,,,nback10,1.0,2023-12-07_19h15.11.770,untitled,2023.2.3,60.09593715699712,2023-12-07 19h15.26.445572 -0500,
,"[0.3, 0]",None,,,,,,,,,0.0,12.0,12.0,12.0,2780.1739095000084,,,,,,,,,,,,,,,,,,,,,,,,,,,,,,,,,,,,,,,,,,,,,,,,,,,,,,,,,,,,,,,,,,2780.158091499936,2780.1739095000084,2780.1739095000084,2780.6738337000133,2780.6738337000133,2783.173897200031,2783.173897200031,2783.15803089994,None,1.0,,,,,,,nback10,1.0,2023-12-07_19h15.11.770,untitled,2023.2.3,60.09593715699712,2023-12-07 19h15.26.445572 -0500,
,"[0.2, 0.1]",space,,,,,,,,,0.0,13.0,13.0,13.0,2783.173897200031,,,,,,,,,,,,,,,,,,,,,,,,,,,,,,,,,,,,,,,,,,,,,,,,,,,,,,,,,,,,,,,,,,2783.1587573,2783.173897200031,2783.173897200031,2783.673942000023,2783.673942000023,2786.173594599939,2786.173594599939,2786.1577430999605,space,1.0,0.3949175000889227,None,,,,,nback10,1.0,2023-12-07_19h15.11.770,untitled,2023.2.3,60.09593715699712,2023-12-07 19h15.26.445572 -0500,
,"[-0.3, 0]",None,,,,,,,,,0.0,14.0,14.0,14.0,2786.173594599939,,,,,,,,,,,,,,,,,,,,,,,,,,,,,,,,,,,,,,,,,,,,,,,,,,,,,,,,,,,,,,,,,,2786.1585362999467,2786.173594599939,2786.173594599939,2786.6736335000023,2786.6736335000023,2789.173558700015,2789.173558700015,2789.1576416000025,None,1.0,,,,,,,nback10,1.0,2023-12-07_19h15.11.770,untitled,2023.2.3,60.09593715699712,2023-12-07 19h15.26.445572 -0500,
,"[0, 0.2]",None,,,,,,,,,0.0,15.0,15.0,15.0,2789.173558700015,,,,,,,,,,,,,,,,,,,,,,,,,,,,,,,,,,,,,,,,,,,,,,,,,,,,,,,,,,,,,,,,,,2789.15812519996,2789.173558700015,2789.173558700015,2789.6736974000232,2789.6736974000232,2792.1734562999336,2792.1734562999336,2792.157813000027,None,1.0,,,,,,,nback10,1.0,2023-12-07_19h15.11.770,untitled,2023.2.3,60.09593715699712,2023-12-07 19h15.26.445572 -0500,
,"[-0.3, 0]",space,,,,,,,,,0.0,16.0,16.0,16.0,2792.1734562999336,,,,,,,,,,,,,,,,,,,,,,,,,,,,,,,,,,,,,,,,,,,,,,,,,,,,,,,,,,,,,,,,,,2792.1583801999222,2792.1734562999336,2792.1734562999336,2792.673373400001,2792.673373400001,2795.173494699993,2795.173494699993,2795.157526099938,space,1.0,0.8539613999892026,None,,,,,nback10,1.0,2023-12-07_19h15.11.770,untitled,2023.2.3,60.09593715699712,2023-12-07 19h15.26.445572 -0500,
,"[-0.64, -0.4]",None,,,,,,,,,0.0,17.0,17.0,17.0,2795.173494699993,,,,,,,,,,,,,,,,,,,,,,,,,,,,,,,,,,,,,,,,,,,,,,,,,,,,,,,,,,,,,,,,,,2795.158128799987,2795.173494699993,2795.173494699993,2795.6734076000284,2795.6734076000284,2798.173407500028,2798.173407500028,2798.158225100022,None,1.0,,,,,,,nback10,1.0,2023-12-07_19h15.11.770,untitled,2023.2.3,60.09593715699712,2023-12-07 19h15.26.445572 -0500,
,"[-0.2, -0.1]",None,,,,,,,,,0.0,18.0,18.0,18.0,2798.173407500028,,,,,,,,,,,,,,,,,,,,,,,,,,,,,,,,,,,,,,,,,,,,,,,,,,,,,,,,,,,,,,,,,,2798.159023999935,2798.173407500028,2798.173407500028,2798.6735368999653,2798.6735368999653,2801.173606800032,2801.173606800032,2801.157721800031,None,1.0,,,,,,,nback10,1.0,2023-12-07_19h15.11.770,untitled,2023.2.3,60.09593715699712,2023-12-07 19h15.26.445572 -0500,
,"[0.2, -0.1]",None,,,,,,,,,0.0,19.0,19.0,19.0,2801.173606800032,,,,,,,,,,,,,,,,,,,,,,,,,,,,,,,,,,,,,,,,,,,,,,,,,,,,,,,,,,,,,,,,,,2801.1585716999834,2801.173606800032,2801.173606800032,2801.6734079000307,2801.6734079000307,2804.173316799919,2804.173316799919,2804.157361899968,None,1.0,,,,,,,nback10,1.0,2023-12-07_19h15.11.770,untitled,2023.2.3,60.09593715699712,2023-12-07 19h15.26.445572 -0500,
,"[0.2, -0.1]",None,,,,,,,,,0.0,20.0,20.0,20.0,2804.173316799919,,,,,,,,,,,,,,,,,,,,,,,,,,,,,,,,,,,,,,,,,,,,,,,,,,,,,,,,,,,,,,,,,,2804.157922699931,2804.173316799919,2804.173316799919,2804.673139899969,2804.673139899969,2807.1733241999755,2807.1733241999755,2807.157507300028,None,1.0,,,,,,,nback10,1.0,2023-12-07_19h15.11.770,untitled,2023.2.3,60.09593715699712,2023-12-07 19h15.26.445572 -0500,
,"[-0.64, 0.4]",None,,,,,,,,,0.0,21.0,21.0,21.0,2807.1733241999755,,,,,,,,,,,,,,,,,,,,,,,,,,,,,,,,,,,,,,,,,,,,,,,,,,,,,,,,,,,,,,,,,,2807.158216299955,2807.1733241999755,2807.1733241999755,2807.673377500032,2807.673377500032,2810.1733706999803,2810.1733706999803,2810.1575429999502,None,1.0,,,,,,,nback10,1.0,2023-12-07_19h15.11.770,untitled,2023.2.3,60.09593715699712,2023-12-07 19h15.26.445572 -0500,
,"[0, 0.2]",None,,,,,,,,,0.0,22.0,22.0,22.0,2810.1733706999803,,,,,,,,,,,,,,,,,,,,,,,,,,,,,,,,,,,,,,,,,,,,,,,,,,,,,,,,,,,,,,,,,,2810.158289199928,2810.1733706999803,2810.1733706999803,2810.673391700024,2810.673391700024,2813.173407400027,2813.173407400027,2813.157467699959,None,1.0,,,,,,,nback10,1.0,2023-12-07_19h15.11.770,untitled,2023.2.3,60.09593715699712,2023-12-07 19h15.26.445572 -0500,
,"[0.64, -0.4]",None,,,,,,,,,0.0,23.0,23.0,23.0,2813.173407400027,,,,,,,,,,,,,,,,,,,,,,,,,,,,,,,,,,,,,,,,,,,,,,,,,,,,,,,,,,,,,,,,,,2813.1580127000343,2813.173407400027,2813.173407400027,2813.6733515999517,2813.6733515999517,2816.1730576999253,2816.1730576999253,2816.157539699925,None,1.0,,,,,,,nback10,1.0,2023-12-07_19h15.11.770,untitled,2023.2.3,60.09593715699712,2023-12-07 19h15.26.445572 -0500,
,"[0, 0.2]",space,,,,,,,,,0.0,24.0,24.0,24.0,2816.1730576999253,,,,,,,,,,,,,,,,,,,,,,,,,,,,,,,,,,,,,,,,,,,,,,,,,,,,,,,,,,,,,,,,,,2816.158308099956,2816.1730576999253,2816.1730576999253,2816.6731021000305,2816.6731021000305,2819.173183499952,2819.173183499952,2819.1574553999817,space,1.0,0.8558267999906093,None,,,,,nback10,1.0,2023-12-07_19h15.11.770,untitled,2023.2.3,60.09593715699712,2023-12-07 19h15.26.445572 -0500,
,"[-0.2, 0.1]",None,,,,,,,,,0.0,25.0,25.0,25.0,2819.173183499952,,,,,,,,,,,,,,,,,,,,,,,,,,,,,,,,,,,,,,,,,,,,,,,,,,,,,,,,,,,,,,,,,,2819.1582789999666,2819.173183499952,2819.173183499952,2819.6731791000348,2819.6731791000348,2822.173283800017,2822.173283800017,2822.1574873999925,None,1.0,,,,,,,nback10,1.0,2023-12-07_19h15.11.770,untitled,2023.2.3,60.09593715699712,2023-12-07 19h15.26.445572 -0500,
,"[0.3, 0]",None,,,,,,,,,0.0,26.0,26.0,26.0,2822.173283800017,,,,,,,,,,,,,,,,,,,,,,,,,,,,,,,,,,,,,,,,,,,,,,,,,,,,,,,,,,,,,,,,,,2822.158479799982,2822.173283800017,2822.173283800017,2822.673167599947,2822.673167599947,2825.1732376000145,2825.1732376000145,2825.157446200028,None,1.0,,,,,,,nback10,1.0,2023-12-07_19h15.11.770,untitled,2023.2.3,60.09593715699712,2023-12-07 19h15.26.445572 -0500,
,"[-0.2, 0.1]",space,,,,,,,,,0.0,27.0,27.0,27.0,2825.1732376000145,,,,,,,,,,,,,,,,,,,,,,,,,,,,,,,,,,,,,,,,,,,,,,,,,,,,,,,,,,,,,,,,,,2825.1582658999832,2825.1732376000145,2825.1732376000145,2825.67301899998,2825.67301899998,2828.17303299997,2828.17303299997,2828.156922199996,space,1.0,0.985402400023304,None,,,,,nback10,1.0,2023-12-07_19h15.11.770,untitled,2023.2.3,60.09593715699712,2023-12-07 19h15.26.445572 -0500,
,"[-0.2, 0.1]",None,,,,,,,,,0.0,28.0,28.0,28.0,2828.17303299997,,,,,,,,,,,,,,,,,,,,,,,,,,,,,,,,,,,,,,,,,,,,,,,,,,,,,,,,,,,,,,,,,,2828.157653599977,2828.17303299997,2828.17303299997,2828.672994700028,2828.672994700028,2831.1727652000263,2831.1727652000263,2831.15692530002,None,1.0,,,,,,,nback10,1.0,2023-12-07_19h15.11.770,untitled,2023.2.3,60.09593715699712,2023-12-07 19h15.26.445572 -0500,
,"[0.2, 0.1]",None,,,,,,,,,0.0,29.0,29.0,29.0,2831.1727652000263,,,,,,,,,,,,,,,,,,,,,,,,,,,,,,,,,,,,,,,,,,,,,,,,,,,,,,,,,,,,,,,,,,2831.1572650999296,2831.1727652000263,2831.1727652000263,2831.6729074999457,2831.6729074999457,2834.1730949999765,2834.1730949999765,2834.156838799943,None,1.0,,,,,,,nback10,1.0,2023-12-07_19h15.11.770,untitled,2023.2.3,60.09593715699712,2023-12-07 19h15.26.445572 -0500,
,"[-0.64, -0.4]",None,,,,,,,,,0.0,30.0,30.0,30.0,2834.1730949999765,,,,,,,,,,,,,,,,,,,,,,,,,,,,,,,,,,,,,,,,,,,,,,,,,,,,,,,,,,,,,,,,,,2834.157381099998,2834.1730949999765,2834.1730949999765,2834.6729194999207,2834.6729194999207,2837.172900400008,2837.172900400008,2837.1570899999933,None,1.0,,,,,,,nback10,1.0,2023-12-07_19h15.11.770,untitled,2023.2.3,60.09593715699712,2023-12-07 19h15.26.445572 -0500,
,"[0, -0.2]",None,,,,,,,,,0.0,31.0,31.0,31.0,2837.172900400008,,,,,,,,,,,,,,,,,,,,,,,,,,,,,,,,,,,,,,,,,,,,,,,,,,,,,,,,,,,,,,,,,,2837.157747199992,2837.172900400008,2837.172900400008,2837.672905899933,2837.672905899933,2840.1726937999483,2840.1726937999483,2840.157251899945,None,1.0,,,,,,,nback10,1.0,2023-12-07_19h15.11.770,untitled,2023.2.3,60.09593715699712,2023-12-07 19h15.26.445572 -0500,
,"[-0.64, -0.4]",space,,,,,,,,,0.0,32.0,32.0,32.0,2840.1726937999483,,,,,,,,,,,,,,,,,,,,,,,,,,,,,,,,,,,,,,,,,,,,,,,,,,,,,,,,,,,,,,,,,,2840.158119700034,2840.1726937999483,2840.1726937999483,2840.672755299951,2840.672755299951,2843.172730499995,2843.172730499995,2843.156957100029,space,1.0,0.6421387000009418,None,,,,,nback10,1.0,2023-12-07_19h15.11.770,untitled,2023.2.3,60.09593715699712,2023-12-07 19h15.26.445572 -0500,
,"[0.64, 0.4]",None,,,,,,,,,0.0,33.0,33.0,33.0,2843.172730499995,,,,,,,,,,,,,,,,,,,,,,,,,,,,,,,,,,,,,,,,,,,,,,,,,,,,,,,,,,,,,,,,,,2843.1578189999564,2843.172730499995,2843.172730499995,2843.67287879996,2843.67287879996,2846.172932300018,2846.172932300018,2846.156947699957,None,1.0,,,,,,,nback10,1.0,2023-12-07_19h15.11.770,untitled,2023.2.3,60.09593715699712,2023-12-07 19h15.26.445572 -0500,
,"[-0.3, 0]",None,,,,,,,,,0.0,34.0,34.0,34.0,2846.172932300018,,,,,,,,,,,,,,,,,,,,,,,,,,,,,,,,,,,,,,,,,,,,,,,,,,,,,,,,,,,,,,,,,,2846.157604899956,2846.172932300018,2846.172932300018,2846.6724593000254,2846.6724593000254,2849.172839900013,2849.172839900013,2849.1568211999256,None,1.0,,,,,,,nback10,1.0,2023-12-07_19h15.11.770,untitled,2023.2.3,60.09593715699712,2023-12-07 19h15.26.445572 -0500,
,"[0.3, 0]",None,,,,,,,,,0.0,35.0,35.0,35.0,2849.172839900013,,,,,,,,,,,,,,,,,,,,,,,,,,,,,,,,,,,,,,,,,,,,,,,,,,,,,,,,,,,,,,,,,,2849.157444600016,2849.172839900013,2849.172839900013,2849.672615499934,2849.672615499934,2852.172568399925,2852.172568399925,2852.1567116000224,None,1.0,,,,,,,nback10,1.0,2023-12-07_19h15.11.770,untitled,2023.2.3,60.09593715699712,2023-12-07 19h15.26.445572 -0500,
,"[-0.3, 0]",space,,,,,,,,,0.0,36.0,36.0,36.0,2852.172568399925,,,,,,,,,,,,,,,,,,,,,,,,,,,,,,,,,,,,,,,,,,,,,,,,,,,,,,,,,,,,,,,,,,2852.157264099922,2852.172568399925,2852.172568399925,2852.672511299956,2852.672511299956,2855.172480899957,2855.172480899957,2855.157619699952,space,1.0,0.6991457000840455,None,,,,,nback10,1.0,2023-12-07_19h15.11.770,untitled,2023.2.3,60.09593715699712,2023-12-07 19h15.26.445572 -0500,
,"[0, -0.2]",None,,,,,,,,,0.0,37.0,37.0,37.0,2855.172480899957,,,,,,,,,,,,,,,,,,,,,,,,,,,,,,,,,,,,,,,,,,,,,,,,,,,,,,,,,,,,,,,,,,2855.1584680000087,2855.172480899957,2855.172480899957,2855.672453999985,2855.672453999985,2858.172428800026,2858.172428800026,2858.1561999999685,None,1.0,,,,,,,nback10,1.0,2023-12-07_19h15.11.770,untitled,2023.2.3,60.09593715699712,2023-12-07 19h15.26.445572 -0500,
,"[0.3, 0]",None,,,,,,,,,0.0,38.0,38.0,38.0,2858.172428800026,,,,,,,,,,,,,,,,,,,,,,,,,,,,,,,,,,,,,,,,,,,,,,,,,,,,,,,,,,,,,,,,,,2858.156595699955,2858.172428800026,2858.172428800026,2858.672368899919,2858.672368899919,2861.1723396999296,2861.1723396999296,2861.156518899952,None,1.0,,,,,,,nback10,1.0,2023-12-07_19h15.11.770,untitled,2023.2.3,60.09593715699712,2023-12-07 19h15.26.445572 -0500,
,"[0.2, 0.1]",None,,,,,,,,,0.0,39.0,39.0,39.0,2861.1723396999296,,,,,,,,,,,,,,,,,,,,,,,,,,,,,,,,,,,,,,,,,,,,,,,,,,,,,,,,,,,,,,,,,,2861.1571428999305,2861.1723396999296,2861.1723396999296,2861.672469299985,2861.672469299985,2864.172708099941,2864.172708099941,2864.1568697999464,None,1.0,,,,,,,nback10,1.0,2023-12-07_19h15.11.770,untitled,2023.2.3,60.09593715699712,2023-12-07 19h15.26.445572 -0500,
,,,,,,,,,,,,,,,,,,,,,,,,,,,,,,,,,,,,,,,,,,,,,,,,,,,,,,,,,,,,,,,,,,,,,,,,,,,,,,,,,,,,,,,,,,,,,2864.1574064999586,2864.172708099941,2867.1722906000214,2867.15661169996,,,,,,,,
