square,location,corrAns,trials_0.thisRepN,trials_0.thisTrialN,trials_0.thisN,trials_0.thisIndex,trials_1.thisRepN,trials_1.thisTrialN,trials_1.thisN,trials_1.thisIndex,trials_2.thisRepN,trials_2.thisTrialN,trials_2.thisN,trials_2.thisIndex,thisRow.t,notes,Instructions.started,instructions.started,key_resp.started,inst_sq11.started,Instructions.stopped,key_resp.keys,key_resp.rt,key_resp.duration,All.started,sq_1.started,sq_2.started,sq_3.started,sq_4.started,sq_5.started,sq_6.started,sq_7.started,sq_8.started,sq_9.started,sq_10.started,sq_11.started,sq_12.started,All.stopped,Fixation.started,fixation_3.started,fixation_3.stopped,Fixation.stopped,N_back_0_Trial.started,target_square_0.started,response_0.started,fixation_0.started,target_square_0.stopped,fixation_0.stopped,response_0.stopped,N_back_0_Trial.stopped,response_0.keys,response_0.corr,response_0.rt,response_0.duration,Instructions_1.started,instructions_1.started,key_resp_1.started,Instructions_1.stopped,key_resp_1.keys,key_resp_1.rt,key_resp_1.duration,N_back_1_Trial.started,target_square_1.started,response_1.started,target_square_1.stopped,fixation_1.started,fixation_1.stopped,response_1.stopped,N_back_1_Trial.stopped,response_1.keys,response_1.corr,response_1.rt,response_1.duration,Instructions_2.started,instructions_2.started,key_resp_2.started,Instructions_2.stopped,key_resp_2.keys,key_resp_2.rt,key_resp_2.duration,N_back_2_trials.started,target_square_2.started,response_2.started,target_square_2.stopped,fixation_2.started,fixation_2.stopped,response_2.stopped,N_back_2_trials.stopped,response_2.keys,response_2.corr,response_2.rt,response_2.duration,End.started,thank_you.started,thank_you.stopped,End.stopped,participant,session,date,expName,psychopyVersion,frameRate,expStart,Unnamed: 104
,,,,,,,,,,,,,,,,,0.0013562000822275,0.0039258999750018,0.0039258999750018,0.0039258999750018,1540.158772900002,space,1540.1423588001635,None,,,,,,,,,,,,,,,,,,,,,,,,,,,,,,,,,,,,,,,,,,,,,,,,,,,,,,,,,,,,,,,,,,,,,,,,,nback78,1.0,2024-01-30_17h50.17.682,untitled,2023.2.3,60.0611783486012,2024-01-30 18h14.22.215861 -0500,
6.0,"[-0.3, 0]",None,0.0,0.0,0.0,0.0,,,,,,,,,1542.173599800095,,,,,,,,,,1540.1588169001045,1540.173856700072,1540.173856700072,1540.173856700072,1540.173856700072,1540.173856700072,1540.173856700072,1540.173856700072,1540.173856700072,1540.173856700072,1540.173856700072,1540.173856700072,1540.173856700072,1541.1577139999715,1541.1577286999673,1541.1738052000292,1542.173599800095,1542.1580394001212,1542.171436100034,1542.173599800095,1542.173599800095,1542.6570359999314,1542.673674999969,1545.1570892001037,1545.1737977000885,1545.1580396001227,space,0.0,0.0501526000443846,None,,,,,,,,,,,,,,,,,,,,,,,,,,,,,,,,,,,,,,,,,,,nback78,1.0,2024-01-30_17h50.17.682,untitled,2023.2.3,60.0611783486012,2024-01-30 18h14.22.215861 -0500,
10.0,"[0, -0.2]",None,0.0,1.0,1.0,1.0,,,,,,,,,1545.1737977000885,,,,,,,,,,,,,,,,,,,,,,,,,,,,1545.159161899937,1545.1737977000885,1545.1737977000885,1545.6570516000502,1545.67367119994,1548.1569950000849,1548.1743711000308,1548.157892700052,None,1.0,,,,,,,,,,,,,,,,,,,,,,,,,,,,,,,,,,,,,,,,,,,,,nback78,1.0,2024-01-30_17h50.17.682,untitled,2023.2.3,60.0611783486012,2024-01-30 18h14.22.215861 -0500,
11.0,"[-0.64, -0.4]",space,0.0,2.0,2.0,2.0,,,,,,,,,1548.1743711000308,,,,,,,,,,,,,,,,,,,,,,,,,,,,1548.1586426000576,1548.1743711000308,1548.1743711000308,1548.6568209000395,1548.6736646001227,1551.1571064000018,1551.1736580999568,1551.1579712000675,space,1.0,0.6498229000717402,None,,,,,,,,,,,,,,,,,,,,,,,,,,,,,,,,,,,,,,,,,,,nback78,1.0,2024-01-30_17h50.17.682,untitled,2023.2.3,60.0611783486012,2024-01-30 18h14.22.215861 -0500,
12.0,"[0.64, -0.4]",None,0.0,3.0,3.0,3.0,,,,,,,,,1551.1736580999568,,,,,,,,,,,,,,,,,,,,,,,,,,,,1551.158854200039,1551.1736580999568,1551.1736580999568,1551.656838099938,1551.673677999992,1554.156930899946,1554.1736294000875,1554.1579498001374,None,1.0,,,,,,,,,,,,,,,,,,,,,,,,,,,,,,,,,,,,,,,,,,,,,nback78,1.0,2024-01-30_17h50.17.682,untitled,2023.2.3,60.0611783486012,2024-01-30 18h14.22.215861 -0500,
1.0,"[-0.64, 0.4]",None,0.0,4.0,4.0,4.0,,,,,,,,,1554.1736294000875,,,,,,,,,,,,,,,,,,,,,,,,,,,,1554.1586710999254,1554.1736294000875,1554.1736294000875,1554.673687899951,1554.673687899951,1557.1735648999456,1557.1735648999456,1557.1576257999986,None,1.0,,,,,,,,,,,,,,,,,,,,,,,,,,,,,,,,,,,,,,,,,,,,,nback78,1.0,2024-01-30_17h50.17.682,untitled,2023.2.3,60.0611783486012,2024-01-30 18h14.22.215861 -0500,
1.0,"[-0.64, 0.4]",None,0.0,5.0,5.0,5.0,,,,,,,,,1557.1735648999456,,,,,,,,,,,,,,,,,,,,,,,,,,,,1557.1582969001029,1557.1735648999456,1557.1735648999456,1557.656714499928,1557.6735102999955,1560.1567321999464,1560.173360500019,1560.1576892000155,None,1.0,,,,,,,,,,,,,,,,,,,,,,,,,,,,,,,,,,,,,,,,,,,,,nback78,1.0,2024-01-30_17h50.17.682,untitled,2023.2.3,60.0611783486012,2024-01-30 18h14.22.215861 -0500,
4.0,"[-0.2, 0.1]",None,0.0,6.0,6.0,6.0,,,,,,,,,1560.173360500019,,,,,,,,,,,,,,,,,,,,,,,,,,,,1560.1584795999806,1560.173360500019,1560.173360500019,1560.6566490000114,1560.673463300103,1563.1566886999644,1563.1735533999745,1563.157494700048,None,1.0,,,,,,,,,,,,,,,,,,,,,,,,,,,,,,,,,,,,,,,,,,,,,nback78,1.0,2024-01-30_17h50.17.682,untitled,2023.2.3,60.0611783486012,2024-01-30 18h14.22.215861 -0500,
5.0,"[0.2, 0.1]",None,0.0,7.0,7.0,7.0,,,,,,,,,1563.1735533999745,,,,,,,,,,,,,,,,,,,,,,,,,,,,1563.1581296001095,1563.1735533999745,1563.1735533999745,1563.6567091001198,1563.673309100093,1566.1568394999483,1566.173471499933,1566.1577842000406,None,1.0,,,,,,,,,,,,,,,,,,,,,,,,,,,,,,,,,,,,,,,,,,,,,nback78,1.0,2024-01-30_17h50.17.682,untitled,2023.2.3,60.0611783486012,2024-01-30 18h14.22.215861 -0500,
11.0,"[-0.64, -0.4]",space,0.0,8.0,8.0,8.0,,,,,,,,,1566.173471499933,,,,,,,,,,,,,,,,,,,,,,,,,,,,1566.15855069994,1566.173471499933,1566.173471499933,1566.6565688000992,1566.6731933001429,1569.1567075001076,1569.1735201000702,1569.1577081999276,space,1.0,0.5108990999870002,None,,,,,,,,,,,,,,,,,,,,,,,,,,,,,,,,,,,,,,,,,,,nback78,1.0,2024-01-30_17h50.17.682,untitled,2023.2.3,60.0611783486012,2024-01-30 18h14.22.215861 -0500,
9.0,"[0.2, -0.1]",None,0.0,9.0,9.0,9.0,,,,,,,,,1569.1735201000702,,,,,,,,,,,,,,,,,,,,,,,,,,,,1569.1585937000343,1569.1735201000702,1569.1735201000702,1569.6567796999589,1569.6734831000213,1572.156735900091,1572.1733510000631,1572.15773430001,None,1.0,,,,,,,,,,,,,,,,,,,,,,,,,,,,,,,,,,,,,,,,,,,,,nback78,1.0,2024-01-30_17h50.17.682,untitled,2023.2.3,60.0611783486012,2024-01-30 18h14.22.215861 -0500,
8.0,"[-0.2, -0.1]",None,0.0,10.0,10.0,10.0,,,,,,,,,1572.1733510000631,,,,,,,,,,,,,,,,,,,,,,,,,,,,1572.158519800054,1572.1733510000631,1572.1733510000631,1572.6733385999687,1572.6733385999687,1575.173384200083,1575.173384200083,1575.1577000999823,None,1.0,,,,,,,,,,,,,,,,,,,,,,,,,,,,,,,,,,,,,,,,,,,,,nback78,1.0,2024-01-30_17h50.17.682,untitled,2023.2.3,60.0611783486012,2024-01-30 18h14.22.215861 -0500,
9.0,"[0.2, -0.1]",None,0.0,11.0,11.0,11.0,,,,,,,,,1575.173384200083,,,,,,,,,,,,,,,,,,,,,,,,,,,,1575.1585252999794,1575.173384200083,1575.173384200083,1575.6565779999364,1575.6734434999526,1578.1564869000576,1578.173079200089,1578.1572628000283,None,1.0,,,,,,,,,,,,,,,,,,,,,,,,,,,,,,,,,,,,,,,,,,,,,nback78,1.0,2024-01-30_17h50.17.682,untitled,2023.2.3,60.0611783486012,2024-01-30 18h14.22.215861 -0500,
6.0,"[-0.3, 0]",None,0.0,12.0,12.0,12.0,,,,,,,,,1578.173079200089,,,,,,,,,,,,,,,,,,,,,,,,,,,,1578.1580012999475,1578.173079200089,1578.173079200089,1578.6731243999675,1578.6731243999675,1581.1731986000668,1581.1731986000668,1581.1573779999744,None,1.0,,,,,,,,,,,,,,,,,,,,,,,,,,,,,,,,,,,,,,,,,,,,,nback78,1.0,2024-01-30_17h50.17.682,untitled,2023.2.3,60.0611783486012,2024-01-30 18h14.22.215861 -0500,
9.0,"[0.2, -0.1]",None,0.0,13.0,13.0,13.0,,,,,,,,,1581.1731986000668,,,,,,,,,,,,,,,,,,,,,,,,,,,,1581.1581886000931,1581.1731986000668,1581.1731986000668,1581.6731583999936,1581.6731583999936,1584.173155500088,1584.173155500088,1584.1573117000517,None,1.0,,,,,,,,,,,,,,,,,,,,,,,,,,,,,,,,,,,,,,,,,,,,,nback78,1.0,2024-01-30_17h50.17.682,untitled,2023.2.3,60.0611783486012,2024-01-30 18h14.22.215861 -0500,
7.0,"[0.3, 0]",None,0.0,14.0,14.0,14.0,,,,,,,,,1584.173155500088,,,,,,,,,,,,,,,,,,,,,,,,,,,,1584.1580869001336,1584.173155500088,1584.173155500088,1584.6730776999611,1584.6730776999611,1587.1729622001294,1587.1729622001294,1587.1573127000593,None,1.0,,,,,,,,,,,,,,,,,,,,,,,,,,,,,,,,,,,,,,,,,,,,,nback78,1.0,2024-01-30_17h50.17.682,untitled,2023.2.3,60.0611783486012,2024-01-30 18h14.22.215861 -0500,
2.0,"[0.64, 0.4]",None,0.0,15.0,15.0,15.0,,,,,,,,,1587.1729622001294,,,,,,,,,,,,,,,,,,,,,,,,,,,,1587.1580664999783,1587.1729622001294,1587.1729622001294,1587.6730319999624,1587.6730319999624,1590.1727519000417,1590.1727519000417,1590.1569157999477,None,1.0,,,,,,,,,,,,,,,,,,,,,,,,,,,,,,,,,,,,,,,,,,,,,nback78,1.0,2024-01-30_17h50.17.682,untitled,2023.2.3,60.0611783486012,2024-01-30 18h14.22.215861 -0500,
2.0,"[0.64, 0.4]",None,0.0,16.0,16.0,16.0,,,,,,,,,1590.1727519000417,,,,,,,,,,,,,,,,,,,,,,,,,,,,1590.157990100095,1590.1727519000417,1590.1727519000417,1590.6731205999386,1590.6731205999386,1593.172944500111,1593.172944500111,1593.1570949000306,None,1.0,,,,,,,,,,,,,,,,,,,,,,,,,,,,,,,,,,,,,,,,,,,,,nback78,1.0,2024-01-30_17h50.17.682,untitled,2023.2.3,60.0611783486012,2024-01-30 18h14.22.215861 -0500,
11.0,"[-0.64, -0.4]",space,0.0,17.0,17.0,17.0,,,,,,,,,1593.172944500111,,,,,,,,,,,,,,,,,,,,,,,,,,,,1593.157709500054,1593.172944500111,1593.172944500111,1593.6730951000936,1593.6730951000936,1596.1729677000549,1596.1729677000549,1596.157190399943,space,1.0,0.8436170998029411,None,,,,,,,,,,,,,,,,,,,,,,,,,,,,,,,,,,,,,,,,,,,nback78,1.0,2024-01-30_17h50.17.682,untitled,2023.2.3,60.0611783486012,2024-01-30 18h14.22.215861 -0500,
11.0,"[-0.64, -0.4]",space,0.0,18.0,18.0,18.0,,,,,,,,,1596.1729677000549,,,,,,,,,,,,,,,,,,,,,,,,,,,,1596.15815449995,1596.1729677000549,1596.1729677000549,1596.6728286999278,1596.6728286999278,1599.1728268000295,1599.1728268000295,1599.157116400078,space,1.0,0.8032017999794334,None,,,,,,,,,,,,,,,,,,,,,,,,,,,,,,,,,,,,,,,,,,,nback78,1.0,2024-01-30_17h50.17.682,untitled,2023.2.3,60.0611783486012,2024-01-30 18h14.22.215861 -0500,
7.0,"[0.3, 0]",None,0.0,19.0,19.0,19.0,,,,,,,,,1599.1728268000295,,,,,,,,,,,,,,,,,,,,,,,,,,,,1599.1580425000284,1599.1728268000295,1599.1728268000295,1599.6727661001496,1599.6727661001496,1602.172787999967,1602.172787999967,1602.15708169993,None,1.0,,,,,,,,,,,,,,,,,,,,,,,,,,,,,,,,,,,,,,,,,,,,,nback78,1.0,2024-01-30_17h50.17.682,untitled,2023.2.3,60.0611783486012,2024-01-30 18h14.22.215861 -0500,
3.0,"[0, 0.2]",None,0.0,20.0,20.0,20.0,,,,,,,,,1602.172787999967,,,,,,,,,,,,,,,,,,,,,,,,,,,,1602.1577938001135,1602.172787999967,1602.172787999967,1602.67277309997,1602.67277309997,1605.1728600000497,1605.1728600000497,1605.1563856999855,None,1.0,,,,,,,,,,,,,,,,,,,,,,,,,,,,,,,,,,,,,,,,,,,,,nback78,1.0,2024-01-30_17h50.17.682,untitled,2023.2.3,60.0611783486012,2024-01-30 18h14.22.215861 -0500,
10.0,"[0, -0.2]",None,0.0,21.0,21.0,21.0,,,,,,,,,1605.1728600000497,,,,,,,,,,,,,,,,,,,,,,,,,,,,1605.1568430000916,1605.1728600000497,1605.1728600000497,1605.672935399925,1605.672935399925,1608.1727084000595,1608.1727084000595,1608.1569837001152,None,1.0,,,,,,,,,,,,,,,,,,,,,,,,,,,,,,,,,,,,,,,,,,,,,nback78,1.0,2024-01-30_17h50.17.682,untitled,2023.2.3,60.0611783486012,2024-01-30 18h14.22.215861 -0500,
1.0,"[-0.64, 0.4]",None,0.0,22.0,22.0,22.0,,,,,,,,,1608.1727084000595,,,,,,,,,,,,,,,,,,,,,,,,,,,,1608.157747300109,1608.1727084000595,1608.1727084000595,1608.6726373999843,1608.6726373999843,1611.1725878999569,1611.1725878999569,1611.1569298999384,None,1.0,,,,,,,,,,,,,,,,,,,,,,,,,,,,,,,,,,,,,,,,,,,,,nback78,1.0,2024-01-30_17h50.17.682,untitled,2023.2.3,60.0611783486012,2024-01-30 18h14.22.215861 -0500,
2.0,"[0.64, 0.4]",None,0.0,23.0,23.0,23.0,,,,,,,,,1611.1725878999569,,,,,,,,,,,,,,,,,,,,,,,,,,,,1611.157693000045,1611.1725878999569,1611.1725878999569,1611.6726774999406,1611.6726774999406,1614.172511199955,1614.172511199955,1614.156819900032,None,1.0,,,,,,,,,,,,,,,,,,,,,,,,,,,,,,,,,,,,,,,,,,,,,nback78,1.0,2024-01-30_17h50.17.682,untitled,2023.2.3,60.0611783486012,2024-01-30 18h14.22.215861 -0500,
6.0,"[-0.3, 0]",None,0.0,24.0,24.0,24.0,,,,,,,,,1614.172511199955,,,,,,,,,,,,,,,,,,,,,,,,,,,,1614.1575738999527,1614.172511199955,1614.172511199955,1614.672726500081,1614.672726500081,1617.1724211000835,1617.1724211000835,1617.1567379001062,None,1.0,,,,,,,,,,,,,,,,,,,,,,,,,,,,,,,,,,,,,,,,,,,,,nback78,1.0,2024-01-30_17h50.17.682,untitled,2023.2.3,60.0611783486012,2024-01-30 18h14.22.215861 -0500,
3.0,"[0, 0.2]",None,0.0,25.0,25.0,25.0,,,,,,,,,1617.1724211000835,,,,,,,,,,,,,,,,,,,,,,,,,,,,1617.157451099949,1617.1724211000835,1617.1724211000835,1617.672577399993,1617.672577399993,1620.1725141000934,1620.1725141000934,1620.1565563001204,None,1.0,,,,,,,,,,,,,,,,,,,,,,,,,,,,,,,,,,,,,,,,,,,,,nback78,1.0,2024-01-30_17h50.17.682,untitled,2023.2.3,60.0611783486012,2024-01-30 18h14.22.215861 -0500,
11.0,"[-0.64, -0.4]",space,0.0,26.0,26.0,26.0,,,,,,,,,1620.1725141000934,,,,,,,,,,,,,,,,,,,,,,,,,,,,1620.157156500034,1620.1725141000934,1620.1725141000934,1620.6725864999462,1620.6725864999462,1623.1724908000324,1623.1724908000324,1623.15680960007,space,1.0,0.5505464000161737,None,,,,,,,,,,,,,,,,,,,,,,,,,,,,,,,,,,,,,,,,,,,nback78,1.0,2024-01-30_17h50.17.682,untitled,2023.2.3,60.0611783486012,2024-01-30 18h14.22.215861 -0500,
1.0,"[-0.64, 0.4]",None,0.0,27.0,27.0,27.0,,,,,,,,,1623.1724908000324,,,,,,,,,,,,,,,,,,,,,,,,,,,,1623.157733200118,1623.1724908000324,1623.1724908000324,1623.672365100123,1623.672365100123,1626.17227690015,1626.17227690015,1626.156341199996,None,1.0,,,,,,,,,,,,,,,,,,,,,,,,,,,,,,,,,,,,,,,,,,,,,nback78,1.0,2024-01-30_17h50.17.682,untitled,2023.2.3,60.0611783486012,2024-01-30 18h14.22.215861 -0500,
3.0,"[0, 0.2]",None,0.0,28.0,28.0,28.0,,,,,,,,,1626.17227690015,,,,,,,,,,,,,,,,,,,,,,,,,,,,1626.156937400112,1626.17227690015,1626.17227690015,1626.6724847001024,1626.6724847001024,1629.172186800046,1629.172186800046,1629.15645530005,None,1.0,,,,,,,,,,,,,,,,,,,,,,,,,,,,,,,,,,,,,,,,,,,,,nback78,1.0,2024-01-30_17h50.17.682,untitled,2023.2.3,60.0611783486012,2024-01-30 18h14.22.215861 -0500,
9.0,"[0.2, -0.1]",None,0.0,29.0,29.0,29.0,,,,,,,,,1629.172186800046,,,,,,,,,,,,,,,,,,,,,,,,,,,,1629.157095799921,1629.172186800046,1629.172186800046,1629.6722816999536,1629.6722816999536,1632.172413600143,1632.172413600143,1632.1564390999265,None,1.0,,,,,,,,,,,,,,,,,,,,,,,,,,,,,,,,,,,,,,,,,,,,,nback78,1.0,2024-01-30_17h50.17.682,untitled,2023.2.3,60.0611783486012,2024-01-30 18h14.22.215861 -0500,
8.0,"[-0.2, -0.1]",None,0.0,30.0,30.0,30.0,,,,,,,,,1632.172413600143,,,,,,,,,,,,,,,,,,,,,,,,,,,,1632.157264499925,1632.172413600143,1632.172413600143,1632.6721163000911,1632.6721163000911,1635.1721668001264,1635.1721668001264,1635.156113100005,None,1.0,,,,,,,,,,,,,,,,,,,,,,,,,,,,,,,,,,,,,,,,,,,,,nback78,1.0,2024-01-30_17h50.17.682,untitled,2023.2.3,60.0611783486012,2024-01-30 18h14.22.215861 -0500,
12.0,"[0.64, -0.4]",None,0.0,31.0,31.0,31.0,,,,,,,,,1635.1721668001264,,,,,,,,,,,,,,,,,,,,,,,,,,,,1635.156767799985,1635.1721668001264,1635.1721668001264,1635.672141399933,1635.672141399933,1638.1721332001034,1638.1721332001034,1638.1565471999347,None,1.0,,,,,,,,,,,,,,,,,,,,,,,,,,,,,,,,,,,,,,,,,,,,,nback78,1.0,2024-01-30_17h50.17.682,untitled,2023.2.3,60.0611783486012,2024-01-30 18h14.22.215861 -0500,
9.0,"[0.2, -0.1]",None,0.0,32.0,32.0,32.0,,,,,,,,,1638.1721332001034,,,,,,,,,,,,,,,,,,,,,,,,,,,,1638.1573634999804,1638.1721332001034,1638.1721332001034,1638.6721688001417,1638.6721688001417,1641.1721723999362,1641.1721723999362,1641.1563842000903,None,1.0,,,,,,,,,,,,,,,,,,,,,,,,,,,,,,,,,,,,,,,,,,,,,nback78,1.0,2024-01-30_17h50.17.682,untitled,2023.2.3,60.0611783486012,2024-01-30 18h14.22.215861 -0500,
11.0,"[-0.64, -0.4]",space,0.0,33.0,33.0,33.0,,,,,,,,,1641.1721723999362,,,,,,,,,,,,,,,,,,,,,,,,,,,,1641.1571414000357,1641.1721723999362,1641.1721723999362,1641.6721173000988,1641.6721173000988,1644.1719893999398,1644.1719893999398,1644.1561513999477,space,1.0,0.6668193000368774,None,,,,,,,,,,,,,,,,,,,,,,,,,,,,,,,,,,,,,,,,,,,nback78,1.0,2024-01-30_17h50.17.682,untitled,2023.2.3,60.0611783486012,2024-01-30 18h14.22.215861 -0500,
7.0,"[0.3, 0]",None,0.0,34.0,34.0,34.0,,,,,,,,,1644.1719893999398,,,,,,,,,,,,,,,,,,,,,,,,,,,,1644.1569962999783,1644.1719893999398,1644.1719893999398,1644.6718822000548,1644.6718822000548,1647.1720481999218,1647.1720481999218,1647.1563281000126,None,1.0,,,,,,,,,,,,,,,,,,,,,,,,,,,,,,,,,,,,,,,,,,,,,nback78,1.0,2024-01-30_17h50.17.682,untitled,2023.2.3,60.0611783486012,2024-01-30 18h14.22.215861 -0500,
11.0,"[-0.64, -0.4]",space,0.0,35.0,35.0,35.0,,,,,,,,,1647.1720481999218,,,,,,,,,,,,,,,,,,,,,,,,,,,,1647.1570393999573,1647.1720481999218,1647.1720481999218,1647.6719715001527,1647.6719715001527,1650.171970800031,1650.171970800031,1650.156092999969,space,1.0,0.7640275000594556,None,,,,,,,,,,,,,,,,,,,,,,,,,,,,,,,,,,,,,,,,,,,nback78,1.0,2024-01-30_17h50.17.682,untitled,2023.2.3,60.0611783486012,2024-01-30 18h14.22.215861 -0500,
4.0,"[-0.2, 0.1]",None,0.0,36.0,36.0,36.0,,,,,,,,,1650.171970800031,,,,,,,,,,,,,,,,,,,,,,,,,,,,1650.156971400138,1650.171970800031,1650.171970800031,1650.671944099944,1650.671944099944,1653.171965799993,1653.171965799993,1653.156064900104,None,1.0,,,,,,,,,,,,,,,,,,,,,,,,,,,,,,,,,,,,,,,,,,,,,nback78,1.0,2024-01-30_17h50.17.682,untitled,2023.2.3,60.0611783486012,2024-01-30 18h14.22.215861 -0500,
5.0,"[0.2, 0.1]",None,0.0,37.0,37.0,37.0,,,,,,,,,1653.171965799993,,,,,,,,,,,,,,,,,,,,,,,,,,,,1653.1567798999604,1653.171965799993,1653.171965799993,1653.671867399942,1653.671867399942,1656.1716716999654,1656.1716716999654,1656.1558165999595,None,1.0,,,,,,,,,,,,,,,,,,,,,,,,,,,,,,,,,,,,,,,,,,,,,nback78,1.0,2024-01-30_17h50.17.682,untitled,2023.2.3,60.0611783486012,2024-01-30 18h14.22.215861 -0500,
6.0,"[-0.3, 0]",None,0.0,38.0,38.0,38.0,,,,,,,,,1656.1716716999654,,,,,,,,,,,,,,,,,,,,,,,,,,,,1656.1563093001023,1656.1716716999654,1656.1716716999654,1656.6717733000405,1656.6717733000405,1659.1717352000996,1659.1717352000996,1659.1557211999316,None,1.0,,,,,,,,,,,,,,,,,,,,,,,,,,,,,,,,,,,,,,,,,,,,,nback78,1.0,2024-01-30_17h50.17.682,untitled,2023.2.3,60.0611783486012,2024-01-30 18h14.22.215861 -0500,
11.0,"[-0.64, -0.4]",space,0.0,39.0,39.0,39.0,,,,,,,,,1659.1717352000996,,,,,,,,,,,,,,,,,,,,,,,,,,,,1659.1563131001312,1659.1717352000996,1659.1717352000996,1659.6717678999994,1659.6717678999994,1662.1717187000904,1662.1717187000904,1662.1557402999606,space,1.0,0.4598022000864148,None,,,,,,,,,,,,,,,,,,,,,,,,,,,,,,,,,,,,,,,,,,,nback78,1.0,2024-01-30_17h50.17.682,untitled,2023.2.3,60.0611783486012,2024-01-30 18h14.22.215861 -0500,
,,,,,,,,,,,,,,,,,,,,,,,,,,,,,,,,,,,,,,,,,,,,,,,,,,,,,,,1662.156324800104,1662.1717187000904,1662.1717187000904,1709.222695000004,space,47.03787910006941,None,,,,,,,,,,,,,,,,,,,,,,,,,,,,,,,,,,,,nback78,1.0,2024-01-30_17h50.17.682,untitled,2023.2.3,60.0611783486012,2024-01-30 18h14.22.215861 -0500,
10.0,"[0, -0.2]",None,,,,,0.0,0.0,0.0,0.0,,,,,1710.237460399978,,,,,,,,,,,,,,,,,,,,,,,,1709.2227555001157,1709.2374160999898,1710.237460399978,1710.221648500068,,,,,,,,,,,,,,,,,,,,1710.2310079999734,1710.237460399978,1710.237460399978,1710.7381389001384,1710.7381389001384,1713.2375489000697,1713.2375489000697,1713.221585900057,None,1.0,,,,,,,,,,,,,,,,,,,,,,,,,,nback78,1.0,2024-01-30_17h50.17.682,untitled,2023.2.3,60.0611783486012,2024-01-30 18h14.22.215861 -0500,
5.0,"[0.2, 0.1]",None,,,,,0.0,1.0,1.0,1.0,,,,,1713.2375489000697,,,,,,,,,,,,,,,,,,,,,,,,,,,,,,,,,,,,,,,,,,,,,,,1713.222389700124,1713.2375489000697,1713.2375489000697,1713.737610500073,1713.737610500073,1716.237334100064,1716.237334100064,1716.221645999933,None,1.0,,,,,,,,,,,,,,,,,,,,,,,,,,nback78,1.0,2024-01-30_17h50.17.682,untitled,2023.2.3,60.0611783486012,2024-01-30 18h14.22.215861 -0500,
6.0,"[-0.3, 0]",None,,,,,0.0,2.0,2.0,2.0,,,,,1716.237334100064,,,,,,,,,,,,,,,,,,,,,,,,,,,,,,,,,,,,,,,,,,,,,,,1716.2223229999654,1716.237334100064,1716.237334100064,1716.737453199923,1716.737453199923,1719.2373001999222,1719.2373001999222,1719.22153780004,None,1.0,,,,,,,,,,,,,,,,,,,,,,,,,,nback78,1.0,2024-01-30_17h50.17.682,untitled,2023.2.3,60.0611783486012,2024-01-30 18h14.22.215861 -0500,
6.0,"[-0.3, 0]",space,,,,,0.0,3.0,3.0,3.0,,,,,1719.2373001999222,,,,,,,,,,,,,,,,,,,,,,,,,,,,,,,,,,,,,,,,,,,,,,,1719.222228999948,1719.2373001999222,1719.2373001999222,1719.7373428000135,1719.7373428000135,1722.2371767000295,1722.2371767000295,1722.2218162000645,space,1.0,0.6318345000036061,None,,,,,,,,,,,,,,,,,,,,,,,,nback78,1.0,2024-01-30_17h50.17.682,untitled,2023.2.3,60.0611783486012,2024-01-30 18h14.22.215861 -0500,
12.0,"[0.64, -0.4]",None,,,,,0.0,4.0,4.0,4.0,,,,,1722.2371767000295,,,,,,,,,,,,,,,,,,,,,,,,,,,,,,,,,,,,,,,,,,,,,,,1722.2230666000396,1722.2371767000295,1722.2371767000295,1722.737220800016,1722.737220800016,1725.2374365001451,1725.2374365001451,1725.2215666000266,None,1.0,,,,,,,,,,,,,,,,,,,,,,,,,,nback78,1.0,2024-01-30_17h50.17.682,untitled,2023.2.3,60.0611783486012,2024-01-30 18h14.22.215861 -0500,
10.0,"[0, -0.2]",None,,,,,0.0,5.0,5.0,5.0,,,,,1725.2374365001451,,,,,,,,,,,,,,,,,,,,,,,,,,,,,,,,,,,,,,,,,,,,,,,1725.2222420999317,1725.2374365001451,1725.2374365001451,1725.7373806000687,1725.7373806000687,1728.237215799978,1728.237215799978,1728.2212287001312,None,1.0,,,,,,,,,,,,,,,,,,,,,,,,,,nback78,1.0,2024-01-30_17h50.17.682,untitled,2023.2.3,60.0611783486012,2024-01-30 18h14.22.215861 -0500,
2.0,"[0.64, 0.4]",None,,,,,0.0,6.0,6.0,6.0,,,,,1728.237215799978,,,,,,,,,,,,,,,,,,,,,,,,,,,,,,,,,,,,,,,,,,,,,,,1728.221899600001,1728.237215799978,1728.237215799978,1728.7373747001402,1728.7373747001402,1731.237214700086,1731.237214700086,1731.2214236001018,None,1.0,,,,,,,,,,,,,,,,,,,,,,,,,,nback78,1.0,2024-01-30_17h50.17.682,untitled,2023.2.3,60.0611783486012,2024-01-30 18h14.22.215861 -0500,
9.0,"[0.2, -0.1]",None,,,,,0.0,7.0,7.0,7.0,,,,,1731.237214700086,,,,,,,,,,,,,,,,,,,,,,,,,,,,,,,,,,,,,,,,,,,,,,,1731.2221419999842,1731.237214700086,1731.237214700086,1731.7371505000629,1731.7371505000629,1734.2371298000216,1734.2371298000216,1734.2213200000117,None,1.0,,,,,,,,,,,,,,,,,,,,,,,,,,nback78,1.0,2024-01-30_17h50.17.682,untitled,2023.2.3,60.0611783486012,2024-01-30 18h14.22.215861 -0500,
9.0,"[0.2, -0.1]",space,,,,,0.0,8.0,8.0,8.0,,,,,1734.2371298000216,,,,,,,,,,,,,,,,,,,,,,,,,,,,,,,,,,,,,,,,,,,,,,,1734.2219917001205,1734.2371298000216,1734.2371298000216,1734.737137200078,1734.737137200078,1737.2369919000191,1737.2369919000191,1737.2209296000656,space,1.0,0.7821732999291271,None,,,,,,,,,,,,,,,,,,,,,,,,nback78,1.0,2024-01-30_17h50.17.682,untitled,2023.2.3,60.0611783486012,2024-01-30 18h14.22.215861 -0500,
6.0,"[-0.3, 0]",None,,,,,0.0,9.0,9.0,9.0,,,,,1737.2369919000191,,,,,,,,,,,,,,,,,,,,,,,,,,,,,,,,,,,,,,,,,,,,,,,1737.221658400027,1737.2369919000191,1737.2369919000191,1737.7370156999675,1737.7370156999675,1740.2372461999769,1740.2372461999769,1740.221294200048,None,1.0,,,,,,,,,,,,,,,,,,,,,,,,,,nback78,1.0,2024-01-30_17h50.17.682,untitled,2023.2.3,60.0611783486012,2024-01-30 18h14.22.215861 -0500,
11.0,"[-0.64, -0.4]",None,,,,,0.0,10.0,10.0,10.0,,,,,1740.2372461999769,,,,,,,,,,,,,,,,,,,,,,,,,,,,,,,,,,,,,,,,,,,,,,,1740.2220171999652,1740.2372461999769,1740.2372461999769,1740.7370680000167,1740.7370680000167,1743.236916600028,1743.236916600028,1743.2210780000314,None,1.0,,,,,,,,,,,,,,,,,,,,,,,,,,nback78,1.0,2024-01-30_17h50.17.682,untitled,2023.2.3,60.0611783486012,2024-01-30 18h14.22.215861 -0500,
11.0,"[-0.64, -0.4]",space,,,,,0.0,11.0,11.0,11.0,,,,,1743.236916600028,,,,,,,,,,,,,,,,,,,,,,,,,,,,,,,,,,,,,,,,,,,,,,,1743.2216857001183,1743.236916600028,1743.236916600028,1743.7369995000772,1743.7369995000772,1746.2371133000124,1746.2371133000124,1746.2209865001496,space,1.0,0.6636880000587553,None,,,,,,,,,,,,,,,,,,,,,,,,nback78,1.0,2024-01-30_17h50.17.682,untitled,2023.2.3,60.0611783486012,2024-01-30 18h14.22.215861 -0500,
4.0,"[-0.2, 0.1]",None,,,,,0.0,12.0,12.0,12.0,,,,,1746.2371133000124,,,,,,,,,,,,,,,,,,,,,,,,,,,,,,,,,,,,,,,,,,,,,,,1746.221809900133,1746.2371133000124,1746.2371133000124,1746.736877700081,1746.736877700081,1749.236954699969,1749.236954699969,1749.2208509000484,None,1.0,,,,,,,,,,,,,,,,,,,,,,,,,,nback78,1.0,2024-01-30_17h50.17.682,untitled,2023.2.3,60.0611783486012,2024-01-30 18h14.22.215861 -0500,
3.0,"[0, 0.2]",None,,,,,0.0,13.0,13.0,13.0,,,,,1749.236954699969,,,,,,,,,,,,,,,,,,,,,,,,,,,,,,,,,,,,,,,,,,,,,,,1749.221444700146,1749.236954699969,1749.236954699969,1749.737061999971,1749.737061999971,1752.2367533999495,1752.2367533999495,1752.2212453000247,None,1.0,,,,,,,,,,,,,,,,,,,,,,,,,,nback78,1.0,2024-01-30_17h50.17.682,untitled,2023.2.3,60.0611783486012,2024-01-30 18h14.22.215861 -0500,
3.0,"[0, 0.2]",space,,,,,0.0,14.0,14.0,14.0,,,,,1752.2367533999495,,,,,,,,,,,,,,,,,,,,,,,,,,,,,,,,,,,,,,,,,,,,,,,1752.221989700105,1752.2367533999495,1752.2367533999495,1752.7367342000362,1752.7367342000362,1755.236791000003,1755.236791000003,1755.2209680001251,space,1.0,0.553068800130859,None,,,,,,,,,,,,,,,,,,,,,,,,nback78,1.0,2024-01-30_17h50.17.682,untitled,2023.2.3,60.0611783486012,2024-01-30 18h14.22.215861 -0500,
8.0,"[-0.2, -0.1]",None,,,,,0.0,15.0,15.0,15.0,,,,,1755.236791000003,,,,,,,,,,,,,,,,,,,,,,,,,,,,,,,,,,,,,,,,,,,,,,,1755.2217401999517,1755.236791000003,1755.236791000003,1755.7368813999929,1755.7368813999929,1758.2368530000094,1758.2368530000094,1758.220549999969,None,1.0,,,,,,,,,,,,,,,,,,,,,,,,,,nback78,1.0,2024-01-30_17h50.17.682,untitled,2023.2.3,60.0611783486012,2024-01-30 18h14.22.215861 -0500,
1.0,"[-0.64, 0.4]",None,,,,,0.0,16.0,16.0,16.0,,,,,1758.2368530000094,,,,,,,,,,,,,,,,,,,,,,,,,,,,,,,,,,,,,,,,,,,,,,,1758.2211323000956,1758.2368530000094,1758.2368530000094,1758.7367308000105,1758.7367308000105,1761.2365874999668,1761.2365874999668,1761.2206305,None,1.0,,,,,,,,,,,,,,,,,,,,,,,,,,nback78,1.0,2024-01-30_17h50.17.682,untitled,2023.2.3,60.0611783486012,2024-01-30 18h14.22.215861 -0500,
2.0,"[0.64, 0.4]",None,,,,,0.0,17.0,17.0,17.0,,,,,1761.2365874999668,,,,,,,,,,,,,,,,,,,,,,,,,,,,,,,,,,,,,,,,,,,,,,,1761.2213435999583,1761.2365874999668,1761.2365874999668,1761.7366528001148,1761.7366528001148,1764.2366025999654,1764.2366025999654,1764.220779699972,None,1.0,,,,,,,,,,,,,,,,,,,,,,,,,,nback78,1.0,2024-01-30_17h50.17.682,untitled,2023.2.3,60.0611783486012,2024-01-30 18h14.22.215861 -0500,
4.0,"[-0.2, 0.1]",None,,,,,0.0,18.0,18.0,18.0,,,,,1764.2366025999654,,,,,,,,,,,,,,,,,,,,,,,,,,,,,,,,,,,,,,,,,,,,,,,1764.221465599956,1764.2366025999654,1764.2366025999654,1764.736664700089,1764.736664700089,1767.236520699924,1767.236520699924,1767.2206268999726,None,1.0,,,,,,,,,,,,,,,,,,,,,,,,,,nback78,1.0,2024-01-30_17h50.17.682,untitled,2023.2.3,60.0611783486012,2024-01-30 18h14.22.215861 -0500,
4.0,"[-0.2, 0.1]",space,,,,,0.0,19.0,19.0,19.0,,,,,1767.236520699924,,,,,,,,,,,,,,,,,,,,,,,,,,,,,,,,,,,,,,,,,,,,,,,1767.2212944999335,1767.236520699924,1767.236520699924,1767.7364934000652,1767.7364934000652,1770.2364636000711,1770.2364636000711,1770.2205745000392,space,1.0,0.7431925002019852,None,,,,,,,,,,,,,,,,,,,,,,,,nback78,1.0,2024-01-30_17h50.17.682,untitled,2023.2.3,60.0611783486012,2024-01-30 18h14.22.215861 -0500,
8.0,"[-0.2, -0.1]",None,,,,,0.0,20.0,20.0,20.0,,,,,1770.2364636000711,,,,,,,,,,,,,,,,,,,,,,,,,,,,,,,,,,,,,,,,,,,,,,,1770.2213326001074,1770.2364636000711,1770.2364636000711,1770.7363599999808,1770.7363599999808,1773.23644030001,1773.23644030001,1773.2203542999923,None,1.0,,,,,,,,,,,,,,,,,,,,,,,,,,nback78,1.0,2024-01-30_17h50.17.682,untitled,2023.2.3,60.0611783486012,2024-01-30 18h14.22.215861 -0500,
5.0,"[0.2, 0.1]",None,,,,,0.0,21.0,21.0,21.0,,,,,1773.23644030001,,,,,,,,,,,,,,,,,,,,,,,,,,,,,,,,,,,,,,,,,,,,,,,1773.2210244999733,1773.23644030001,1773.23644030001,1773.7363488001283,1773.7363488001283,1776.236395200016,1776.236395200016,1776.2205410001334,None,1.0,,,,,,,,,,,,,,,,,,,,,,,,,,nback78,1.0,2024-01-30_17h50.17.682,untitled,2023.2.3,60.0611783486012,2024-01-30 18h14.22.215861 -0500,
5.0,"[0.2, 0.1]",space,,,,,0.0,22.0,22.0,22.0,,,,,1776.236395200016,,,,,,,,,,,,,,,,,,,,,,,,,,,,,,,,,,,,,,,,,,,,,,,1776.2211021000985,1776.236395200016,1776.236395200016,1776.7364634000696,1776.7364634000696,1779.2362280001398,1779.2362280001398,1779.2208184001502,space,1.0,0.7680981999728829,None,,,,,,,,,,,,,,,,,,,,,,,,nback78,1.0,2024-01-30_17h50.17.682,untitled,2023.2.3,60.0611783486012,2024-01-30 18h14.22.215861 -0500,
1.0,"[-0.64, 0.4]",None,,,,,0.0,23.0,23.0,23.0,,,,,1779.2362280001398,,,,,,,,,,,,,,,,,,,,,,,,,,,,,,,,,,,,,,,,,,,,,,,1779.2216016000602,1779.2362280001398,1779.2362280001398,1779.736438000109,1779.736438000109,1782.2362492999528,1782.2362492999528,1782.2203685999848,None,1.0,,,,,,,,,,,,,,,,,,,,,,,,,,nback78,1.0,2024-01-30_17h50.17.682,untitled,2023.2.3,60.0611783486012,2024-01-30 18h14.22.215861 -0500,
3.0,"[0, 0.2]",None,,,,,0.0,24.0,24.0,24.0,,,,,1782.2362492999528,,,,,,,,,,,,,,,,,,,,,,,,,,,,,,,,,,,,,,,,,,,,,,,1782.2209656999912,1782.2362492999528,1782.2362492999528,1782.7363198001403,1782.7363198001403,1785.2362331000622,1785.2362331000622,1785.2206409000792,None,1.0,,,,,,,,,,,,,,,,,,,,,,,,,,nback78,1.0,2024-01-30_17h50.17.682,untitled,2023.2.3,60.0611783486012,2024-01-30 18h14.22.215861 -0500,
6.0,"[-0.3, 0]",None,,,,,0.0,25.0,25.0,25.0,,,,,1785.2362331000622,,,,,,,,,,,,,,,,,,,,,,,,,,,,,,,,,,,,,,,,,,,,,,,1785.221476699924,1785.2362331000622,1785.2362331000622,1785.7363630000036,1785.7363630000036,1788.2363504001405,1788.2363504001405,1788.220263800118,None,1.0,,,,,,,,,,,,,,,,,,,,,,,,,,nback78,1.0,2024-01-30_17h50.17.682,untitled,2023.2.3,60.0611783486012,2024-01-30 18h14.22.215861 -0500,
1.0,"[-0.64, 0.4]",None,,,,,0.0,26.0,26.0,26.0,,,,,1788.2363504001405,,,,,,,,,,,,,,,,,,,,,,,,,,,,,,,,,,,,,,,,,,,,,,,1788.2209755000658,1788.2363504001405,1788.2363504001405,1788.7361079999246,1788.7361079999246,1791.236131499987,1791.236131499987,1791.220461100107,None,1.0,,,,,,,,,,,,,,,,,,,,,,,,,,nback78,1.0,2024-01-30_17h50.17.682,untitled,2023.2.3,60.0611783486012,2024-01-30 18h14.22.215861 -0500,
1.0,"[-0.64, 0.4]",space,,,,,0.0,27.0,27.0,27.0,,,,,1791.236131499987,,,,,,,,,,,,,,,,,,,,,,,,,,,,,,,,,,,,,,,,,,,,,,,1791.2212362999562,1791.236131499987,1791.236131499987,1791.7361584000755,1791.7361584000755,1794.2360167000445,1794.2360167000445,1794.2203558001202,space,1.0,0.8070615998003632,None,,,,,,,,,,,,,,,,,,,,,,,,nback78,1.0,2024-01-30_17h50.17.682,untitled,2023.2.3,60.0611783486012,2024-01-30 18h14.22.215861 -0500,
1.0,"[-0.64, 0.4]",space,,,,,0.0,28.0,28.0,28.0,,,,,1794.2360167000445,,,,,,,,,,,,,,,,,,,,,,,,,,,,,,,,,,,,,,,,,,,,,,,1794.2212414999958,1794.2360167000445,1794.2360167000445,1794.7360507000703,1794.7360507000703,1797.2357938000932,1797.2357938000932,1797.220066000009,space,1.0,0.8789576000999659,None,,,,,,,,,,,,,,,,,,,,,,,,nback78,1.0,2024-01-30_17h50.17.682,untitled,2023.2.3,60.0611783486012,2024-01-30 18h14.22.215861 -0500,
3.0,"[0, 0.2]",None,,,,,0.0,29.0,29.0,29.0,,,,,1797.2357938000932,,,,,,,,,,,,,,,,,,,,,,,,,,,,,,,,,,,,,,,,,,,,,,,1797.2207945000846,1797.2357938000932,1797.2357938000932,1797.7360231999774,1797.7360231999774,1800.2359847000334,1800.2359847000334,1800.220135099953,None,1.0,,,,,,,,,,,,,,,,,,,,,,,,,,nback78,1.0,2024-01-30_17h50.17.682,untitled,2023.2.3,60.0611783486012,2024-01-30 18h14.22.215861 -0500,
12.0,"[0.64, -0.4]",None,,,,,0.0,30.0,30.0,30.0,,,,,1800.2359847000334,,,,,,,,,,,,,,,,,,,,,,,,,,,,,,,,,,,,,,,,,,,,,,,1800.2208287001122,1800.2359847000334,1800.2359847000334,1800.7360932000447,1800.7360932000447,1803.235783800017,1803.235783800017,1803.220128300134,None,1.0,,,,,,,,,,,,,,,,,,,,,,,,,,nback78,1.0,2024-01-30_17h50.17.682,untitled,2023.2.3,60.0611783486012,2024-01-30 18h14.22.215861 -0500,
12.0,"[0.64, -0.4]",space,,,,,0.0,31.0,31.0,31.0,,,,,1803.235783800017,,,,,,,,,,,,,,,,,,,,,,,,,,,,,,,,,,,,,,,,,,,,,,,1803.220817100024,1803.235783800017,1803.235783800017,1803.7358836000783,1803.7358836000783,1806.2358283000067,1806.2358283000067,1806.2198958999943,space,1.0,0.7039711000397801,None,,,,,,,,,,,,,,,,,,,,,,,,nback78,1.0,2024-01-30_17h50.17.682,untitled,2023.2.3,60.0611783486012,2024-01-30 18h14.22.215861 -0500,
2.0,"[0.64, 0.4]",None,,,,,0.0,32.0,32.0,32.0,,,,,1806.2358283000067,,,,,,,,,,,,,,,,,,,,,,,,,,,,,,,,,,,,,,,,,,,,,,,1806.220571000129,1806.2358283000067,1806.2358283000067,1806.7358699000904,1806.7358699000904,1809.2357870999256,1809.2357870999256,1809.219728300115,None,1.0,,,,,,,,,,,,,,,,,,,,,,,,,,nback78,1.0,2024-01-30_17h50.17.682,untitled,2023.2.3,60.0611783486012,2024-01-30 18h14.22.215861 -0500,
1.0,"[-0.64, 0.4]",None,,,,,0.0,33.0,33.0,33.0,,,,,1809.2357870999256,,,,,,,,,,,,,,,,,,,,,,,,,,,,,,,,,,,,,,,,,,,,,,,1809.2203311000485,1809.2357870999256,1809.2357870999256,1809.7359031001104,1809.7359031001104,1812.2359056000128,1812.2359056000128,1812.2197525000663,None,1.0,,,,,,,,,,,,,,,,,,,,,,,,,,nback78,1.0,2024-01-30_17h50.17.682,untitled,2023.2.3,60.0611783486012,2024-01-30 18h14.22.215861 -0500,
7.0,"[0.3, 0]",None,,,,,0.0,34.0,34.0,34.0,,,,,1812.2359056000128,,,,,,,,,,,,,,,,,,,,,,,,,,,,,,,,,,,,,,,,,,,,,,,1812.2203456999268,1812.2359056000128,1812.2359056000128,1812.735727299936,1812.735727299936,1815.235613500001,1815.235613500001,1815.219958800124,None,1.0,,,,,,,,,,,,,,,,,,,,,,,,,,nback78,1.0,2024-01-30_17h50.17.682,untitled,2023.2.3,60.0611783486012,2024-01-30 18h14.22.215861 -0500,
7.0,"[0.3, 0]",space,,,,,0.0,35.0,35.0,35.0,,,,,1815.235613500001,,,,,,,,,,,,,,,,,,,,,,,,,,,,,,,,,,,,,,,,,,,,,,,1815.2205360000955,1815.235613500001,1815.235613500001,1815.735814700136,1815.735814700136,1818.2356946999207,1818.2356946999207,1818.2197231000755,space,1.0,0.6899030997883528,None,,,,,,,,,,,,,,,,,,,,,,,,nback78,1.0,2024-01-30_17h50.17.682,untitled,2023.2.3,60.0611783486012,2024-01-30 18h14.22.215861 -0500,
11.0,"[-0.64, -0.4]",None,,,,,0.0,36.0,36.0,36.0,,,,,1818.2356946999207,,,,,,,,,,,,,,,,,,,,,,,,,,,,,,,,,,,,,,,,,,,,,,,1818.220429399982,1818.2356946999207,1818.2356946999207,1818.7356446001213,1818.7356446001213,1821.2356833000667,1821.2356833000667,1821.2195653999224,None,1.0,,,,,,,,,,,,,,,,,,,,,,,,,,nback78,1.0,2024-01-30_17h50.17.682,untitled,2023.2.3,60.0611783486012,2024-01-30 18h14.22.215861 -0500,
2.0,"[0.64, 0.4]",None,,,,,0.0,37.0,37.0,37.0,,,,,1821.2356833000667,,,,,,,,,,,,,,,,,,,,,,,,,,,,,,,,,,,,,,,,,,,,,,,1821.2201110001188,1821.2356833000667,1821.2356833000667,1821.7356420999856,1821.7356420999856,1824.2355643999765,1824.2355643999765,1824.2198665000035,None,1.0,,,,,,,,,,,,,,,,,,,,,,,,,,nback78,1.0,2024-01-30_17h50.17.682,untitled,2023.2.3,60.0611783486012,2024-01-30 18h14.22.215861 -0500,
6.0,"[-0.3, 0]",None,,,,,0.0,38.0,38.0,38.0,,,,,1824.2355643999765,,,,,,,,,,,,,,,,,,,,,,,,,,,,,,,,,,,,,,,,,,,,,,,1824.2206588999836,1824.2355643999765,1824.2355643999765,1824.7354228000625,1824.7354228000625,1827.235382999992,1827.235382999992,1827.2195681000596,None,1.0,,,,,,,,,,,,,,,,,,,,,,,,,,nback78,1.0,2024-01-30_17h50.17.682,untitled,2023.2.3,60.0611783486012,2024-01-30 18h14.22.215861 -0500,
10.0,"[0, -0.2]",None,,,,,0.0,39.0,39.0,39.0,,,,,1827.235382999992,,,,,,,,,,,,,,,,,,,,,,,,,,,,,,,,,,,,,,,,,,,,,,,1827.2202393999323,1827.235382999992,1827.235382999992,1827.7356124999933,1827.7356124999933,1830.2355124999303,1830.2355124999303,1830.2195200999267,None,1.0,,,,,,,,,,,,,,,,,,,,,,,,,,nback78,1.0,2024-01-30_17h50.17.682,untitled,2023.2.3,60.0611783486012,2024-01-30 18h14.22.215861 -0500,
,,,,,,,,,,,,,,,,,,,,,,,,,,,,,,,,,,,,,,,,,,,,,,,,,,,,,,,,,,,,,,,,,,,,,,,,,,1830.2199701000936,1830.2355124999303,1830.2355124999303,1903.635751400143,space,73.39377629989758,None,,,,,,,,,,,,,,,,,nback78,1.0,2024-01-30_17h50.17.682,untitled,2023.2.3,60.0611783486012,2024-01-30 18h14.22.215861 -0500,
,"[0.2, 0.1]",None,,,,,,,,,0.0,0.0,0.0,0.0,1904.650814899942,,,,,,,,,,,,,,,,,,,,,,,,1903.635792999994,1903.6508597999343,1904.650814899942,1904.634805799928,,,,,,,,,,,,,,,,,,,,,,,,,,,,,,,,,,,,,,,1904.6438404000364,1904.650814899942,1904.650814899942,1905.1507306999997,1905.1507306999997,1907.65077190008,1907.65077190008,1907.63454540004,None,1.0,,,,,,,nback78,1.0,2024-01-30_17h50.17.682,untitled,2023.2.3,60.0611783486012,2024-01-30 18h14.22.215861 -0500,
,"[0.64, 0.4]",None,,,,,,,,,0.0,1.0,1.0,1.0,1907.65077190008,,,,,,,,,,,,,,,,,,,,,,,,,,,,,,,,,,,,,,,,,,,,,,,,,,,,,,,,,,,,,,,,,,1907.635144799948,1907.65077190008,1907.65077190008,1908.1507105000785,1908.1507105000785,1910.6506650999652,1910.6506650999652,1910.6345981000925,None,1.0,,,,,,,nback78,1.0,2024-01-30_17h50.17.682,untitled,2023.2.3,60.0611783486012,2024-01-30 18h14.22.215861 -0500,
,"[-0.3, 0]",None,,,,,,,,,0.0,2.0,2.0,2.0,1910.6506650999652,,,,,,,,,,,,,,,,,,,,,,,,,,,,,,,,,,,,,,,,,,,,,,,,,,,,,,,,,,,,,,,,,,1910.63507040008,1910.6506650999652,1910.6506650999652,1911.150661499938,1911.150661499938,1913.650539000053,1913.650539000053,1913.6345131001435,None,1.0,,,,,,,nback78,1.0,2024-01-30_17h50.17.682,untitled,2023.2.3,60.0611783486012,2024-01-30 18h14.22.215861 -0500,
,"[0.2, -0.1]",None,,,,,,,,,0.0,3.0,3.0,3.0,1913.650539000053,,,,,,,,,,,,,,,,,,,,,,,,,,,,,,,,,,,,,,,,,,,,,,,,,,,,,,,,,,,,,,,,,,1913.6349073001184,1913.650539000053,1913.650539000053,1914.1505440999756,1914.1505440999756,1916.6504510000811,1916.6504510000811,1916.6349442999344,None,1.0,,,,,,,nback78,1.0,2024-01-30_17h50.17.682,untitled,2023.2.3,60.0611783486012,2024-01-30 18h14.22.215861 -0500,
,"[0, 0.2]",None,,,,,,,,,0.0,4.0,4.0,4.0,1916.6504510000811,,,,,,,,,,,,,,,,,,,,,,,,,,,,,,,,,,,,,,,,,,,,,,,,,,,,,,,,,,,,,,,,,,1916.6357460001016,1916.6504510000811,1916.6504510000811,1917.1504401001148,1917.1504401001148,1919.650490800152,1919.650490800152,1919.634180099936,None,1.0,,,,,,,nback78,1.0,2024-01-30_17h50.17.682,untitled,2023.2.3,60.0611783486012,2024-01-30 18h14.22.215861 -0500,
,"[0.2, -0.1]",space,,,,,,,,,0.0,5.0,5.0,5.0,1919.650490800152,,,,,,,,,,,,,,,,,,,,,,,,,,,,,,,,,,,,,,,,,,,,,,,,,,,,,,,,,,,,,,,,,,1919.6345112000129,1919.650490800152,1919.650490800152,1920.1504758000372,1920.1504758000372,1922.6502133000176,1922.6502133000176,1922.634133799933,space,1.0,0.6477982001379132,None,,,,,nback78,1.0,2024-01-30_17h50.17.682,untitled,2023.2.3,60.0611783486012,2024-01-30 18h14.22.215861 -0500,
,"[0, -0.2]",None,,,,,,,,,0.0,6.0,6.0,6.0,1922.6502133000176,,,,,,,,,,,,,,,,,,,,,,,,,,,,,,,,,,,,,,,,,,,,,,,,,,,,,,,,,,,,,,,,,,1922.6347871001344,1922.6502133000176,1922.6502133000176,1923.1502575001211,1923.1502575001211,1925.6503330999983,1925.6503330999983,1925.6345264001284,None,1.0,,,,,,,nback78,1.0,2024-01-30_17h50.17.682,untitled,2023.2.3,60.0611783486012,2024-01-30 18h14.22.215861 -0500,
,"[0.64, -0.4]",None,,,,,,,,,0.0,7.0,7.0,7.0,1925.6503330999983,,,,,,,,,,,,,,,,,,,,,,,,,,,,,,,,,,,,,,,,,,,,,,,,,,,,,,,,,,,,,,,,,,1925.634882200044,1925.6503330999983,1925.6503330999983,1926.1508136999328,1926.1508136999328,1928.6500397000927,1928.6500397000927,1928.634949099971,None,1.0,,,,,,,nback78,1.0,2024-01-30_17h50.17.682,untitled,2023.2.3,60.0611783486012,2024-01-30 18h14.22.215861 -0500,
,"[0.3, 0]",None,,,,,,,,,0.0,8.0,8.0,8.0,1928.6500397000927,,,,,,,,,,,,,,,,,,,,,,,,,,,,,,,,,,,,,,,,,,,,,,,,,,,,,,,,,,,,,,,,,,1928.6353897999504,1928.6500397000927,1928.6500397000927,1929.1502227000888,1929.1502227000888,1931.650544299977,1931.650544299977,1931.634164700052,None,1.0,,,,,,,nback78,1.0,2024-01-30_17h50.17.682,untitled,2023.2.3,60.0611783486012,2024-01-30 18h14.22.215861 -0500,
,"[0.64, -0.4]",space,,,,,,,,,0.0,9.0,9.0,9.0,1931.650544299977,,,,,,,,,,,,,,,,,,,,,,,,,,,,,,,,,,,,,,,,,,,,,,,,,,,,,,,,,,,,,,,,,,1931.6348252000755,1931.650544299977,1931.650544299977,1932.150158799952,1932.150158799952,1934.6500411001036,1934.6500411001036,1934.634462600108,space,1.0,0.5523995000403374,None,,,,,nback78,1.0,2024-01-30_17h50.17.682,untitled,2023.2.3,60.0611783486012,2024-01-30 18h14.22.215861 -0500,
,"[-0.64, 0.4]",None,,,,,,,,,0.0,10.0,10.0,10.0,1934.6500411001036,,,,,,,,,,,,,,,,,,,,,,,,,,,,,,,,,,,,,,,,,,,,,,,,,,,,,,,,,,,,,,,,,,1934.635204300052,1934.6500411001036,1934.6500411001036,1935.150303800125,1935.150303800125,1937.649868400069,1937.649868400069,1937.6343678000849,None,1.0,,,,,,,nback78,1.0,2024-01-30_17h50.17.682,untitled,2023.2.3,60.0611783486012,2024-01-30 18h14.22.215861 -0500,
,"[0.2, 0.1]",None,,,,,,,,,0.0,11.0,11.0,11.0,1937.649868400069,,,,,,,,,,,,,,,,,,,,,,,,,,,,,,,,,,,,,,,,,,,,,,,,,,,,,,,,,,,,,,,,,,1937.635063200025,1937.649868400069,1937.649868400069,1938.1502229000907,1938.1502229000907,1940.650096999947,1940.650096999947,1940.634279299993,None,1.0,,,,,,,nback78,1.0,2024-01-30_17h50.17.682,untitled,2023.2.3,60.0611783486012,2024-01-30 18h14.22.215861 -0500,
,"[0.3, 0]",None,,,,,,,,,0.0,12.0,12.0,12.0,1940.650096999947,,,,,,,,,,,,,,,,,,,,,,,,,,,,,,,,,,,,,,,,,,,,,,,,,,,,,,,,,,,,,,,,,,1940.6350468001328,1940.650096999947,1940.650096999947,1941.1500163001476,1941.1500163001476,1943.6498175000304,1943.6498175000304,1943.633922700072,None,1.0,,,,,,,nback78,1.0,2024-01-30_17h50.17.682,untitled,2023.2.3,60.0611783486012,2024-01-30 18h14.22.215861 -0500,
,"[0.2, 0.1]",space,,,,,,,,,0.0,13.0,13.0,13.0,1943.6498175000304,,,,,,,,,,,,,,,,,,,,,,,,,,,,,,,,,,,,,,,,,,,,,,,,,,,,,,,,,,,,,,,,,,1943.6343831999693,1943.6498175000304,1943.6498175000304,1944.149942799937,1944.149942799937,1946.650016400032,1946.650016400032,1946.6341500000565,space,1.0,0.4853932000696659,None,,,,,nback78,1.0,2024-01-30_17h50.17.682,untitled,2023.2.3,60.0611783486012,2024-01-30 18h14.22.215861 -0500,
,"[-0.3, 0]",None,,,,,,,,,0.0,14.0,14.0,14.0,1946.650016400032,,,,,,,,,,,,,,,,,,,,,,,,,,,,,,,,,,,,,,,,,,,,,,,,,,,,,,,,,,,,,,,,,,1946.634930700064,1946.650016400032,1946.650016400032,1947.150063700043,1947.150063700043,1949.6497378000056,1949.6497378000056,1949.63385870005,None,1.0,,,,,,,nback78,1.0,2024-01-30_17h50.17.682,untitled,2023.2.3,60.0611783486012,2024-01-30 18h14.22.215861 -0500,
,"[0, 0.2]",None,,,,,,,,,0.0,15.0,15.0,15.0,1949.6497378000056,,,,,,,,,,,,,,,,,,,,,,,,,,,,,,,,,,,,,,,,,,,,,,,,,,,,,,,,,,,,,,,,,,1949.634240000043,1949.6497378000056,1949.6497378000056,1950.1496162000112,1950.1496162000112,1952.6498338000383,1952.6498338000383,1952.6337045999244,None,1.0,,,,,,,nback78,1.0,2024-01-30_17h50.17.682,untitled,2023.2.3,60.0611783486012,2024-01-30 18h14.22.215861 -0500,
,"[-0.3, 0]",space,,,,,,,,,0.0,16.0,16.0,16.0,1952.6498338000383,,,,,,,,,,,,,,,,,,,,,,,,,,,,,,,,,,,,,,,,,,,,,,,,,,,,,,,,,,,,,,,,,,1952.634041599929,1952.6498338000383,1952.6498338000383,1953.14984320011,1953.14984320011,1955.649512400152,1955.649512400152,1955.633340799948,space,1.0,0.4955569000449031,None,,,,,nback78,1.0,2024-01-30_17h50.17.682,untitled,2023.2.3,60.0611783486012,2024-01-30 18h14.22.215861 -0500,
,"[-0.64, -0.4]",None,,,,,,,,,0.0,17.0,17.0,17.0,1955.649512400152,,,,,,,,,,,,,,,,,,,,,,,,,,,,,,,,,,,,,,,,,,,,,,,,,,,,,,,,,,,,,,,,,,1955.6337786000224,1955.649512400152,1955.649512400152,1956.149667900056,1956.149667900056,1958.649625899969,1958.649625899969,1958.6335023001304,None,1.0,,,,,,,nback78,1.0,2024-01-30_17h50.17.682,untitled,2023.2.3,60.0611783486012,2024-01-30 18h14.22.215861 -0500,
,"[-0.2, -0.1]",None,,,,,,,,,0.0,18.0,18.0,18.0,1958.649625899969,,,,,,,,,,,,,,,,,,,,,,,,,,,,,,,,,,,,,,,,,,,,,,,,,,,,,,,,,,,,,,,,,,1958.633806800004,1958.649625899969,1958.649625899969,1959.1498251999728,1959.1498251999728,1961.649615700124,1961.649615700124,1961.6339706000872,None,1.0,,,,,,,nback78,1.0,2024-01-30_17h50.17.682,untitled,2023.2.3,60.0611783486012,2024-01-30 18h14.22.215861 -0500,
,"[0.2, -0.1]",None,,,,,,,,,0.0,19.0,19.0,19.0,1961.649615700124,,,,,,,,,,,,,,,,,,,,,,,,,,,,,,,,,,,,,,,,,,,,,,,,,,,,,,,,,,,,,,,,,,1961.6346235999367,1961.649615700124,1961.649615700124,1962.1498469000217,1962.1498469000217,1964.6496655000371,1964.6496655000371,1964.6337325000204,None,1.0,,,,,,,nback78,1.0,2024-01-30_17h50.17.682,untitled,2023.2.3,60.0611783486012,2024-01-30 18h14.22.215861 -0500,
,"[0.2, -0.1]",None,,,,,,,,,0.0,20.0,20.0,20.0,1964.6496655000371,,,,,,,,,,,,,,,,,,,,,,,,,,,,,,,,,,,,,,,,,,,,,,,,,,,,,,,,,,,,,,,,,,1964.6343827999665,1964.6496655000371,1964.6496655000371,1965.1496377999429,1965.1496377999429,1967.6494045001452,1967.6494045001452,1967.633653199999,None,1.0,,,,,,,nback78,1.0,2024-01-30_17h50.17.682,untitled,2023.2.3,60.0611783486012,2024-01-30 18h14.22.215861 -0500,
,"[-0.64, 0.4]",None,,,,,,,,,0.0,21.0,21.0,21.0,1967.6494045001452,,,,,,,,,,,,,,,,,,,,,,,,,,,,,,,,,,,,,,,,,,,,,,,,,,,,,,,,,,,,,,,,,,1967.634301400045,1967.6494045001452,1967.6494045001452,1968.1499022999776,1968.1499022999776,1970.649438600056,1970.649438600056,1970.6336332999635,None,1.0,,,,,,,nback78,1.0,2024-01-30_17h50.17.682,untitled,2023.2.3,60.0611783486012,2024-01-30 18h14.22.215861 -0500,
,"[0, 0.2]",None,,,,,,,,,0.0,22.0,22.0,22.0,1970.649438600056,,,,,,,,,,,,,,,,,,,,,,,,,,,,,,,,,,,,,,,,,,,,,,,,,,,,,,,,,,,,,,,,,,1970.6339964000508,1970.649438600056,1970.649438600056,1971.149573000148,1971.149573000148,1973.6495751000475,1973.6495751000475,1973.633965899935,None,1.0,,,,,,,nback78,1.0,2024-01-30_17h50.17.682,untitled,2023.2.3,60.0611783486012,2024-01-30 18h14.22.215861 -0500,
,"[0.64, -0.4]",None,,,,,,,,,0.0,23.0,23.0,23.0,1973.6495751000475,,,,,,,,,,,,,,,,,,,,,,,,,,,,,,,,,,,,,,,,,,,,,,,,,,,,,,,,,,,,,,,,,,1973.634732699953,1973.6495751000475,1973.6495751000475,1974.1494035001376,1974.1494035001376,1976.6495527001096,1976.6495527001096,1976.633823600132,None,1.0,,,,,,,nback78,1.0,2024-01-30_17h50.17.682,untitled,2023.2.3,60.0611783486012,2024-01-30 18h14.22.215861 -0500,
,"[0, 0.2]",space,,,,,,,,,0.0,24.0,24.0,24.0,1976.6495527001096,,,,,,,,,,,,,,,,,,,,,,,,,,,,,,,,,,,,,,,,,,,,,,,,,,,,,,,,,,,,,,,,,,1976.634478399996,1976.6495527001096,1976.6495527001096,1977.14941069996,1977.14941069996,1979.6494060999248,1979.6494060999248,1979.6339760001283,space,1.0,0.5963893001899123,None,,,,,nback78,1.0,2024-01-30_17h50.17.682,untitled,2023.2.3,60.0611783486012,2024-01-30 18h14.22.215861 -0500,
,"[-0.2, 0.1]",None,,,,,,,,,0.0,25.0,25.0,25.0,1979.6494060999248,,,,,,,,,,,,,,,,,,,,,,,,,,,,,,,,,,,,,,,,,,,,,,,,,,,,,,,,,,,,,,,,,,1979.6349512001036,1979.6494060999248,1979.6494060999248,1980.1493273000235,1980.1493273000235,1982.649407000048,1982.649407000048,1982.6337405999657,None,1.0,,,,,,,nback78,1.0,2024-01-30_17h50.17.682,untitled,2023.2.3,60.0611783486012,2024-01-30 18h14.22.215861 -0500,
,"[0.3, 0]",None,,,,,,,,,0.0,26.0,26.0,26.0,1982.649407000048,,,,,,,,,,,,,,,,,,,,,,,,,,,,,,,,,,,,,,,,,,,,,,,,,,,,,,,,,,,,,,,,,,1982.634484600043,1982.649407000048,1982.649407000048,1983.1492395000528,1983.1492395000528,1985.649211399956,1985.649211399956,1985.6333643000107,None,1.0,,,,,,,nback78,1.0,2024-01-30_17h50.17.682,untitled,2023.2.3,60.0611783486012,2024-01-30 18h14.22.215861 -0500,
,"[-0.2, 0.1]",space,,,,,,,,,0.0,27.0,27.0,27.0,1985.649211399956,,,,,,,,,,,,,,,,,,,,,,,,,,,,,,,,,,,,,,,,,,,,,,,,,,,,,,,,,,,,,,,,,,1985.6340242000297,1985.649211399956,1985.649211399956,1986.1491587001365,1986.1491587001365,1988.649197800085,1988.649197800085,1988.633594200015,space,1.0,0.5963735000696033,None,,,,,nback78,1.0,2024-01-30_17h50.17.682,untitled,2023.2.3,60.0611783486012,2024-01-30 18h14.22.215861 -0500,
,"[-0.2, 0.1]",None,,,,,,,,,0.0,28.0,28.0,28.0,1988.649197800085,,,,,,,,,,,,,,,,,,,,,,,,,,,,,,,,,,,,,,,,,,,,,,,,,,,,,,,,,,,,,,,,,,1988.6343561999963,1988.649197800085,1988.649197800085,1989.149380699964,1989.149380699964,1991.6493190000765,1991.6493190000765,1991.6334832999853,None,1.0,,,,,,,nback78,1.0,2024-01-30_17h50.17.682,untitled,2023.2.3,60.0611783486012,2024-01-30 18h14.22.215861 -0500,
,"[0.2, 0.1]",None,,,,,,,,,0.0,29.0,29.0,29.0,1991.6493190000765,,,,,,,,,,,,,,,,,,,,,,,,,,,,,,,,,,,,,,,,,,,,,,,,,,,,,,,,,,,,,,,,,,1991.6341327999253,1991.6493190000765,1991.6493190000765,1992.149353099987,1992.149353099987,1994.6491907001475,1994.6491907001475,1994.6335349001456,None,1.0,,,,,,,nback78,1.0,2024-01-30_17h50.17.682,untitled,2023.2.3,60.0611783486012,2024-01-30 18h14.22.215861 -0500,
,"[-0.64, -0.4]",None,,,,,,,,,0.0,30.0,30.0,30.0,1994.6491907001475,,,,,,,,,,,,,,,,,,,,,,,,,,,,,,,,,,,,,,,,,,,,,,,,,,,,,,,,,,,,,,,,,,1994.6342758000828,1994.6491907001475,1994.6491907001475,1995.1491603001489,1995.1491603001489,1997.6490947001148,1997.6490947001148,1997.633392899996,None,1.0,,,,,,,nback78,1.0,2024-01-30_17h50.17.682,untitled,2023.2.3,60.0611783486012,2024-01-30 18h14.22.215861 -0500,
,"[0, -0.2]",None,,,,,,,,,0.0,31.0,31.0,31.0,1997.6490947001148,,,,,,,,,,,,,,,,,,,,,,,,,,,,,,,,,,,,,,,,,,,,,,,,,,,,,,,,,,,,,,,,,,1997.6340787000956,1997.6490947001148,1997.6490947001148,1998.1492373999208,1998.1492373999208,2000.6490895000752,2000.6490895000752,2000.6330812999515,None,1.0,,,,,,,nback78,1.0,2024-01-30_17h50.17.682,untitled,2023.2.3,60.0611783486012,2024-01-30 18h14.22.215861 -0500,
,"[-0.64, -0.4]",space,,,,,,,,,0.0,32.0,32.0,32.0,2000.6490895000752,,,,,,,,,,,,,,,,,,,,,,,,,,,,,,,,,,,,,,,,,,,,,,,,,,,,,,,,,,,,,,,,,,2000.633749900153,2000.6490895000752,2000.6490895000752,2001.1489204999525,2001.1489204999525,2003.6489371999637,2003.6489371999637,2003.6332759999204,space,1.0,0.6900480000767857,None,,,,,nback78,1.0,2024-01-30_17h50.17.682,untitled,2023.2.3,60.0611783486012,2024-01-30 18h14.22.215861 -0500,
,"[0.64, 0.4]",None,,,,,,,,,0.0,33.0,33.0,33.0,2003.6489371999637,,,,,,,,,,,,,,,,,,,,,,,,,,,,,,,,,,,,,,,,,,,,,,,,,,,,,,,,,,,,,,,,,,2003.63407670008,2003.6489371999637,2003.6489371999637,2004.149249700131,2004.149249700131,2006.6489981000775,2006.6489981000775,2006.632886199979,None,1.0,,,,,,,nback78,1.0,2024-01-30_17h50.17.682,untitled,2023.2.3,60.0611783486012,2024-01-30 18h14.22.215861 -0500,
,"[-0.3, 0]",None,,,,,,,,,0.0,34.0,34.0,34.0,2006.6489981000775,,,,,,,,,,,,,,,,,,,,,,,,,,,,,,,,,,,,,,,,,,,,,,,,,,,,,,,,,,,,,,,,,,2006.6335229999384,2006.6489981000775,2006.6489981000775,2007.1490293000825,2007.1490293000825,2009.6488888000604,2009.6488888000604,2009.63324799994,None,1.0,,,,,,,nback78,1.0,2024-01-30_17h50.17.682,untitled,2023.2.3,60.0611783486012,2024-01-30 18h14.22.215861 -0500,
,"[0.3, 0]",None,,,,,,,,,0.0,35.0,35.0,35.0,2009.6488888000604,,,,,,,,,,,,,,,,,,,,,,,,,,,,,,,,,,,,,,,,,,,,,,,,,,,,,,,,,,,,,,,,,,2009.6340580000544,2009.6488888000604,2009.6488888000604,2010.148988300003,2010.148988300003,2012.648833400104,2012.648833400104,2012.6333767999893,None,1.0,,,,,,,nback78,1.0,2024-01-30_17h50.17.682,untitled,2023.2.3,60.0611783486012,2024-01-30 18h14.22.215861 -0500,
,"[-0.3, 0]",space,,,,,,,,,0.0,36.0,36.0,36.0,2012.648833400104,,,,,,,,,,,,,,,,,,,,,,,,,,,,,,,,,,,,,,,,,,,,,,,,,,,,,,,,,,,,,,,,,,2012.6342271999456,2012.648833400104,2012.648833400104,2013.148920899956,2013.148920899956,2015.6489522999616,2015.6489522999616,2015.633256400004,space,1.0,0.4603789998218417,None,,,,,nback78,1.0,2024-01-30_17h50.17.682,untitled,2023.2.3,60.0611783486012,2024-01-30 18h14.22.215861 -0500,
,"[0, -0.2]",None,,,,,,,,,0.0,37.0,37.0,37.0,2015.6489522999616,,,,,,,,,,,,,,,,,,,,,,,,,,,,,,,,,,,,,,,,,,,,,,,,,,,,,,,,,,,,,,,,,,2015.634241200052,2015.6489522999616,2015.6489522999616,2016.148870700039,2016.148870700039,2018.648752199952,2018.648752199952,2018.632764999988,None,1.0,,,,,,,nback78,1.0,2024-01-30_17h50.17.682,untitled,2023.2.3,60.0611783486012,2024-01-30 18h14.22.215861 -0500,
,"[0.3, 0]",None,,,,,,,,,0.0,38.0,38.0,38.0,2018.648752199952,,,,,,,,,,,,,,,,,,,,,,,,,,,,,,,,,,,,,,,,,,,,,,,,,,,,,,,,,,,,,,,,,,2018.6333137999757,2018.648752199952,2018.648752199952,2019.1488930000924,2019.1488930000924,2021.648676299956,2021.648676299956,2021.632869600085,space,0.0,0.921943899942562,None,,,,,nback78,1.0,2024-01-30_17h50.17.682,untitled,2023.2.3,60.0611783486012,2024-01-30 18h14.22.215861 -0500,
,"[0.2, 0.1]",None,,,,,,,,,0.0,39.0,39.0,39.0,2021.648676299956,,,,,,,,,,,,,,,,,,,,,,,,,,,,,,,,,,,,,,,,,,,,,,,,,,,,,,,,,,,,,,,,,,2021.6337015000167,2021.648676299956,2021.648676299956,2022.1487704999745,2022.1487704999745,2024.648718999932,2024.648718999932,2024.6327957999893,None,1.0,,,,,,,nback78,1.0,2024-01-30_17h50.17.682,untitled,2023.2.3,60.0611783486012,2024-01-30 18h14.22.215861 -0500,
,,,,,,,,,,,,,,,,,,,,,,,,,,,,,,,,,,,,,,,,,,,,,,,,,,,,,,,,,,,,,,,,,,,,,,,,,,,,,,,,,,,,,,,,,,,,,2024.633285100106,2024.648718999932,2027.6487428001128,2027.633087600116,,,,,,,,
