square,location,corrAns,trials_0.thisRepN,trials_0.thisTrialN,trials_0.thisN,trials_0.thisIndex,trials_1.thisRepN,trials_1.thisTrialN,trials_1.thisN,trials_1.thisIndex,trials_2.thisRepN,trials_2.thisTrialN,trials_2.thisN,trials_2.thisIndex,thisRow.t,notes,Instructions.started,instructions.started,key_resp.started,inst_sq11.started,Instructions.stopped,key_resp.keys,key_resp.rt,key_resp.duration,All.started,sq_1.started,sq_2.started,sq_3.started,sq_4.started,sq_5.started,sq_6.started,sq_7.started,sq_8.started,sq_9.started,sq_10.started,sq_11.started,sq_12.started,All.stopped,Fixation.started,fixation_3.started,fixation_3.stopped,Fixation.stopped,N_back_0_Trial.started,target_square_0.started,response_0.started,fixation_0.started,target_square_0.stopped,fixation_0.stopped,N_back_0_Trial.stopped,response_0.keys,response_0.corr,response_0.rt,response_0.duration,Instructions_1.started,instructions_1.started,key_resp_1.started,Instructions_1.stopped,key_resp_1.keys,key_resp_1.rt,key_resp_1.duration,N_back_1_Trial.started,target_square_1.started,response_1.started,target_square_1.stopped,fixation_1.started,fixation_1.stopped,response_1.stopped,N_back_1_Trial.stopped,response_1.keys,response_1.corr,response_1.rt,response_1.duration,Instructions_2.started,instructions_2.started,key_resp_2.started,Instructions_2.stopped,key_resp_2.keys,key_resp_2.rt,key_resp_2.duration,N_back_2_trials.started,target_square_2.started,response_2.started,target_square_2.stopped,fixation_2.started,fixation_2.stopped,response_2.stopped,N_back_2_trials.stopped,response_2.keys,response_2.corr,response_2.rt,response_2.duration,End.started,thank_you.started,thank_you.stopped,End.stopped,participant,session,date,expName,psychopyVersion,frameRate,expStart,Unnamed: 103
,,,,,,,,,,,,,,,,,0.0014835998881608,0.0038670999929308,0.0038670999929308,0.0038670999929308,1766.3193630999883,space,1766.3018545999655,None,,,,,,,,,,,,,,,,,,,,,,,,,,,,,,,,,,,,,,,,,,,,,,,,,,,,,,,,,,,,,,,,,,,,,,,,nback76,1.0,2024-01-30_14h17.48.480,untitled,2023.2.3,59.9346831733353,2024-01-30 14h44.50.270545 -0500,
6.0,"[-0.3, 0]",None,0.0,0.0,0.0,0.0,,,,,,,,,1768.3375685000792,,,,,,,,,,1766.3194317999296,1766.3344997998793,1766.3344997998793,1766.3344997998793,1766.3344997998793,1766.3344997998793,1766.3344997998793,1766.3344997998793,1766.3344997998793,1766.3344997998793,1766.3344997998793,1766.3344997998793,1766.3344997998793,1767.3183557998857,1767.3183712000027,1767.334594900021,1768.3375685000792,1768.3188638000283,1768.3355997998733,1768.3375685000792,1768.3375685000792,1768.8178715999238,1768.8512581998948,1771.3179677000735,1771.3348103000317,None,1.0,,,,,,,,,,,,,,,,,,,,,,,,,,,,,,,,,,,,,,,,,,,,,nback76,1.0,2024-01-30_14h17.48.480,untitled,2023.2.3,59.9346831733353,2024-01-30 14h44.50.270545 -0500,
10.0,"[0, -0.2]",None,0.0,1.0,1.0,1.0,,,,,,,,,1771.3513432999607,,,,,,,,,,,,,,,,,,,,,,,,,,,,1771.3358885000926,1771.3513432999607,1771.3513432999607,1771.8177656999324,1771.8512267000042,1774.3178805999923,1774.3346768000629,None,1.0,,,,,,,,,,,,,,,,,,,,,,,,,,,,,,,,,,,,,,,,,,,,,nback76,1.0,2024-01-30_14h17.48.480,untitled,2023.2.3,59.9346831733353,2024-01-30 14h44.50.270545 -0500,
11.0,"[-0.64, -0.4]",space,0.0,2.0,2.0,2.0,,,,,,,,,1774.351110199932,,,,,,,,,,,,,,,,,,,,,,,,,,,,1774.3354350998998,1774.351110199932,1774.351110199932,1774.8179444998968,1774.8511459999718,1777.3179111999923,1777.334597100038,space,1.0,0.4105906002223491,None,,,,,,,,,,,,,,,,,,,,,,,,,,,,,,,,,,,,,,,,,,,nback76,1.0,2024-01-30_14h17.48.480,untitled,2023.2.3,59.9346831733353,2024-01-30 14h44.50.270545 -0500,
12.0,"[0.64, -0.4]",None,0.0,3.0,3.0,3.0,,,,,,,,,1777.3509613999631,,,,,,,,,,,,,,,,,,,,,,,,,,,,1777.335862699896,1777.3509613999631,1777.3509613999631,1777.817838799907,1777.8510390000883,1780.3177950999234,1780.3346659000963,None,1.0,,,,,,,,,,,,,,,,,,,,,,,,,,,,,,,,,,,,,,,,,,,,,nback76,1.0,2024-01-30_14h17.48.480,untitled,2023.2.3,59.9346831733353,2024-01-30 14h44.50.270545 -0500,
1.0,"[-0.64, 0.4]",None,0.0,4.0,4.0,4.0,,,,,,,,,1780.3511506998911,,,,,,,,,,,,,,,,,,,,,,,,,,,,1780.33555349987,1780.3511506998911,1780.3511506998911,1780.8176233000122,1780.85112440004,1783.3176931999624,1783.3346168000717,None,1.0,,,,,,,,,,,,,,,,,,,,,,,,,,,,,,,,,,,,,,,,,,,,,nback76,1.0,2024-01-30_14h17.48.480,untitled,2023.2.3,59.9346831733353,2024-01-30 14h44.50.270545 -0500,
1.0,"[-0.64, 0.4]",None,0.0,5.0,5.0,5.0,,,,,,,,,1783.3509440999478,,,,,,,,,,,,,,,,,,,,,,,,,,,,1783.335446999874,1783.3509440999478,1783.3509440999478,1783.8178387000223,1783.8511006000915,1786.317602599971,1786.3344230998773,None,1.0,,,,,,,,,,,,,,,,,,,,,,,,,,,,,,,,,,,,,,,,,,,,,nback76,1.0,2024-01-30_14h17.48.480,untitled,2023.2.3,59.9346831733353,2024-01-30 14h44.50.270545 -0500,
4.0,"[-0.2, 0.1]",None,0.0,6.0,6.0,6.0,,,,,,,,,1786.3508997000754,,,,,,,,,,,,,,,,,,,,,,,,,,,,1786.33513329993,1786.3508997000754,1786.3508997000754,1786.8175890999846,1786.8508182999212,1789.3176809998697,1789.3344747999215,None,1.0,,,,,,,,,,,,,,,,,,,,,,,,,,,,,,,,,,,,,,,,,,,,,nback76,1.0,2024-01-30_14h17.48.480,untitled,2023.2.3,59.9346831733353,2024-01-30 14h44.50.270545 -0500,
5.0,"[0.2, 0.1]",None,0.0,7.0,7.0,7.0,,,,,,,,,1789.3508347999305,,,,,,,,,,,,,,,,,,,,,,,,,,,,1789.335340499878,1789.3508347999305,1789.3508347999305,1789.8174397998955,1789.8509301999584,1792.3176635999698,1792.3343287999742,None,1.0,,,,,,,,,,,,,,,,,,,,,,,,,,,,,,,,,,,,,,,,,,,,,nback76,1.0,2024-01-30_14h17.48.480,untitled,2023.2.3,59.9346831733353,2024-01-30 14h44.50.270545 -0500,
11.0,"[-0.64, -0.4]",space,0.0,8.0,8.0,8.0,,,,,,,,,1792.3509257999249,,,,,,,,,,,,,,,,,,,,,,,,,,,,1792.3351310999133,1792.3509257999249,1792.3509257999249,1792.8174988999965,1792.850916000083,1795.317516699899,1795.3340723998845,space,1.0,0.5084547000005841,None,,,,,,,,,,,,,,,,,,,,,,,,,,,,,,,,,,,,,,,,,,,nback76,1.0,2024-01-30_14h17.48.480,untitled,2023.2.3,59.9346831733353,2024-01-30 14h44.50.270545 -0500,
9.0,"[0.2, -0.1]",None,0.0,9.0,9.0,9.0,,,,,,,,,1795.3506485000253,,,,,,,,,,,,,,,,,,,,,,,,,,,,1795.3346432999242,1795.3506485000253,1795.3506485000253,1795.817470900016,1795.8507256999146,1798.3174403000155,1798.334193999879,None,1.0,,,,,,,,,,,,,,,,,,,,,,,,,,,,,,,,,,,,,,,,,,,,,nback76,1.0,2024-01-30_14h17.48.480,untitled,2023.2.3,59.9346831733353,2024-01-30 14h44.50.270545 -0500,
8.0,"[-0.2, -0.1]",None,0.0,10.0,10.0,10.0,,,,,,,,,1798.350747300079,,,,,,,,,,,,,,,,,,,,,,,,,,,,1798.3349647000432,1798.350747300079,1798.350747300079,1798.81741899997,1798.8506779000163,1801.317407900002,1801.334206199972,None,1.0,,,,,,,,,,,,,,,,,,,,,,,,,,,,,,,,,,,,,,,,,,,,,nback76,1.0,2024-01-30_14h17.48.480,untitled,2023.2.3,59.9346831733353,2024-01-30 14h44.50.270545 -0500,
9.0,"[0.2, -0.1]",None,0.0,11.0,11.0,11.0,,,,,,,,,1801.3507437000517,,,,,,,,,,,,,,,,,,,,,,,,,,,,1801.3350267000496,1801.3507437000517,1801.3507437000517,1801.8341331998815,1801.850765999872,1804.333997499896,1804.3342494999524,None,1.0,,,,,,,,,,,,,,,,,,,,,,,,,,,,,,,,,,,,,,,,,,,,,nback76,1.0,2024-01-30_14h17.48.480,untitled,2023.2.3,59.9346831733353,2024-01-30 14h44.50.270545 -0500,
6.0,"[-0.3, 0]",None,0.0,12.0,12.0,12.0,,,,,,,,,1804.350465399912,,,,,,,,,,,,,,,,,,,,,,,,,,,,1804.3350643999877,1804.350465399912,1804.350465399912,1804.8341069000307,1804.8507032999769,1807.334028699901,1807.33422910003,None,1.0,,,,,,,,,,,,,,,,,,,,,,,,,,,,,,,,,,,,,,,,,,,,,nback76,1.0,2024-01-30_14h17.48.480,untitled,2023.2.3,59.9346831733353,2024-01-30 14h44.50.270545 -0500,
9.0,"[0.2, -0.1]",None,0.0,13.0,13.0,13.0,,,,,,,,,1807.3506789999085,,,,,,,,,,,,,,,,,,,,,,,,,,,,1807.335029500071,1807.3506789999085,1807.3506789999085,1807.8339945999903,1807.850647599902,1810.333849200048,1810.3340203999544,None,1.0,,,,,,,,,,,,,,,,,,,,,,,,,,,,,,,,,,,,,,,,,,,,,nback76,1.0,2024-01-30_14h17.48.480,untitled,2023.2.3,59.9346831733353,2024-01-30 14h44.50.270545 -0500,
7.0,"[0.3, 0]",None,0.0,14.0,14.0,14.0,,,,,,,,,1810.3504301998764,,,,,,,,,,,,,,,,,,,,,,,,,,,,1810.3347108999733,1810.3504301998764,1810.3504301998764,1810.8338337999303,1810.8505420000288,1813.3339072000235,1813.3340942000505,None,1.0,,,,,,,,,,,,,,,,,,,,,,,,,,,,,,,,,,,,,,,,,,,,,nback76,1.0,2024-01-30_14h17.48.480,untitled,2023.2.3,59.9346831733353,2024-01-30 14h44.50.270545 -0500,
2.0,"[0.64, 0.4]",None,0.0,15.0,15.0,15.0,,,,,,,,,1813.350477400003,,,,,,,,,,,,,,,,,,,,,,,,,,,,1813.3348505999893,1813.350477400003,1813.350477400003,1813.8339986999051,1813.8504818999209,1816.333907400025,1816.3341059000231,None,1.0,,,,,,,,,,,,,,,,,,,,,,,,,,,,,,,,,,,,,,,,,,,,,nback76,1.0,2024-01-30_14h17.48.480,untitled,2023.2.3,59.9346831733353,2024-01-30 14h44.50.270545 -0500,
2.0,"[0.64, 0.4]",None,0.0,16.0,16.0,16.0,,,,,,,,,1816.3503672000952,,,,,,,,,,,,,,,,,,,,,,,,,,,,1816.33495109994,1816.3503672000952,1816.3503672000952,1816.833881800063,1816.8504377999343,1819.3336640000343,1819.3338293998968,None,1.0,,,,,,,,,,,,,,,,,,,,,,,,,,,,,,,,,,,,,,,,,,,,,nback76,1.0,2024-01-30_14h17.48.480,untitled,2023.2.3,59.9346831733353,2024-01-30 14h44.50.270545 -0500,
11.0,"[-0.64, -0.4]",space,0.0,17.0,17.0,17.0,,,,,,,,,1819.350244600093,,,,,,,,,,,,,,,,,,,,,,,,,,,,1819.334559299983,1819.350244600093,1819.350244600093,1819.8337097999172,1819.8504033999047,1822.3335778000765,1822.3337151999583,space,1.0,0.3965765000320971,None,,,,,,,,,,,,,,,,,,,,,,,,,,,,,,,,,,,,,,,,,,,nback76,1.0,2024-01-30_14h17.48.480,untitled,2023.2.3,59.9346831733353,2024-01-30 14h44.50.270545 -0500,
11.0,"[-0.64, -0.4]",space,0.0,18.0,18.0,18.0,,,,,,,,,1822.350190399913,,,,,,,,,,,,,,,,,,,,,,,,,,,,1822.3343187000137,1822.350190399913,1822.350190399913,1822.8340298000255,1822.8501071000935,1825.333471500082,1825.3336284998804,space,1.0,0.4838753999210894,None,,,,,,,,,,,,,,,,,,,,,,,,,,,,,,,,,,,,,,,,,,,nback76,1.0,2024-01-30_14h17.48.480,untitled,2023.2.3,59.9346831733353,2024-01-30 14h44.50.270545 -0500,
7.0,"[0.3, 0]",None,0.0,19.0,19.0,19.0,,,,,,,,,1825.350108699873,,,,,,,,,,,,,,,,,,,,,,,,,,,,1825.3344586000312,1825.350108699873,1825.350108699873,1825.8335102000276,1825.8502122999637,1828.3335215998811,1828.333696899936,None,1.0,,,,,,,,,,,,,,,,,,,,,,,,,,,,,,,,,,,,,,,,,,,,,nback76,1.0,2024-01-30_14h17.48.480,untitled,2023.2.3,59.9346831733353,2024-01-30 14h44.50.270545 -0500,
3.0,"[0, 0.2]",None,0.0,20.0,20.0,20.0,,,,,,,,,1828.350193500053,,,,,,,,,,,,,,,,,,,,,,,,,,,,1828.334342200076,1828.350193500053,1828.350193500053,1828.833381799981,1828.849961000029,1831.333449299913,1831.333625700092,None,1.0,,,,,,,,,,,,,,,,,,,,,,,,,,,,,,,,,,,,,,,,,,,,,nback76,1.0,2024-01-30_14h17.48.480,untitled,2023.2.3,59.9346831733353,2024-01-30 14h44.50.270545 -0500,
10.0,"[0, -0.2]",None,0.0,21.0,21.0,21.0,,,,,,,,,1831.3500375999135,,,,,,,,,,,,,,,,,,,,,,,,,,,,1831.3343257999516,1831.3500375999135,1831.3500375999135,1831.8333854000084,1831.850147499936,1834.3334144998807,1834.3335792999717,None,1.0,,,,,,,,,,,,,,,,,,,,,,,,,,,,,,,,,,,,,,,,,,,,,nback76,1.0,2024-01-30_14h17.48.480,untitled,2023.2.3,59.9346831733353,2024-01-30 14h44.50.270545 -0500,
1.0,"[-0.64, 0.4]",None,0.0,22.0,22.0,22.0,,,,,,,,,1834.350019099889,,,,,,,,,,,,,,,,,,,,,,,,,,,,1834.3345981000457,1834.350019099889,1834.350019099889,1834.8333441000432,1834.8499368000776,1837.3335520999967,1837.333764499985,None,1.0,,,,,,,,,,,,,,,,,,,,,,,,,,,,,,,,,,,,,,,,,,,,,nback76,1.0,2024-01-30_14h17.48.480,untitled,2023.2.3,59.9346831733353,2024-01-30 14h44.50.270545 -0500,
2.0,"[0.64, 0.4]",None,0.0,23.0,23.0,23.0,,,,,,,,,1837.3500774998683,,,,,,,,,,,,,,,,,,,,,,,,,,,,1837.334582499927,1837.3500774998683,1837.3500774998683,1837.833333000075,1837.849906000076,1840.333285700064,1840.3334536999464,None,1.0,,,,,,,,,,,,,,,,,,,,,,,,,,,,,,,,,,,,,,,,,,,,,nback76,1.0,2024-01-30_14h17.48.480,untitled,2023.2.3,59.9346831733353,2024-01-30 14h44.50.270545 -0500,
6.0,"[-0.3, 0]",None,0.0,24.0,24.0,24.0,,,,,,,,,1840.349991899915,,,,,,,,,,,,,,,,,,,,,,,,,,,,1840.3341449000875,1840.349991899915,1840.349991899915,1840.83324409998,1840.8499374999665,1843.333294000011,1843.333473300096,None,1.0,,,,,,,,,,,,,,,,,,,,,,,,,,,,,,,,,,,,,,,,,,,,,nback76,1.0,2024-01-30_14h17.48.480,untitled,2023.2.3,59.9346831733353,2024-01-30 14h44.50.270545 -0500,
3.0,"[0, 0.2]",None,0.0,25.0,25.0,25.0,,,,,,,,,1843.3500379999168,,,,,,,,,,,,,,,,,,,,,,,,,,,,1843.3341437999625,1843.3500379999168,1843.3500379999168,1843.8333972000985,1843.849913999904,1846.3334123999807,1846.3336100000888,None,1.0,,,,,,,,,,,,,,,,,,,,,,,,,,,,,,,,,,,,,,,,,,,,,nback76,1.0,2024-01-30_14h17.48.480,untitled,2023.2.3,59.9346831733353,2024-01-30 14h44.50.270545 -0500,
11.0,"[-0.64, -0.4]",space,0.0,26.0,26.0,26.0,,,,,,,,,1846.3496743000576,,,,,,,,,,,,,,,,,,,,,,,,,,,,1846.334373000078,1846.3496743000576,1846.3496743000576,1846.833120699972,1846.8498281000648,1849.333087499952,1849.3332511000333,space,1.0,0.3415926001034677,None,,,,,,,,,,,,,,,,,,,,,,,,,,,,,,,,,,,,,,,,,,,nback76,1.0,2024-01-30_14h17.48.480,untitled,2023.2.3,59.9346831733353,2024-01-30 14h44.50.270545 -0500,
1.0,"[-0.64, 0.4]",None,0.0,27.0,27.0,27.0,,,,,,,,,1849.3498150000812,,,,,,,,,,,,,,,,,,,,,,,,,,,,1849.3340209999587,1849.3498150000812,1849.3498150000812,1849.8330983999183,1849.8498416999355,1852.3331438000316,1852.333313500043,None,1.0,,,,,,,,,,,,,,,,,,,,,,,,,,,,,,,,,,,,,,,,,,,,,nback76,1.0,2024-01-30_14h17.48.480,untitled,2023.2.3,59.9346831733353,2024-01-30 14h44.50.270545 -0500,
3.0,"[0, 0.2]",None,0.0,28.0,28.0,28.0,,,,,,,,,1852.349789599888,,,,,,,,,,,,,,,,,,,,,,,,,,,,1852.3339605999645,1852.349789599888,1852.349789599888,1852.8329884000125,1852.8497498000504,1855.333189399913,1855.3333886000328,None,1.0,,,,,,,,,,,,,,,,,,,,,,,,,,,,,,,,,,,,,,,,,,,,,nback76,1.0,2024-01-30_14h17.48.480,untitled,2023.2.3,59.9346831733353,2024-01-30 14h44.50.270545 -0500,
9.0,"[0.2, -0.1]",None,0.0,29.0,29.0,29.0,,,,,,,,,1855.349698300008,,,,,,,,,,,,,,,,,,,,,,,,,,,,1855.334172700066,1855.349698300008,1855.349698300008,1855.8332130000929,1855.8497699000875,1858.3329221999736,1858.3330749000888,None,1.0,,,,,,,,,,,,,,,,,,,,,,,,,,,,,,,,,,,,,,,,,,,,,nback76,1.0,2024-01-30_14h17.48.480,untitled,2023.2.3,59.9346831733353,2024-01-30 14h44.50.270545 -0500,
8.0,"[-0.2, -0.1]",None,0.0,30.0,30.0,30.0,,,,,,,,,1858.349584300071,,,,,,,,,,,,,,,,,,,,,,,,,,,,1858.333679900039,1858.349584300071,1858.349584300071,1858.8329219999723,1858.8496969998812,1861.333135300083,1861.333349999972,None,1.0,,,,,,,,,,,,,,,,,,,,,,,,,,,,,,,,,,,,,,,,,,,,,nback76,1.0,2024-01-30_14h17.48.480,untitled,2023.2.3,59.9346831733353,2024-01-30 14h44.50.270545 -0500,
12.0,"[0.64, -0.4]",None,0.0,31.0,31.0,31.0,,,,,,,,,1861.349793399917,,,,,,,,,,,,,,,,,,,,,,,,,,,,1861.3341765999796,1861.349793399917,1861.349793399917,1861.832847799873,1861.8495930999047,1864.3331422000192,1864.33336160006,None,1.0,,,,,,,,,,,,,,,,,,,,,,,,,,,,,,,,,,,,,,,,,,,,,nback76,1.0,2024-01-30_14h17.48.480,untitled,2023.2.3,59.9346831733353,2024-01-30 14h44.50.270545 -0500,
9.0,"[0.2, -0.1]",None,0.0,32.0,32.0,32.0,,,,,,,,,1864.349677799968,,,,,,,,,,,,,,,,,,,,,,,,,,,,1864.3342178000603,1864.349677799968,1864.349677799968,1864.8328472999856,1864.8495827999432,1867.3328167998695,1867.3329980000851,None,1.0,,,,,,,,,,,,,,,,,,,,,,,,,,,,,,,,,,,,,,,,,,,,,nback76,1.0,2024-01-30_14h17.48.480,untitled,2023.2.3,59.9346831733353,2024-01-30 14h44.50.270545 -0500,
11.0,"[-0.64, -0.4]",space,0.0,33.0,33.0,33.0,,,,,,,,,1867.3496340001,,,,,,,,,,,,,,,,,,,,,,,,,,,,1867.3338389000853,1867.3496340001,1867.3496340001,1867.8329125000164,1867.8495894998775,1870.332895200001,1870.3330661000216,space,1.0,0.4188494000118226,None,,,,,,,,,,,,,,,,,,,,,,,,,,,,,,,,,,,,,,,,,,,nback76,1.0,2024-01-30_14h17.48.480,untitled,2023.2.3,59.9346831733353,2024-01-30 14h44.50.270545 -0500,
7.0,"[0.3, 0]",None,0.0,34.0,34.0,34.0,,,,,,,,,1870.3494370998812,,,,,,,,,,,,,,,,,,,,,,,,,,,,1870.3338583000004,1870.3494370998812,1870.3494370998812,1870.8327685999684,1870.8493808999192,1873.332849599887,1873.3330411000643,None,1.0,,,,,,,,,,,,,,,,,,,,,,,,,,,,,,,,,,,,,,,,,,,,,nback76,1.0,2024-01-30_14h17.48.480,untitled,2023.2.3,59.9346831733353,2024-01-30 14h44.50.270545 -0500,
11.0,"[-0.64, -0.4]",space,0.0,35.0,35.0,35.0,,,,,,,,,1873.3495732999872,,,,,,,,,,,,,,,,,,,,,,,,,,,,1873.3337743000595,1873.3495732999872,1873.3495732999872,1873.8326338999905,1873.8492423999123,1876.332594400039,1876.3327522000764,space,1.0,0.500054799951613,None,,,,,,,,,,,,,,,,,,,,,,,,,,,,,,,,,,,,,,,,,,,nback76,1.0,2024-01-30_14h17.48.480,untitled,2023.2.3,59.9346831733353,2024-01-30 14h44.50.270545 -0500,
4.0,"[-0.2, 0.1]",None,0.0,36.0,36.0,36.0,,,,,,,,,1876.349211199908,,,,,,,,,,,,,,,,,,,,,,,,,,,,1876.333494399907,1876.349211199908,1876.349211199908,1876.8327820000704,1876.849314399995,1879.3327635999303,1879.3329517999664,None,1.0,,,,,,,,,,,,,,,,,,,,,,,,,,,,,,,,,,,,,,,,,,,,,nback76,1.0,2024-01-30_14h17.48.480,untitled,2023.2.3,59.9346831733353,2024-01-30 14h44.50.270545 -0500,
5.0,"[0.2, 0.1]",None,0.0,37.0,37.0,37.0,,,,,,,,,1879.3493073999416,,,,,,,,,,,,,,,,,,,,,,,,,,,,1879.3336877000984,1879.3493073999416,1879.3493073999416,1879.832749699941,1879.8491340999024,1882.332391199889,1882.3324831000064,None,1.0,,,,,,,,,,,,,,,,,,,,,,,,,,,,,,,,,,,,,,,,,,,,,nback76,1.0,2024-01-30_14h17.48.480,untitled,2023.2.3,59.9346831733353,2024-01-30 14h44.50.270545 -0500,
6.0,"[-0.3, 0]",None,0.0,38.0,38.0,38.0,,,,,,,,,1882.349042499904,,,,,,,,,,,,,,,,,,,,,,,,,,,,1882.3327903000168,1882.349042499904,1882.349042499904,1882.8328030998816,1882.8492145999332,1885.3326479999812,1885.3328424000647,None,1.0,,,,,,,,,,,,,,,,,,,,,,,,,,,,,,,,,,,,,,,,,,,,,nback76,1.0,2024-01-30_14h17.48.480,untitled,2023.2.3,59.9346831733353,2024-01-30 14h44.50.270545 -0500,
11.0,"[-0.64, -0.4]",space,0.0,39.0,39.0,39.0,,,,,,,,,1885.3491312998813,,,,,,,,,,,,,,,,,,,,,,,,,,,,1885.333661600016,1885.3491312998813,1885.3491312998813,1885.832972599892,1885.8490331000648,1888.3325415998695,1888.332745600026,space,1.0,0.490819200174883,None,,,,,,,,,,,,,,,,,,,,,,,,,,,,,,,,,,,,,,,,,,,nback76,1.0,2024-01-30_14h17.48.480,untitled,2023.2.3,59.9346831733353,2024-01-30 14h44.50.270545 -0500,
,,,,,,,,,,,,,,,,,,,,,,,,,,,,,,,,,,,,,,,,,,,,,,,,,,,,,,1888.333420000039,1888.3490673999768,1888.3490673999768,1911.400050699944,space,23.03527200012468,None,,,,,,,,,,,,,,,,,,,,,,,,,,,,,,,,,,,,nback76,1.0,2024-01-30_14h17.48.480,untitled,2023.2.3,59.9346831733353,2024-01-30 14h44.50.270545 -0500,
10.0,"[0, -0.2]",None,,,,,0.0,0.0,0.0,0.0,,,,,1912.415276200045,,,,,,,,,,,,,,,,,,,,,,,,1911.4000901000109,1911.415384100052,1912.415276200045,1912.3993720998988,,,,,,,,,,,,,,,,,,,1912.409756900044,1912.415276200045,1912.415276200045,1912.91534759989,1912.91534759989,1915.4152240999972,1915.4152240999972,1915.399109199876,None,1.0,,,,,,,,,,,,,,,,,,,,,,,,,,nback76,1.0,2024-01-30_14h17.48.480,untitled,2023.2.3,59.9346831733353,2024-01-30 14h44.50.270545 -0500,
5.0,"[0.2, 0.1]",None,,,,,0.0,1.0,1.0,1.0,,,,,1915.4152240999972,,,,,,,,,,,,,,,,,,,,,,,,,,,,,,,,,,,,,,,,,,,,,,1915.399648899911,1915.4152240999972,1915.4152240999972,1915.915316199884,1915.915316199884,1918.415293999948,1918.415293999948,1918.399146700045,None,1.0,,,,,,,,,,,,,,,,,,,,,,,,,,nback76,1.0,2024-01-30_14h17.48.480,untitled,2023.2.3,59.9346831733353,2024-01-30 14h44.50.270545 -0500,
6.0,"[-0.3, 0]",None,,,,,0.0,2.0,2.0,2.0,,,,,1918.415293999948,,,,,,,,,,,,,,,,,,,,,,,,,,,,,,,,,,,,,,,,,,,,,,1918.3997686000075,1918.415293999948,1918.415293999948,1918.9152146999256,1918.9152146999256,1921.4152210000905,1921.4152210000905,1921.3993756999264,None,1.0,,,,,,,,,,,,,,,,,,,,,,,,,,nback76,1.0,2024-01-30_14h17.48.480,untitled,2023.2.3,59.9346831733353,2024-01-30 14h44.50.270545 -0500,
6.0,"[-0.3, 0]",space,,,,,0.0,3.0,3.0,3.0,,,,,1921.4152210000905,,,,,,,,,,,,,,,,,,,,,,,,,,,,,,,,,,,,,,,,,,,,,,1921.4000428998845,1921.4152210000905,1921.4152210000905,1921.915251400089,1921.915251400089,1924.4151391000487,1924.4151391000487,1924.399535600096,space,1.0,0.5343375001102686,None,,,,,,,,,,,,,,,,,,,,,,,,nback76,1.0,2024-01-30_14h17.48.480,untitled,2023.2.3,59.9346831733353,2024-01-30 14h44.50.270545 -0500,
12.0,"[0.64, -0.4]",None,,,,,0.0,4.0,4.0,4.0,,,,,1924.4151391000487,,,,,,,,,,,,,,,,,,,,,,,,,,,,,,,,,,,,,,,,,,,,,,1924.400634400081,1924.4151391000487,1924.4151391000487,1924.9153050000316,1924.9153050000316,1927.4152424999047,1927.4152424999047,1927.3996061000507,None,1.0,,,,,,,,,,,,,,,,,,,,,,,,,,nback76,1.0,2024-01-30_14h17.48.480,untitled,2023.2.3,59.9346831733353,2024-01-30 14h44.50.270545 -0500,
10.0,"[0, -0.2]",None,,,,,0.0,5.0,5.0,5.0,,,,,1927.4152424999047,,,,,,,,,,,,,,,,,,,,,,,,,,,,,,,,,,,,,,,,,,,,,,1927.40049359994,1927.4152424999047,1927.4152424999047,1927.9151498000135,1927.9151498000135,1930.414951599901,1930.414951599901,1930.398747300031,None,1.0,,,,,,,,,,,,,,,,,,,,,,,,,,nback76,1.0,2024-01-30_14h17.48.480,untitled,2023.2.3,59.9346831733353,2024-01-30 14h44.50.270545 -0500,
2.0,"[0.64, 0.4]",None,,,,,0.0,6.0,6.0,6.0,,,,,1930.414951599901,,,,,,,,,,,,,,,,,,,,,,,,,,,,,,,,,,,,,,,,,,,,,,1930.39912019996,1930.414951599901,1930.414951599901,1930.9150821000803,1930.9150821000803,1933.4150072999764,1933.4150072999764,1933.3991693998687,None,1.0,,,,,,,,,,,,,,,,,,,,,,,,,,nback76,1.0,2024-01-30_14h17.48.480,untitled,2023.2.3,59.9346831733353,2024-01-30 14h44.50.270545 -0500,
9.0,"[0.2, -0.1]",None,,,,,0.0,7.0,7.0,7.0,,,,,1933.4150072999764,,,,,,,,,,,,,,,,,,,,,,,,,,,,,,,,,,,,,,,,,,,,,,1933.3998547999652,1933.4150072999764,1933.4150072999764,1933.91500859987,1933.91500859987,1936.4150918000375,1936.4150918000375,1936.399404899916,None,1.0,,,,,,,,,,,,,,,,,,,,,,,,,,nback76,1.0,2024-01-30_14h17.48.480,untitled,2023.2.3,59.9346831733353,2024-01-30 14h44.50.270545 -0500,
9.0,"[0.2, -0.1]",space,,,,,0.0,8.0,8.0,8.0,,,,,1936.4150918000375,,,,,,,,,,,,,,,,,,,,,,,,,,,,,,,,,,,,,,,,,,,,,,1936.4002302999145,1936.4150918000375,1936.4150918000375,1936.9149477998728,1936.9149477998728,1939.4151290999723,1939.4151290999723,1939.399424900068,space,1.0,0.475905500119552,None,,,,,,,,,,,,,,,,,,,,,,,,nback76,1.0,2024-01-30_14h17.48.480,untitled,2023.2.3,59.9346831733353,2024-01-30 14h44.50.270545 -0500,
6.0,"[-0.3, 0]",None,,,,,0.0,9.0,9.0,9.0,,,,,1939.4151290999723,,,,,,,,,,,,,,,,,,,,,,,,,,,,,,,,,,,,,,,,,,,,,,1939.400550100021,1939.4151290999723,1939.4151290999723,1939.915113300085,1939.915113300085,1942.4148538999725,1942.4148538999725,1942.398997300072,None,1.0,,,,,,,,,,,,,,,,,,,,,,,,,,nback76,1.0,2024-01-30_14h17.48.480,untitled,2023.2.3,59.9346831733353,2024-01-30 14h44.50.270545 -0500,
11.0,"[-0.64, -0.4]",None,,,,,0.0,10.0,10.0,10.0,,,,,1942.4148538999725,,,,,,,,,,,,,,,,,,,,,,,,,,,,,,,,,,,,,,,,,,,,,,1942.39958889992,1942.4148538999725,1942.4148538999725,1942.9149231000335,1942.9149231000335,1945.414761699969,1945.414761699969,1945.3990187000015,None,1.0,,,,,,,,,,,,,,,,,,,,,,,,,,nback76,1.0,2024-01-30_14h17.48.480,untitled,2023.2.3,59.9346831733353,2024-01-30 14h44.50.270545 -0500,
11.0,"[-0.64, -0.4]",space,,,,,0.0,11.0,11.0,11.0,,,,,1945.414761699969,,,,,,,,,,,,,,,,,,,,,,,,,,,,,,,,,,,,,,,,,,,,,,1945.399656899972,1945.414761699969,1945.414761699969,1945.9148283998948,1945.9148283998948,1948.4146133998877,1948.4146133998877,1948.3986637000928,space,1.0,0.4980725001078099,None,,,,,,,,,,,,,,,,,,,,,,,,nback76,1.0,2024-01-30_14h17.48.480,untitled,2023.2.3,59.9346831733353,2024-01-30 14h44.50.270545 -0500,
4.0,"[-0.2, 0.1]",None,,,,,0.0,12.0,12.0,12.0,,,,,1948.4146133998877,,,,,,,,,,,,,,,,,,,,,,,,,,,,,,,,,,,,,,,,,,,,,,1948.3993597000367,1948.4146133998877,1948.4146133998877,1948.914701800095,1948.914701800095,1951.4147560999263,1951.4147560999263,1951.3989788999315,None,1.0,,,,,,,,,,,,,,,,,,,,,,,,,,nback76,1.0,2024-01-30_14h17.48.480,untitled,2023.2.3,59.9346831733353,2024-01-30 14h44.50.270545 -0500,
3.0,"[0, 0.2]",None,,,,,0.0,13.0,13.0,13.0,,,,,1951.4147560999263,,,,,,,,,,,,,,,,,,,,,,,,,,,,,,,,,,,,,,,,,,,,,,1951.3996204000432,1951.4147560999263,1951.4147560999263,1951.914796399884,1951.914796399884,1954.4147433000617,1954.4147433000617,1954.398795699933,None,1.0,,,,,,,,,,,,,,,,,,,,,,,,,,nback76,1.0,2024-01-30_14h17.48.480,untitled,2023.2.3,59.9346831733353,2024-01-30 14h44.50.270545 -0500,
3.0,"[0, 0.2]",space,,,,,0.0,14.0,14.0,14.0,,,,,1954.4147433000617,,,,,,,,,,,,,,,,,,,,,,,,,,,,,,,,,,,,,,,,,,,,,,1954.3994891000912,1954.4147433000617,1954.4147433000617,1954.9147602999583,1954.9147602999583,1957.4146062999496,1957.4146062999496,1957.3989766000304,space,1.0,0.692591099999845,None,,,,,,,,,,,,,,,,,,,,,,,,nback76,1.0,2024-01-30_14h17.48.480,untitled,2023.2.3,59.9346831733353,2024-01-30 14h44.50.270545 -0500,
8.0,"[-0.2, -0.1]",None,,,,,0.0,15.0,15.0,15.0,,,,,1957.4146062999496,,,,,,,,,,,,,,,,,,,,,,,,,,,,,,,,,,,,,,,,,,,,,,1957.3999461000783,1957.4146062999496,1957.4146062999496,1957.9146843999624,1957.9146843999624,1960.4143950999717,1960.4143950999717,1960.398420199985,None,1.0,,,,,,,,,,,,,,,,,,,,,,,,,,nback76,1.0,2024-01-30_14h17.48.480,untitled,2023.2.3,59.9346831733353,2024-01-30 14h44.50.270545 -0500,
1.0,"[-0.64, 0.4]",None,,,,,0.0,16.0,16.0,16.0,,,,,1960.4143950999717,,,,,,,,,,,,,,,,,,,,,,,,,,,,,,,,,,,,,,,,,,,,,,1960.3990209000185,1960.4143950999717,1960.4143950999717,1960.914502999978,1960.914502999978,1963.4145277000496,1963.4145277000496,1963.39857329987,None,1.0,,,,,,,,,,,,,,,,,,,,,,,,,,nback76,1.0,2024-01-30_14h17.48.480,untitled,2023.2.3,59.9346831733353,2024-01-30 14h44.50.270545 -0500,
2.0,"[0.64, 0.4]",None,,,,,0.0,17.0,17.0,17.0,,,,,1963.4145277000496,,,,,,,,,,,,,,,,,,,,,,,,,,,,,,,,,,,,,,,,,,,,,,1963.3991392999887,1963.4145277000496,1963.4145277000496,1963.9145064998884,1963.9145064998884,1966.4143638999667,1966.4143638999667,1966.398356999969,None,1.0,,,,,,,,,,,,,,,,,,,,,,,,,,nback76,1.0,2024-01-30_14h17.48.480,untitled,2023.2.3,59.9346831733353,2024-01-30 14h44.50.270545 -0500,
4.0,"[-0.2, 0.1]",None,,,,,0.0,18.0,18.0,18.0,,,,,1966.4143638999667,,,,,,,,,,,,,,,,,,,,,,,,,,,,,,,,,,,,,,,,,,,,,,1966.398874500068,1966.4143638999667,1966.4143638999667,1966.914462900022,1966.914462900022,1969.414576499956,1969.414576499956,1969.3986654998732,None,1.0,,,,,,,,,,,,,,,,,,,,,,,,,,nback76,1.0,2024-01-30_14h17.48.480,untitled,2023.2.3,59.9346831733353,2024-01-30 14h44.50.270545 -0500,
4.0,"[-0.2, 0.1]",space,,,,,0.0,19.0,19.0,19.0,,,,,1969.414576499956,,,,,,,,,,,,,,,,,,,,,,,,,,,,,,,,,,,,,,,,,,,,,,1969.3994753998704,1969.414576499956,1969.414576499956,1969.9143799999729,1969.9143799999729,1972.4142714999616,1972.4142714999616,1972.3983477000147,space,1.0,0.9168217000551522,None,,,,,,,,,,,,,,,,,,,,,,,,nback76,1.0,2024-01-30_14h17.48.480,untitled,2023.2.3,59.9346831733353,2024-01-30 14h44.50.270545 -0500,
8.0,"[-0.2, -0.1]",None,,,,,0.0,20.0,20.0,20.0,,,,,1972.4142714999616,,,,,,,,,,,,,,,,,,,,,,,,,,,,,,,,,,,,,,,,,,,,,,1972.399195000064,1972.4142714999616,1972.4142714999616,1972.9143061998768,1972.9143061998768,1975.414457899984,1975.414457899984,1975.3984964000992,None,1.0,,,,,,,,,,,,,,,,,,,,,,,,,,nback76,1.0,2024-01-30_14h17.48.480,untitled,2023.2.3,59.9346831733353,2024-01-30 14h44.50.270545 -0500,
5.0,"[0.2, 0.1]",None,,,,,0.0,21.0,21.0,21.0,,,,,1975.414457899984,,,,,,,,,,,,,,,,,,,,,,,,,,,,,,,,,,,,,,,,,,,,,,1975.3991775999311,1975.414457899984,1975.414457899984,1975.914084099932,1975.914084099932,1978.4141877999064,1978.4141877999064,1978.3985228000677,None,1.0,,,,,,,,,,,,,,,,,,,,,,,,,,nback76,1.0,2024-01-30_14h17.48.480,untitled,2023.2.3,59.9346831733353,2024-01-30 14h44.50.270545 -0500,
5.0,"[0.2, 0.1]",space,,,,,0.0,22.0,22.0,22.0,,,,,1978.4141877999064,,,,,,,,,,,,,,,,,,,,,,,,,,,,,,,,,,,,,,,,,,,,,,1978.3993251000063,1978.4141877999064,1978.4141877999064,1978.91415950004,1978.91415950004,1981.414203000022,1981.414203000022,1981.3985391999595,space,1.0,0.4879908999428153,None,,,,,,,,,,,,,,,,,,,,,,,,nback76,1.0,2024-01-30_14h17.48.480,untitled,2023.2.3,59.9346831733353,2024-01-30 14h44.50.270545 -0500,
1.0,"[-0.64, 0.4]",None,,,,,0.0,23.0,23.0,23.0,,,,,1981.414203000022,,,,,,,,,,,,,,,,,,,,,,,,,,,,,,,,,,,,,,,,,,,,,,1981.3994308998808,1981.414203000022,1981.414203000022,1981.9142592998687,1981.9142592998687,1984.414064100012,1984.414064100012,1984.3981085999403,None,1.0,,,,,,,,,,,,,,,,,,,,,,,,,,nback76,1.0,2024-01-30_14h17.48.480,untitled,2023.2.3,59.9346831733353,2024-01-30 14h44.50.270545 -0500,
3.0,"[0, 0.2]",None,,,,,0.0,24.0,24.0,24.0,,,,,1984.414064100012,,,,,,,,,,,,,,,,,,,,,,,,,,,,,,,,,,,,,,,,,,,,,,1984.3986708000305,1984.414064100012,1984.414064100012,1984.9141732999124,1984.9141732999124,1987.414140000008,1987.414140000008,1987.398467999883,None,1.0,,,,,,,,,,,,,,,,,,,,,,,,,,nback76,1.0,2024-01-30_14h17.48.480,untitled,2023.2.3,59.9346831733353,2024-01-30 14h44.50.270545 -0500,
6.0,"[-0.3, 0]",None,,,,,0.0,25.0,25.0,25.0,,,,,1987.414140000008,,,,,,,,,,,,,,,,,,,,,,,,,,,,,,,,,,,,,,,,,,,,,,1987.399163400056,1987.414140000008,1987.414140000008,1987.9139300999232,1987.9139300999232,1990.4140256000685,1990.4140256000685,1990.3982965999749,None,1.0,,,,,,,,,,,,,,,,,,,,,,,,,,nback76,1.0,2024-01-30_14h17.48.480,untitled,2023.2.3,59.9346831733353,2024-01-30 14h44.50.270545 -0500,
1.0,"[-0.64, 0.4]",None,,,,,0.0,26.0,26.0,26.0,,,,,1990.4140256000685,,,,,,,,,,,,,,,,,,,,,,,,,,,,,,,,,,,,,,,,,,,,,,1990.3989943000488,1990.4140256000685,1990.4140256000685,1990.9139916000424,1990.9139916000424,1993.413925099885,1993.413925099885,1993.3982174999544,None,1.0,,,,,,,,,,,,,,,,,,,,,,,,,,nback76,1.0,2024-01-30_14h17.48.480,untitled,2023.2.3,59.9346831733353,2024-01-30 14h44.50.270545 -0500,
1.0,"[-0.64, 0.4]",space,,,,,0.0,27.0,27.0,27.0,,,,,1993.413925099885,,,,,,,,,,,,,,,,,,,,,,,,,,,,,,,,,,,,,,,,,,,,,,1993.398968799971,1993.413925099885,1993.413925099885,1993.914069300052,1993.914069300052,1996.4139109000096,1996.4139109000096,1996.3977689000312,space,1.0,0.4686183999292552,None,,,,,,,,,,,,,,,,,,,,,,,,nback76,1.0,2024-01-30_14h17.48.480,untitled,2023.2.3,59.9346831733353,2024-01-30 14h44.50.270545 -0500,
1.0,"[-0.64, 0.4]",space,,,,,0.0,28.0,28.0,28.0,,,,,1996.4139109000096,,,,,,,,,,,,,,,,,,,,,,,,,,,,,,,,,,,,,,,,,,,,,,1996.398366099922,1996.4139109000096,1996.4139109000096,1996.9138611000965,1996.9138611000965,1999.4136504998896,1999.4136504998896,1999.397789400071,space,1.0,1.7581142999697477,None,,,,,,,,,,,,,,,,,,,,,,,,nback76,1.0,2024-01-30_14h17.48.480,untitled,2023.2.3,59.9346831733353,2024-01-30 14h44.50.270545 -0500,
3.0,"[0, 0.2]",None,,,,,0.0,29.0,29.0,29.0,,,,,1999.4136504998896,,,,,,,,,,,,,,,,,,,,,,,,,,,,,,,,,,,,,,,,,,,,,,1999.3982478999533,1999.4136504998896,1999.4136504998896,1999.9139070999809,1999.9139070999809,2002.4137244999877,2002.4137244999877,2002.3976918999103,None,1.0,,,,,,,,,,,,,,,,,,,,,,,,,,nback76,1.0,2024-01-30_14h17.48.480,untitled,2023.2.3,59.9346831733353,2024-01-30 14h44.50.270545 -0500,
12.0,"[0.64, -0.4]",None,,,,,0.0,30.0,30.0,30.0,,,,,2002.4137244999877,,,,,,,,,,,,,,,,,,,,,,,,,,,,,,,,,,,,,,,,,,,,,,2002.3984999998936,2002.4137244999877,2002.4137244999877,2002.913653400028,2002.913653400028,2005.4134958998768,2005.4134958998768,2005.3974625999108,None,1.0,,,,,,,,,,,,,,,,,,,,,,,,,,nback76,1.0,2024-01-30_14h17.48.480,untitled,2023.2.3,59.9346831733353,2024-01-30 14h44.50.270545 -0500,
12.0,"[0.64, -0.4]",space,,,,,0.0,31.0,31.0,31.0,,,,,2005.4134958998768,,,,,,,,,,,,,,,,,,,,,,,,,,,,,,,,,,,,,,,,,,,,,,2005.3978758999149,2005.4134958998768,2005.4134958998768,2005.9136179999916,2005.9136179999916,2008.4137744000184,2008.4137744000184,2008.3981087000573,space,1.0,0.6657227000687271,None,,,,,,,,,,,,,,,,,,,,,,,,nback76,1.0,2024-01-30_14h17.48.480,untitled,2023.2.3,59.9346831733353,2024-01-30 14h44.50.270545 -0500,
2.0,"[0.64, 0.4]",None,,,,,0.0,32.0,32.0,32.0,,,,,2008.4137744000184,,,,,,,,,,,,,,,,,,,,,,,,,,,,,,,,,,,,,,,,,,,,,,2008.3991082999853,2008.4137744000184,2008.4137744000184,2008.9138821000236,2008.9138821000236,2011.413703999948,2011.413703999948,2011.3979915999807,None,1.0,,,,,,,,,,,,,,,,,,,,,,,,,,nback76,1.0,2024-01-30_14h17.48.480,untitled,2023.2.3,59.9346831733353,2024-01-30 14h44.50.270545 -0500,
1.0,"[-0.64, 0.4]",None,,,,,0.0,33.0,33.0,33.0,,,,,2011.413703999948,,,,,,,,,,,,,,,,,,,,,,,,,,,,,,,,,,,,,,,,,,,,,,2011.3986424000468,2011.413703999948,2011.413703999948,2011.913739999989,2011.913739999989,2014.4136455000844,2014.4136455000844,2014.3977578999477,None,1.0,,,,,,,,,,,,,,,,,,,,,,,,,,nback76,1.0,2024-01-30_14h17.48.480,untitled,2023.2.3,59.9346831733353,2024-01-30 14h44.50.270545 -0500,
7.0,"[0.3, 0]",None,,,,,0.0,34.0,34.0,34.0,,,,,2014.4136455000844,,,,,,,,,,,,,,,,,,,,,,,,,,,,,,,,,,,,,,,,,,,,,,2014.3986106999216,2014.4136455000844,2014.4136455000844,2014.9137188999448,2014.9137188999448,2017.4135197000576,2017.4135197000576,2017.397810699884,None,1.0,,,,,,,,,,,,,,,,,,,,,,,,,,nback76,1.0,2024-01-30_14h17.48.480,untitled,2023.2.3,59.9346831733353,2024-01-30 14h44.50.270545 -0500,
7.0,"[0.3, 0]",space,,,,,0.0,35.0,35.0,35.0,,,,,2017.4135197000576,,,,,,,,,,,,,,,,,,,,,,,,,,,,,,,,,,,,,,,,,,,,,,2017.3985683000649,2017.4135197000576,2017.4135197000576,2017.9136345000009,2017.9136345000009,2020.4133538000751,2020.4133538000751,2020.3975098000371,space,1.0,0.5187083000782877,None,,,,,,,,,,,,,,,,,,,,,,,,nback76,1.0,2024-01-30_14h17.48.480,untitled,2023.2.3,59.9346831733353,2024-01-30 14h44.50.270545 -0500,
11.0,"[-0.64, -0.4]",None,,,,,0.0,36.0,36.0,36.0,,,,,2020.4133538000751,,,,,,,,,,,,,,,,,,,,,,,,,,,,,,,,,,,,,,,,,,,,,,2020.3981943998951,2020.4133538000751,2020.4133538000751,2020.913503699936,2020.913503699936,2023.4135525000747,2023.4135525000747,2023.3976775000335,None,1.0,,,,,,,,,,,,,,,,,,,,,,,,,,nback76,1.0,2024-01-30_14h17.48.480,untitled,2023.2.3,59.9346831733353,2024-01-30 14h44.50.270545 -0500,
2.0,"[0.64, 0.4]",None,,,,,0.0,37.0,37.0,37.0,,,,,2023.4135525000747,,,,,,,,,,,,,,,,,,,,,,,,,,,,,,,,,,,,,,,,,,,,,,2023.3984014999587,2023.4135525000747,2023.4135525000747,2023.913389799884,2023.913389799884,2026.4133282999971,2026.4133282999971,2026.3973850999027,None,1.0,,,,,,,,,,,,,,,,,,,,,,,,,,nback76,1.0,2024-01-30_14h17.48.480,untitled,2023.2.3,59.9346831733353,2024-01-30 14h44.50.270545 -0500,
6.0,"[-0.3, 0]",None,,,,,0.0,38.0,38.0,38.0,,,,,2026.4133282999971,,,,,,,,,,,,,,,,,,,,,,,,,,,,,,,,,,,,,,,,,,,,,,2026.397993999999,2026.4133282999971,2026.4133282999971,2026.9134168000887,2026.9134168000887,2029.413364399923,2029.413364399923,2029.3976769000287,None,1.0,,,,,,,,,,,,,,,,,,,,,,,,,,nback76,1.0,2024-01-30_14h17.48.480,untitled,2023.2.3,59.9346831733353,2024-01-30 14h44.50.270545 -0500,
10.0,"[0, -0.2]",None,,,,,0.0,39.0,39.0,39.0,,,,,2029.413364399923,,,,,,,,,,,,,,,,,,,,,,,,,,,,,,,,,,,,,,,,,,,,,,2029.398511199979,2029.413364399923,2029.413364399923,2029.9135813000607,2029.9135813000607,2032.4134490999857,2032.4134490999857,2032.3976922000293,None,1.0,,,,,,,,,,,,,,,,,,,,,,,,,,nback76,1.0,2024-01-30_14h17.48.480,untitled,2023.2.3,59.9346831733353,2024-01-30 14h44.50.270545 -0500,
,,,,,,,,,,,,,,,,,,,,,,,,,,,,,,,,,,,,,,,,,,,,,,,,,,,,,,,,,,,,,,,,,,,,,,,,,2032.398275099928,2032.4134490999857,2032.4134490999857,2042.3475673000796,space,9.926607999950647,None,,,,,,,,,,,,,,,,,nback76,1.0,2024-01-30_14h17.48.480,untitled,2023.2.3,59.9346831733353,2024-01-30 14h44.50.270545 -0500,
,"[0.2, 0.1]",None,,,,,,,,,0.0,0.0,0.0,0.0,2043.3631686999,,,,,,,,,,,,,,,,,,,,,,,,2042.3476044000129,2042.3631213000044,2043.3631686999,2043.3473086000888,,,,,,,,,,,,,,,,,,,,,,,,,,,,,,,,,,,,,,2043.3572954998815,2043.3631686999,2043.3631686999,2043.86312990007,2043.86312990007,2046.363054200076,2046.363054200076,2046.3465495000128,None,1.0,,,,,,,nback76,1.0,2024-01-30_14h17.48.480,untitled,2023.2.3,59.9346831733353,2024-01-30 14h44.50.270545 -0500,
,"[0.64, 0.4]",None,,,,,,,,,0.0,1.0,1.0,1.0,2046.363054200076,,,,,,,,,,,,,,,,,,,,,,,,,,,,,,,,,,,,,,,,,,,,,,,,,,,,,,,,,,,,,,,,,2046.3469898998735,2046.363054200076,2046.363054200076,2046.863032199908,2046.863032199908,2049.363102999981,2049.363102999981,2049.3475498000626,None,1.0,,,,,,,nback76,1.0,2024-01-30_14h17.48.480,untitled,2023.2.3,59.9346831733353,2024-01-30 14h44.50.270545 -0500,
,"[-0.3, 0]",None,,,,,,,,,0.0,2.0,2.0,2.0,2049.363102999981,,,,,,,,,,,,,,,,,,,,,,,,,,,,,,,,,,,,,,,,,,,,,,,,,,,,,,,,,,,,,,,,,2049.3483778999653,2049.363102999981,2049.363102999981,2049.862822199939,2049.862822199939,2052.3628537999466,2052.3628537999466,2052.347097999882,None,1.0,,,,,,,nback76,1.0,2024-01-30_14h17.48.480,untitled,2023.2.3,59.9346831733353,2024-01-30 14h44.50.270545 -0500,
,"[0.2, -0.1]",None,,,,,,,,,0.0,3.0,3.0,3.0,2052.3628537999466,,,,,,,,,,,,,,,,,,,,,,,,,,,,,,,,,,,,,,,,,,,,,,,,,,,,,,,,,,,,,,,,,2052.347771300003,2052.3628537999466,2052.3628537999466,2052.863097100053,2052.863097100053,2055.362995899981,2055.362995899981,2055.347105300054,None,1.0,,,,,,,nback76,1.0,2024-01-30_14h17.48.480,untitled,2023.2.3,59.9346831733353,2024-01-30 14h44.50.270545 -0500,
,"[0, 0.2]",None,,,,,,,,,0.0,4.0,4.0,4.0,2055.362995899981,,,,,,,,,,,,,,,,,,,,,,,,,,,,,,,,,,,,,,,,,,,,,,,,,,,,,,,,,,,,,,,,,2055.347715599928,2055.362995899981,2055.362995899981,2055.862961899955,2055.862961899955,2058.362684200052,2058.362684200052,2058.346967699937,None,1.0,,,,,,,nback76,1.0,2024-01-30_14h17.48.480,untitled,2023.2.3,59.9346831733353,2024-01-30 14h44.50.270545 -0500,
,"[0.2, -0.1]",space,,,,,,,,,0.0,5.0,5.0,5.0,2058.362684200052,,,,,,,,,,,,,,,,,,,,,,,,,,,,,,,,,,,,,,,,,,,,,,,,,,,,,,,,,,,,,,,,,2058.34767999989,2058.362684200052,2058.362684200052,2058.862774600042,2058.862774600042,2061.362829899881,2061.362829899881,2061.3468577000317,space,1.0,0.7929024999029934,None,,,,,nback76,1.0,2024-01-30_14h17.48.480,untitled,2023.2.3,59.9346831733353,2024-01-30 14h44.50.270545 -0500,
,"[0, -0.2]",None,,,,,,,,,0.0,6.0,6.0,6.0,2061.362829899881,,,,,,,,,,,,,,,,,,,,,,,,,,,,,,,,,,,,,,,,,,,,,,,,,,,,,,,,,,,,,,,,,2061.3478047999088,2061.362829899881,2061.362829899881,2061.862747099949,2061.862747099949,2064.3626433999743,2064.3626433999743,2064.3468112000264,None,1.0,,,,,,,nback76,1.0,2024-01-30_14h17.48.480,untitled,2023.2.3,59.9346831733353,2024-01-30 14h44.50.270545 -0500,
,"[0.64, -0.4]",None,,,,,,,,,0.0,7.0,7.0,7.0,2064.3626433999743,,,,,,,,,,,,,,,,,,,,,,,,,,,,,,,,,,,,,,,,,,,,,,,,,,,,,,,,,,,,,,,,,2064.347438100027,2064.3626433999743,2064.3626433999743,2064.8626884999685,2064.8626884999685,2067.362793599954,2067.362793599954,2067.347152400064,None,1.0,,,,,,,nback76,1.0,2024-01-30_14h17.48.480,untitled,2023.2.3,59.9346831733353,2024-01-30 14h44.50.270545 -0500,
,"[0.3, 0]",None,,,,,,,,,0.0,8.0,8.0,8.0,2067.362793599954,,,,,,,,,,,,,,,,,,,,,,,,,,,,,,,,,,,,,,,,,,,,,,,,,,,,,,,,,,,,,,,,,2067.3480332999025,2067.362793599954,2067.362793599954,2067.862605300033,2067.862605300033,2070.362698599929,2070.362698599929,2070.347051699878,None,1.0,,,,,,,nback76,1.0,2024-01-30_14h17.48.480,untitled,2023.2.3,59.9346831733353,2024-01-30 14h44.50.270545 -0500,
,"[0.64, -0.4]",space,,,,,,,,,0.0,9.0,9.0,9.0,2070.362698599929,,,,,,,,,,,,,,,,,,,,,,,,,,,,,,,,,,,,,,,,,,,,,,,,,,,,,,,,,,,,,,,,,2070.347899199929,2070.362698599929,2070.362698599929,2070.862500099931,2070.862500099931,2073.362644100096,2073.362644100096,2073.3469893999863,space,1.0,1.0403983001597226,None,,,,,nback76,1.0,2024-01-30_14h17.48.480,untitled,2023.2.3,59.9346831733353,2024-01-30 14h44.50.270545 -0500,
,"[-0.64, 0.4]",None,,,,,,,,,0.0,10.0,10.0,10.0,2073.362644100096,,,,,,,,,,,,,,,,,,,,,,,,,,,,,,,,,,,,,,,,,,,,,,,,,,,,,,,,,,,,,,,,,2073.3479138000403,2073.362644100096,2073.362644100096,2073.8626274000853,2073.8626274000853,2076.362469299929,2076.362469299929,2076.3468607999384,None,1.0,,,,,,,nback76,1.0,2024-01-30_14h17.48.480,untitled,2023.2.3,59.9346831733353,2024-01-30 14h44.50.270545 -0500,
,"[0.2, 0.1]",None,,,,,,,,,0.0,11.0,11.0,11.0,2076.362469299929,,,,,,,,,,,,,,,,,,,,,,,,,,,,,,,,,,,,,,,,,,,,,,,,,,,,,,,,,,,,,,,,,2076.347704899963,2076.362469299929,2076.362469299929,2076.862667399924,2076.862667399924,2079.3624891999643,2079.3624891999643,2079.3466187999584,None,1.0,,,,,,,nback76,1.0,2024-01-30_14h17.48.480,untitled,2023.2.3,59.9346831733353,2024-01-30 14h44.50.270545 -0500,
,"[0.3, 0]",None,,,,,,,,,0.0,12.0,12.0,12.0,2079.3624891999643,,,,,,,,,,,,,,,,,,,,,,,,,,,,,,,,,,,,,,,,,,,,,,,,,,,,,,,,,,,,,,,,,2079.3472243000288,2079.3624891999643,2079.3624891999643,2079.8625801000744,2079.8625801000744,2082.3624136999715,2082.3624136999715,2082.346675100038,None,1.0,,,,,,,nback76,1.0,2024-01-30_14h17.48.480,untitled,2023.2.3,59.9346831733353,2024-01-30 14h44.50.270545 -0500,
,"[0.2, 0.1]",space,,,,,,,,,0.0,13.0,13.0,13.0,2082.3624136999715,,,,,,,,,,,,,,,,,,,,,,,,,,,,,,,,,,,,,,,,,,,,,,,,,,,,,,,,,,,,,,,,,2082.3474133999557,2082.3624136999715,2082.3624136999715,2082.86248859996,2082.86248859996,2085.362555099884,2085.362555099884,2085.346579399891,space,1.0,0.6677280000876635,None,,,,,nback76,1.0,2024-01-30_14h17.48.480,untitled,2023.2.3,59.9346831733353,2024-01-30 14h44.50.270545 -0500,
,"[-0.3, 0]",None,,,,,,,,,0.0,14.0,14.0,14.0,2085.362555099884,,,,,,,,,,,,,,,,,,,,,,,,,,,,,,,,,,,,,,,,,,,,,,,,,,,,,,,,,,,,,,,,,2085.347579299938,2085.362555099884,2085.362555099884,2085.862588699907,2085.862588699907,2088.3622518000197,2088.3622518000197,2088.3467439999804,None,1.0,,,,,,,nback76,1.0,2024-01-30_14h17.48.480,untitled,2023.2.3,59.9346831733353,2024-01-30 14h44.50.270545 -0500,
,"[0, 0.2]",None,,,,,,,,,0.0,15.0,15.0,15.0,2088.3622518000197,,,,,,,,,,,,,,,,,,,,,,,,,,,,,,,,,,,,,,,,,,,,,,,,,,,,,,,,,,,,,,,,,2088.3476084999274,2088.3622518000197,2088.3622518000197,2088.8623770000413,2088.8623770000413,2091.362382600084,2091.362382600084,2091.346613300033,None,1.0,,,,,,,nback76,1.0,2024-01-30_14h17.48.480,untitled,2023.2.3,59.9346831733353,2024-01-30 14h44.50.270545 -0500,
,"[-0.3, 0]",space,,,,,,,,,0.0,16.0,16.0,16.0,2091.362382600084,,,,,,,,,,,,,,,,,,,,,,,,,,,,,,,,,,,,,,,,,,,,,,,,,,,,,,,,,,,,,,,,,2091.347383199958,2091.362382600084,2091.362382600084,2091.862288699951,2091.862288699951,2094.3619774000254,2094.3619774000254,2094.3461062000133,space,1.0,0.4167196999769658,None,,,,,nback76,1.0,2024-01-30_14h17.48.480,untitled,2023.2.3,59.9346831733353,2024-01-30 14h44.50.270545 -0500,
,"[-0.64, -0.4]",None,,,,,,,,,0.0,17.0,17.0,17.0,2094.3619774000254,,,,,,,,,,,,,,,,,,,,,,,,,,,,,,,,,,,,,,,,,,,,,,,,,,,,,,,,,,,,,,,,,2094.346480800072,2094.3619774000254,2094.3619774000254,2094.86211690004,2094.86211690004,2097.3620827000123,2097.3620827000123,2097.34632849996,None,1.0,,,,,,,nback76,1.0,2024-01-30_14h17.48.480,untitled,2023.2.3,59.9346831733353,2024-01-30 14h44.50.270545 -0500,
,"[-0.2, -0.1]",None,,,,,,,,,0.0,18.0,18.0,18.0,2097.3620827000123,,,,,,,,,,,,,,,,,,,,,,,,,,,,,,,,,,,,,,,,,,,,,,,,,,,,,,,,,,,,,,,,,2097.347081199987,2097.3620827000123,2097.3620827000123,2097.862240700051,2097.862240700051,2100.3621278998908,2100.3621278998908,2100.3461970998906,None,1.0,,,,,,,nback76,1.0,2024-01-30_14h17.48.480,untitled,2023.2.3,59.9346831733353,2024-01-30 14h44.50.270545 -0500,
,"[0.2, -0.1]",None,,,,,,,,,0.0,19.0,19.0,19.0,2100.3621278998908,,,,,,,,,,,,,,,,,,,,,,,,,,,,,,,,,,,,,,,,,,,,,,,,,,,,,,,,,,,,,,,,,2100.3468295000494,2100.3621278998908,2100.3621278998908,2100.862121500075,2100.862121500075,2103.361845599953,2103.361845599953,2103.345672799973,None,1.0,,,,,,,nback76,1.0,2024-01-30_14h17.48.480,untitled,2023.2.3,59.9346831733353,2024-01-30 14h44.50.270545 -0500,
,"[0.2, -0.1]",None,,,,,,,,,0.0,20.0,20.0,20.0,2103.361845599953,,,,,,,,,,,,,,,,,,,,,,,,,,,,,,,,,,,,,,,,,,,,,,,,,,,,,,,,,,,,,,,,,2103.3462070999667,2103.361845599953,2103.361845599953,2103.8620843000244,2103.8620843000244,2106.3620666998904,2106.3620666998904,2106.3462749000173,space,0.0,1.3148340000770986,None,,,,,nback76,1.0,2024-01-30_14h17.48.480,untitled,2023.2.3,59.9346831733353,2024-01-30 14h44.50.270545 -0500,
,"[-0.64, 0.4]",None,,,,,,,,,0.0,21.0,21.0,21.0,2106.3620666998904,,,,,,,,,,,,,,,,,,,,,,,,,,,,,,,,,,,,,,,,,,,,,,,,,,,,,,,,,,,,,,,,,2106.347058000043,2106.3620666998904,2106.3620666998904,2106.8620495998766,2106.8620495998766,2109.361779199913,2109.361779199913,2109.34584799991,None,1.0,,,,,,,nback76,1.0,2024-01-30_14h17.48.480,untitled,2023.2.3,59.9346831733353,2024-01-30 14h44.50.270545 -0500,
,"[0, 0.2]",None,,,,,,,,,0.0,22.0,22.0,22.0,2109.361779199913,,,,,,,,,,,,,,,,,,,,,,,,,,,,,,,,,,,,,,,,,,,,,,,,,,,,,,,,,,,,,,,,,2109.3464095999952,2109.361779199913,2109.361779199913,2109.861852000002,2109.861852000002,2112.361981299938,2112.361981299938,2112.3463425000664,None,1.0,,,,,,,nback76,1.0,2024-01-30_14h17.48.480,untitled,2023.2.3,59.9346831733353,2024-01-30 14h44.50.270545 -0500,
,"[0.64, -0.4]",None,,,,,,,,,0.0,23.0,23.0,23.0,2112.361981299938,,,,,,,,,,,,,,,,,,,,,,,,,,,,,,,,,,,,,,,,,,,,,,,,,,,,,,,,,,,,,,,,,2112.3472096999176,2112.361981299938,2112.361981299938,2112.862023100024,2112.862023100024,2115.3620770999696,2115.3620770999696,2115.3463049998973,None,1.0,,,,,,,nback76,1.0,2024-01-30_14h17.48.480,untitled,2023.2.3,59.9346831733353,2024-01-30 14h44.50.270545 -0500,
,"[0, 0.2]",space,,,,,,,,,0.0,24.0,24.0,24.0,2115.3620770999696,,,,,,,,,,,,,,,,,,,,,,,,,,,,,,,,,,,,,,,,,,,,,,,,,,,,,,,,,,,,,,,,,2115.3471454998944,2115.3620770999696,2115.3620770999696,2115.8618713000324,2115.8618713000324,2118.3618534000125,2118.3618534000125,2118.34617220005,space,1.0,0.4303127999883145,None,,,,,nback76,1.0,2024-01-30_14h17.48.480,untitled,2023.2.3,59.9346831733353,2024-01-30 14h44.50.270545 -0500,
,"[-0.2, 0.1]",None,,,,,,,,,0.0,25.0,25.0,25.0,2118.3618534000125,,,,,,,,,,,,,,,,,,,,,,,,,,,,,,,,,,,,,,,,,,,,,,,,,,,,,,,,,,,,,,,,,2118.347115099896,2118.3618534000125,2118.3618534000125,2118.8617571999785,2118.8617571999785,2121.3616969999857,2121.3616969999857,2121.345708800014,None,1.0,,,,,,,nback76,1.0,2024-01-30_14h17.48.480,untitled,2023.2.3,59.9346831733353,2024-01-30 14h44.50.270545 -0500,
,"[0.3, 0]",None,,,,,,,,,0.0,26.0,26.0,26.0,2121.3616969999857,,,,,,,,,,,,,,,,,,,,,,,,,,,,,,,,,,,,,,,,,,,,,,,,,,,,,,,,,,,,,,,,,2121.346357899951,2121.3616969999857,2121.3616969999857,2121.8617205999326,2121.8617205999326,2124.3617541000717,2124.3617541000717,2124.346031599911,None,1.0,,,,,,,nback76,1.0,2024-01-30_14h17.48.480,untitled,2023.2.3,59.9346831733353,2024-01-30 14h44.50.270545 -0500,
,"[-0.2, 0.1]",space,,,,,,,,,0.0,27.0,27.0,27.0,2124.3617541000717,,,,,,,,,,,,,,,,,,,,,,,,,,,,,,,,,,,,,,,,,,,,,,,,,,,,,,,,,,,,,,,,,2124.346777800005,2124.3617541000717,2124.3617541000717,2124.861625300022,2124.861625300022,2127.361613600049,2127.361613600049,2127.3459328999743,space,1.0,0.6226933000143617,None,,,,,nback76,1.0,2024-01-30_14h17.48.480,untitled,2023.2.3,59.9346831733353,2024-01-30 14h44.50.270545 -0500,
,"[-0.2, 0.1]",None,,,,,,,,,0.0,28.0,28.0,28.0,2127.361613600049,,,,,,,,,,,,,,,,,,,,,,,,,,,,,,,,,,,,,,,,,,,,,,,,,,,,,,,,,,,,,,,,,2127.346978900023,2127.361613600049,2127.361613600049,2127.8614805000834,2127.8614805000834,2130.3615452998783,2130.3615452998783,2130.34557590005,None,1.0,,,,,,,nback76,1.0,2024-01-30_14h17.48.480,untitled,2023.2.3,59.9346831733353,2024-01-30 14h44.50.270545 -0500,
,"[0.2, 0.1]",None,,,,,,,,,0.0,29.0,29.0,29.0,2130.3615452998783,,,,,,,,,,,,,,,,,,,,,,,,,,,,,,,,,,,,,,,,,,,,,,,,,,,,,,,,,,,,,,,,,2130.346190399956,2130.3615452998783,2130.3615452998783,2130.8615198000334,2130.8615198000334,2133.361534500029,2133.361534500029,2133.3459181000944,None,1.0,,,,,,,nback76,1.0,2024-01-30_14h17.48.480,untitled,2023.2.3,59.9346831733353,2024-01-30 14h44.50.270545 -0500,
,"[-0.64, -0.4]",None,,,,,,,,,0.0,30.0,30.0,30.0,2133.361534500029,,,,,,,,,,,,,,,,,,,,,,,,,,,,,,,,,,,,,,,,,,,,,,,,,,,,,,,,,,,,,,,,,2133.34672209993,2133.361534500029,2133.361534500029,2133.861542199971,2133.861542199971,2136.361308099935,2136.361308099935,2136.345794100081,None,1.0,,,,,,,nback76,1.0,2024-01-30_14h17.48.480,untitled,2023.2.3,59.9346831733353,2024-01-30 14h44.50.270545 -0500,
,"[0, -0.2]",None,,,,,,,,,0.0,31.0,31.0,31.0,2136.361308099935,,,,,,,,,,,,,,,,,,,,,,,,,,,,,,,,,,,,,,,,,,,,,,,,,,,,,,,,,,,,,,,,,2136.346647300059,2136.361308099935,2136.361308099935,2136.8616170999594,2136.8616170999594,2139.3615013998933,2139.3615013998933,2139.34593890002,None,1.0,,,,,,,nback76,1.0,2024-01-30_14h17.48.480,untitled,2023.2.3,59.9346831733353,2024-01-30 14h44.50.270545 -0500,
,"[-0.64, -0.4]",space,,,,,,,,,0.0,32.0,32.0,32.0,2139.3615013998933,,,,,,,,,,,,,,,,,,,,,,,,,,,,,,,,,,,,,,,,,,,,,,,,,,,,,,,,,,,,,,,,,2139.3468019999564,2139.3615013998933,2139.3615013998933,2139.8616303999443,2139.8616303999443,2142.361306499922,2142.361306499922,2142.3455286999238,space,1.0,0.4485840999986976,None,,,,,nback76,1.0,2024-01-30_14h17.48.480,untitled,2023.2.3,59.9346831733353,2024-01-30 14h44.50.270545 -0500,
,"[0.64, 0.4]",None,,,,,,,,,0.0,33.0,33.0,33.0,2142.361306499922,,,,,,,,,,,,,,,,,,,,,,,,,,,,,,,,,,,,,,,,,,,,,,,,,,,,,,,,,,,,,,,,,2142.3463749000803,2142.361306499922,2142.361306499922,2142.8614290000405,2142.8614290000405,2145.361173100071,2145.361173100071,2145.345450799912,None,1.0,,,,,,,nback76,1.0,2024-01-30_14h17.48.480,untitled,2023.2.3,59.9346831733353,2024-01-30 14h44.50.270545 -0500,
,"[-0.3, 0]",None,,,,,,,,,0.0,34.0,34.0,34.0,2145.361173100071,,,,,,,,,,,,,,,,,,,,,,,,,,,,,,,,,,,,,,,,,,,,,,,,,,,,,,,,,,,,,,,,,2145.34609050001,2145.361173100071,2145.361173100071,2145.8613690999337,2145.8613690999337,2148.3611661000177,2148.3611661000177,2148.34541599988,None,1.0,,,,,,,nback76,1.0,2024-01-30_14h17.48.480,untitled,2023.2.3,59.9346831733353,2024-01-30 14h44.50.270545 -0500,
,"[0.3, 0]",None,,,,,,,,,0.0,35.0,35.0,35.0,2148.3611661000177,,,,,,,,,,,,,,,,,,,,,,,,,,,,,,,,,,,,,,,,,,,,,,,,,,,,,,,,,,,,,,,,,2148.346076000016,2148.3611661000177,2148.3611661000177,2148.861250099959,2148.861250099959,2151.361130400095,2151.361130400095,2151.3452981999144,None,1.0,,,,,,,nback76,1.0,2024-01-30_14h17.48.480,untitled,2023.2.3,59.9346831733353,2024-01-30 14h44.50.270545 -0500,
,"[-0.3, 0]",space,,,,,,,,,0.0,36.0,36.0,36.0,2151.361130400095,,,,,,,,,,,,,,,,,,,,,,,,,,,,,,,,,,,,,,,,,,,,,,,,,,,,,,,,,,,,,,,,,2151.3459103999194,2151.361130400095,2151.361130400095,2151.861272099893,2151.861272099893,2154.361230900045,2154.361230900045,2154.3454789000098,space,1.0,0.4837956000119447,None,,,,,nback76,1.0,2024-01-30_14h17.48.480,untitled,2023.2.3,59.9346831733353,2024-01-30 14h44.50.270545 -0500,
,"[0, -0.2]",None,,,,,,,,,0.0,37.0,37.0,37.0,2154.361230900045,,,,,,,,,,,,,,,,,,,,,,,,,,,,,,,,,,,,,,,,,,,,,,,,,,,,,,,,,,,,,,,,,2154.3463955998886,2154.361230900045,2154.361230900045,2154.8612025999464,2154.8612025999464,2157.3609674999025,2157.3609674999025,2157.345063499873,None,1.0,,,,,,,nback76,1.0,2024-01-30_14h17.48.480,untitled,2023.2.3,59.9346831733353,2024-01-30 14h44.50.270545 -0500,
,"[0.3, 0]",None,,,,,,,,,0.0,38.0,38.0,38.0,2157.3609674999025,,,,,,,,,,,,,,,,,,,,,,,,,,,,,,,,,,,,,,,,,,,,,,,,,,,,,,,,,,,,,,,,,2157.3456818999257,2157.3609674999025,2157.3609674999025,2157.8611512000207,2157.8611512000207,2160.361013799906,2160.361013799906,2160.3451779999305,space,0.0,0.3493774000089615,None,,,,,nback76,1.0,2024-01-30_14h17.48.480,untitled,2023.2.3,59.9346831733353,2024-01-30 14h44.50.270545 -0500,
,"[0.2, 0.1]",None,,,,,,,,,0.0,39.0,39.0,39.0,2160.361013799906,,,,,,,,,,,,,,,,,,,,,,,,,,,,,,,,,,,,,,,,,,,,,,,,,,,,,,,,,,,,,,,,,2160.34595680004,2160.361013799906,2160.361013799906,2160.861138300039,2160.861138300039,2163.361063499935,2163.361063499935,2163.345050500008,None,1.0,,,,,,,nback76,1.0,2024-01-30_14h17.48.480,untitled,2023.2.3,59.9346831733353,2024-01-30 14h44.50.270545 -0500,
,,,,,,,,,,,,,,,,,,,,,,,,,,,,,,,,,,,,,,,,,,,,,,,,,,,,,,,,,,,,,,,,,,,,,,,,,,,,,,,,,,,,,,,,,,,,2163.3454299999867,2163.361063499935,2166.361089800019,2166.345066800015,,,,,,,,
