square,location,corrAns,trials_0.thisRepN,trials_0.thisTrialN,trials_0.thisN,trials_0.thisIndex,trials_1.thisRepN,trials_1.thisTrialN,trials_1.thisN,trials_1.thisIndex,trials_2.thisRepN,trials_2.thisTrialN,trials_2.thisN,trials_2.thisIndex,thisRow.t,notes,Instructions.started,instructions.started,key_resp.started,inst_sq11.started,Instructions.stopped,key_resp.keys,key_resp.rt,key_resp.duration,All.started,sq_1.started,sq_2.started,sq_3.started,sq_4.started,sq_5.started,sq_6.started,sq_7.started,sq_8.started,sq_9.started,sq_10.started,sq_11.started,sq_12.started,All.stopped,Fixation.started,fixation_3.started,fixation_3.stopped,Fixation.stopped,N_back_0_Trial.started,target_square_0.started,response_0.started,fixation_0.started,target_square_0.stopped,fixation_0.stopped,N_back_0_Trial.stopped,response_0.keys,response_0.corr,response_0.rt,response_0.duration,response_0.stopped,Instructions_1.started,instructions_1.started,key_resp_1.started,Instructions_1.stopped,key_resp_1.keys,key_resp_1.rt,key_resp_1.duration,N_back_1_Trial.started,target_square_1.started,response_1.started,target_square_1.stopped,fixation_1.started,fixation_1.stopped,response_1.stopped,N_back_1_Trial.stopped,response_1.keys,response_1.corr,response_1.rt,response_1.duration,Instructions_2.started,instructions_2.started,key_resp_2.started,Instructions_2.stopped,key_resp_2.keys,key_resp_2.rt,key_resp_2.duration,N_back_2_trials.started,target_square_2.started,response_2.started,target_square_2.stopped,fixation_2.started,fixation_2.stopped,response_2.stopped,N_back_2_trials.stopped,response_2.keys,response_2.corr,response_2.rt,response_2.duration,End.started,thank_you.started,thank_you.stopped,End.stopped,participant,session,date,expName,psychopyVersion,frameRate,expStart,
,,,,,,,,,,,,,,,,,0.0014558000257238746,0.004385500040370971,0.004385500040370971,0.004385500040370971,2002.0156830000342,space,2002.0027065000031,None,,,,,,,,,,,,,,,,,,,,,,,,,,,,,,,,,,,,,,,,,,,,,,,,,,,,,,,,,,,,,,,,,,,,,,,,,nback54,001,2024-01-15_16h53.27.255,untitled,2023.2.3,59.978143951533674,2024-01-15 17h14.40.591200 -0500,
6,"[-0.3, 0]",None,0,0,0,0,,,,,,,,,2004.0326170999906,,,,,,,,,,2002.01572570001,2002.0306019000127,2002.0306019000127,2002.0306019000127,2002.0306019000127,2002.0306019000127,2002.0306019000127,2002.0306019000127,2002.0306019000127,2002.0306019000127,2002.0306019000127,2002.0306019000127,2002.0306019000127,2003.014404800022,2003.014420600026,2003.0303965000203,2004.0326170999906,2004.014983400004,2004.030710800027,2004.0326170999906,2004.0326170999906,2004.5139041999937,2004.5471825000132,2007.0137708000257,2007.0307089000125,None,1,,,,,,,,,,,,,,,,,,,,,,,,,,,,,,,,,,,,,,,,,,,,,,nback54,001,2024-01-15_16h53.27.255,untitled,2023.2.3,59.978143951533674,2024-01-15 17h14.40.591200 -0500,
10,"[0, -0.2]",None,0,1,1,1,,,,,,,,,2007.0473320000456,,,,,,,,,,,,,,,,,,,,,,,,,,,,2007.0318086000043,2007.0473320000456,2007.0473320000456,2007.513904099993,2007.547188299999,2010.0137945000315,2010.0306819000398,None,1,,,,,,,,,,,,,,,,,,,,,,,,,,,,,,,,,,,,,,,,,,,,,,nback54,001,2024-01-15_16h53.27.255,untitled,2023.2.3,59.978143951533674,2024-01-15 17h14.40.591200 -0500,
11,"[-0.64, -0.4]",space,0,2,2,2,,,,,,,,,2010.0471388000296,,,,,,,,,,,,,,,,,,,,,,,,,,,,2010.0314818000188,2010.0471388000296,2010.0471388000296,2010.5137855000212,2010.5471726999967,2013.0137271000422,2013.0305795000168,space,1,0.5194111000164412,None,,,,,,,,,,,,,,,,,,,,,,,,,,,,,,,,,,,,,,,,,,,,nback54,001,2024-01-15_16h53.27.255,untitled,2023.2.3,59.978143951533674,2024-01-15 17h14.40.591200 -0500,
12,"[0.64, -0.4]",None,0,3,3,3,,,,,,,,,2013.047203299997,,,,,,,,,,,,,,,,,,,,,,,,,,,,2013.031631699996,2013.047203299997,2013.047203299997,2013.5137275000452,2013.547016800032,2016.0138687000144,2016.0306821000413,None,1,,,,,,,,,,,,,,,,,,,,,,,,,,,,,,,,,,,,,,,,,,,,,,nback54,001,2024-01-15_16h53.27.255,untitled,2023.2.3,59.978143951533674,2024-01-15 17h14.40.591200 -0500,
1,"[-0.64, 0.4]",None,0,4,4,4,,,,,,,,,2016.0469603000092,,,,,,,,,,,,,,,,,,,,,,,,,,,,2016.0314571000054,2016.0469603000092,2016.0469603000092,2016.5136223000009,2016.5469247000292,2019.0138202999951,2019.0305690999958,None,1,,,,,,,,,,,,,,,,,,,,,,,,,,,,,,,,,,,,,,,,,,,,,,nback54,001,2024-01-15_16h53.27.255,untitled,2023.2.3,59.978143951533674,2024-01-15 17h14.40.591200 -0500,
1,"[-0.64, 0.4]",None,0,5,5,5,,,,,,,,,2019.047014700016,,,,,,,,,,,,,,,,,,,,,,,,,,,,2019.0314279000158,2019.047014700016,2019.047014700016,2019.513694800029,2019.5471117999987,2022.0137349000433,2022.0304306999897,None,1,,,,,,,,,,,,,,,,,,,,,,,,,,,,,,,,,,,,,,,,,,,,,,nback54,001,2024-01-15_16h53.27.255,untitled,2023.2.3,59.978143951533674,2024-01-15 17h14.40.591200 -0500,
4,"[-0.2, 0.1]",None,0,6,6,6,,,,,,,,,2022.0470350999967,,,,,,,,,,,,,,,,,,,,,,,,,,,,2022.0312556000426,2022.0470350999967,2022.0470350999967,2022.513559599989,2022.5469523000065,2025.0137178000296,2025.0304762999876,None,1,,,,,,,,,,,,,,,,,,,,,,,,,,,,,,,,,,,,,,,,,,,,,,nback54,001,2024-01-15_16h53.27.255,untitled,2023.2.3,59.978143951533674,2024-01-15 17h14.40.591200 -0500,
5,"[0.2, 0.1]",None,0,7,7,7,,,,,,,,,2025.0469308000174,,,,,,,,,,,,,,,,,,,,,,,,,,,,2025.031295599998,2025.0469308000174,2025.0469308000174,2025.5137004000135,2025.5469006000203,2028.0135618000058,2028.030443900032,None,1,,,,,,,,,,,,,,,,,,,,,,,,,,,,,,,,,,,,,,,,,,,,,,nback54,001,2024-01-15_16h53.27.255,untitled,2023.2.3,59.978143951533674,2024-01-15 17h14.40.591200 -0500,
11,"[-0.64, -0.4]",space,0,8,8,8,,,,,,,,,2028.0469068000093,,,,,,,,,,,,,,,,,,,,,,,,,,,,2028.031225200044,2028.0469068000093,2028.0469068000093,2028.513495000021,2028.5470188999898,2031.013537699997,2031.030383400037,space,1,0.4340434999903664,None,,,,,,,,,,,,,,,,,,,,,,,,,,,,,,,,,,,,,,,,,,,,nback54,001,2024-01-15_16h53.27.255,untitled,2023.2.3,59.978143951533674,2024-01-15 17h14.40.591200 -0500,
9,"[0.2, -0.1]",None,0,9,9,9,,,,,,,,,2031.0467691000085,,,,,,,,,,,,,,,,,,,,,,,,,,,,2031.0313783000456,2031.0467691000085,2031.0467691000085,2031.5134985999903,2031.5467684000032,2034.0144392999937,2034.0146103000152,None,1,,,,,,,,,,,,,,,,,,,,,,,,,,,,,,,,,,,,,,,,,,,,,,nback54,001,2024-01-15_16h53.27.255,untitled,2023.2.3,59.978143951533674,2024-01-15 17h14.40.591200 -0500,
8,"[-0.2, -0.1]",None,0,10,10,10,,,,,,,,,2034.0300463000312,,,,,,,,,,,,,,,,,,,,,,,,,,,,2034.0153325000429,2034.0300463000312,2034.0300463000312,2034.5133616999956,2034.530227100011,2037.013414999994,2037.0143315999885,None,1,,,2037.030019800004,,,,,,,,,,,,,,,,,,,,,,,,,,,,,,,,,,,,,,,,,,,nback54,001,2024-01-15_16h53.27.255,untitled,2023.2.3,59.978143951533674,2024-01-15 17h14.40.591200 -0500,
9,"[0.2, -0.1]",None,0,11,11,11,,,,,,,,,2037.030019800004,,,,,,,,,,,,,,,,,,,,,,,,,,,,2037.0152017000364,2037.030019800004,2037.030019800004,2037.5300272000022,2037.5300272000022,2040.0300488999928,2040.0140373000177,None,1,,,2040.0300488999928,,,,,,,,,,,,,,,,,,,,,,,,,,,,,,,,,,,,,,,,,,,nback54,001,2024-01-15_16h53.27.255,untitled,2023.2.3,59.978143951533674,2024-01-15 17h14.40.591200 -0500,
6,"[-0.3, 0]",None,0,12,12,12,,,,,,,,,2040.0300488999928,,,,,,,,,,,,,,,,,,,,,,,,,,,,2040.0147067999933,2040.0300488999928,2040.0300488999928,2040.5300933000399,2040.5300933000399,2043.0298788000364,2043.014120500011,None,1,,,2043.0298788000364,,,,,,,,,,,,,,,,,,,,,,,,,,,,,,,,,,,,,,,,,,,nback54,001,2024-01-15_16h53.27.255,untitled,2023.2.3,59.978143951533674,2024-01-15 17h14.40.591200 -0500,
9,"[0.2, -0.1]",None,0,13,13,13,,,,,,,,,2043.0298788000364,,,,,,,,,,,,,,,,,,,,,,,,,,,,2043.0148056999897,2043.0298788000364,2043.0298788000364,2043.5131425000145,2043.5298298000125,2046.0132473999984,2046.0140763000236,None,1,,,2046.0298340000445,,,,,,,,,,,,,,,,,,,,,,,,,,,,,,,,,,,,,,,,,,,nback54,001,2024-01-15_16h53.27.255,untitled,2023.2.3,59.978143951533674,2024-01-15 17h14.40.591200 -0500,
7,"[0.3, 0]",None,0,14,14,14,,,,,,,,,2046.0298340000445,,,,,,,,,,,,,,,,,,,,,,,,,,,,2046.0148912000004,2046.0298340000445,2046.0298340000445,2046.5299203000031,2046.5299203000031,2049.0298107000417,2049.0140576999984,None,1,,,2049.0298107000417,,,,,,,,,,,,,,,,,,,,,,,,,,,,,,,,,,,,,,,,,,,nback54,001,2024-01-15_16h53.27.255,untitled,2023.2.3,59.978143951533674,2024-01-15 17h14.40.591200 -0500,
2,"[0.64, 0.4]",None,0,15,15,15,,,,,,,,,2049.0298107000417,,,,,,,,,,,,,,,,,,,,,,,,,,,,2049.014736500045,2049.0298107000417,2049.0298107000417,2049.529888499994,2049.529888499994,2052.029828300001,2052.014018899994,None,1,,,2052.029828300001,,,,,,,,,,,,,,,,,,,,,,,,,,,,,,,,,,,,,,,,,,,nback54,001,2024-01-15_16h53.27.255,untitled,2023.2.3,59.978143951533674,2024-01-15 17h14.40.591200 -0500,
2,"[0.64, 0.4]",None,0,16,16,16,,,,,,,,,2052.029828300001,,,,,,,,,,,,,,,,,,,,,,,,,,,,2052.0146782000083,2052.029828300001,2052.029828300001,2052.5299257000443,2052.5299257000443,2055.029687500035,2055.013929400011,None,1,,,2055.029687500035,,,,,,,,,,,,,,,,,,,,,,,,,,,,,,,,,,,,,,,,,,,nback54,001,2024-01-15_16h53.27.255,untitled,2023.2.3,59.978143951533674,2024-01-15 17h14.40.591200 -0500,
11,"[-0.64, -0.4]",space,0,17,17,17,,,,,,,,,2055.029687500035,,,,,,,,,,,,,,,,,,,,,,,,,,,,2055.014569399995,2055.029687500035,2055.029687500035,2055.5297913000104,2055.5297913000104,2058.029732600029,2058.013835299993,space,1,0.4359198000165634,None,2058.029732600029,,,,,,,,,,,,,,,,,,,,,,,,,,,,,,,,,,,,,,,,,,,nback54,001,2024-01-15_16h53.27.255,untitled,2023.2.3,59.978143951533674,2024-01-15 17h14.40.591200 -0500,
11,"[-0.64, -0.4]",space,0,18,18,18,,,,,,,,,2058.029732600029,,,,,,,,,,,,,,,,,,,,,,,,,,,,2058.014614999993,2058.029732600029,2058.029732600029,2058.5296914000064,2058.5296914000064,2061.0293237000005,2061.013760300004,space,1,0.46119440003531054,None,2061.0293237000005,,,,,,,,,,,,,,,,,,,,,,,,,,,,,,,,,,,,,,,,,,,nback54,001,2024-01-15_16h53.27.255,untitled,2023.2.3,59.978143951533674,2024-01-15 17h14.40.591200 -0500,
7,"[0.3, 0]",None,0,19,19,19,,,,,,,,,2061.0293237000005,,,,,,,,,,,,,,,,,,,,,,,,,,,,2061.0146865000133,2061.0293237000005,2061.0293237000005,2061.5295450999984,2061.5295450999984,2064.029597100045,2064.0137477000244,None,1,,,2064.029597100045,,,,,,,,,,,,,,,,,,,,,,,,,,,,,,,,,,,,,,,,,,,nback54,001,2024-01-15_16h53.27.255,untitled,2023.2.3,59.978143951533674,2024-01-15 17h14.40.591200 -0500,
3,"[0, 0.2]",None,0,20,20,20,,,,,,,,,2064.029597100045,,,,,,,,,,,,,,,,,,,,,,,,,,,,2064.0144853999955,2064.029597100045,2064.029597100045,2064.5296225000056,2064.5296225000056,2067.0296757000033,2067.01354840002,None,1,,,2067.0296757000033,,,,,,,,,,,,,,,,,,,,,,,,,,,,,,,,,,,,,,,,,,,nback54,001,2024-01-15_16h53.27.255,untitled,2023.2.3,59.978143951533674,2024-01-15 17h14.40.591200 -0500,
10,"[0, -0.2]",None,0,21,21,21,,,,,,,,,2067.0296757000033,,,,,,,,,,,,,,,,,,,,,,,,,,,,2067.0141626000404,2067.0296757000033,2067.0296757000033,2067.529558100039,2067.529558100039,2070.029558100039,2070.013654200011,None,1,,,2070.029558100039,,,,,,,,,,,,,,,,,,,,,,,,,,,,,,,,,,,,,,,,,,,nback54,001,2024-01-15_16h53.27.255,untitled,2023.2.3,59.978143951533674,2024-01-15 17h14.40.591200 -0500,
1,"[-0.64, 0.4]",None,0,22,22,22,,,,,,,,,2070.029558100039,,,,,,,,,,,,,,,,,,,,,,,,,,,,2070.0143403999973,2070.029558100039,2070.029558100039,2070.529450900038,2070.529450900038,2073.0294066999923,2073.013738300011,None,1,,,2073.0294066999923,,,,,,,,,,,,,,,,,,,,,,,,,,,,,,,,,,,,,,,,,,,nback54,001,2024-01-15_16h53.27.255,untitled,2023.2.3,59.978143951533674,2024-01-15 17h14.40.591200 -0500,
2,"[0.64, 0.4]",None,0,23,23,23,,,,,,,,,2073.0294066999923,,,,,,,,,,,,,,,,,,,,,,,,,,,,2073.0146939000115,2073.0294066999923,2073.0294066999923,2073.5293302999926,2073.5293302999926,2076.029273400025,2076.0133954000194,None,1,,,2076.029273400025,,,,,,,,,,,,,,,,,,,,,,,,,,,,,,,,,,,,,,,,,,,nback54,001,2024-01-15_16h53.27.255,untitled,2023.2.3,59.978143951533674,2024-01-15 17h14.40.591200 -0500,
6,"[-0.3, 0]",None,0,24,24,24,,,,,,,,,2076.029273400025,,,,,,,,,,,,,,,,,,,,,,,,,,,,2076.0140481000417,2076.029273400025,2076.029273400025,2076.5293075999944,2076.5293075999944,2079.029450000031,2079.0135881000315,None,1,,,2079.029450000031,,,,,,,,,,,,,,,,,,,,,,,,,,,,,,,,,,,,,,,,,,,nback54,001,2024-01-15_16h53.27.255,untitled,2023.2.3,59.978143951533674,2024-01-15 17h14.40.591200 -0500,
3,"[0, 0.2]",None,0,25,25,25,,,,,,,,,2079.029450000031,,,,,,,,,,,,,,,,,,,,,,,,,,,,2079.014359200024,2079.029450000031,2079.029450000031,2079.529049600009,2079.529049600009,2082.0292943000095,2082.0135562000214,None,1,,,2082.0292943000095,,,,,,,,,,,,,,,,,,,,,,,,,,,,,,,,,,,,,,,,,,,nback54,001,2024-01-15_16h53.27.255,untitled,2023.2.3,59.978143951533674,2024-01-15 17h14.40.591200 -0500,
11,"[-0.64, -0.4]",space,0,26,26,26,,,,,,,,,2082.0292943000095,,,,,,,,,,,,,,,,,,,,,,,,,,,,2082.014252700028,2082.0292943000095,2082.0292943000095,2082.5292469999986,2082.5292469999986,2085.029363400012,2085.01341449999,space,1,0.3376973000122234,None,2085.029363400012,,,,,,,,,,,,,,,,,,,,,,,,,,,,,,,,,,,,,,,,,,,nback54,001,2024-01-15_16h53.27.255,untitled,2023.2.3,59.978143951533674,2024-01-15 17h14.40.591200 -0500,
1,"[-0.64, 0.4]",None,0,27,27,27,,,,,,,,,2085.029363400012,,,,,,,,,,,,,,,,,,,,,,,,,,,,2085.0141203000094,2085.029363400012,2085.029363400012,2085.5292307999916,2085.5292307999916,2088.0292243000004,2088.0135264000273,None,1,,,2088.0292243000004,,,,,,,,,,,,,,,,,,,,,,,,,,,,,,,,,,,,,,,,,,,nback54,001,2024-01-15_16h53.27.255,untitled,2023.2.3,59.978143951533674,2024-01-15 17h14.40.591200 -0500,
3,"[0, 0.2]",None,0,28,28,28,,,,,,,,,2088.0292243000004,,,,,,,,,,,,,,,,,,,,,,,,,,,,2088.014286599995,2088.0292243000004,2088.0292243000004,2088.5292032000143,2088.5292032000143,2091.0292039000196,2091.013412600034,None,1,,,2091.0292039000196,,,,,,,,,,,,,,,,,,,,,,,,,,,,,,,,,,,,,,,,,,,nback54,001,2024-01-15_16h53.27.255,untitled,2023.2.3,59.978143951533674,2024-01-15 17h14.40.591200 -0500,
9,"[0.2, -0.1]",None,0,29,29,29,,,,,,,,,2091.0292039000196,,,,,,,,,,,,,,,,,,,,,,,,,,,,2091.0141903000185,2091.0292039000196,2091.0292039000196,2091.5290208000224,2091.5290208000224,2094.029153999989,2094.0135636000196,None,1,,,2094.029153999989,,,,,,,,,,,,,,,,,,,,,,,,,,,,,,,,,,,,,,,,,,,nback54,001,2024-01-15_16h53.27.255,untitled,2023.2.3,59.978143951533674,2024-01-15 17h14.40.591200 -0500,
8,"[-0.2, -0.1]",None,0,30,30,30,,,,,,,,,2094.029153999989,,,,,,,,,,,,,,,,,,,,,,,,,,,,2094.014388300013,2094.029153999989,2094.029153999989,2094.528984100034,2094.528984100034,2097.029026300006,2097.0131330000004,None,1,,,2097.029026300006,,,,,,,,,,,,,,,,,,,,,,,,,,,,,,,,,,,,,,,,,,,nback54,001,2024-01-15_16h53.27.255,untitled,2023.2.3,59.978143951533674,2024-01-15 17h14.40.591200 -0500,
12,"[0.64, -0.4]",None,0,31,31,31,,,,,,,,,2097.029026300006,,,,,,,,,,,,,,,,,,,,,,,,,,,,2097.0137442999985,2097.029026300006,2097.029026300006,2097.5290738000185,2097.5290738000185,2100.028966300015,2100.013372800022,None,1,,,2100.028966300015,,,,,,,,,,,,,,,,,,,,,,,,,,,,,,,,,,,,,,,,,,,nback54,001,2024-01-15_16h53.27.255,untitled,2023.2.3,59.978143951533674,2024-01-15 17h14.40.591200 -0500,
9,"[0.2, -0.1]",None,0,32,32,32,,,,,,,,,2100.028966300015,,,,,,,,,,,,,,,,,,,,,,,,,,,,2100.0140660000034,2100.028966300015,2100.028966300015,2100.5289009000408,2100.5289009000408,2103.0288872999954,2103.0130373000284,None,1,,,2103.0288872999954,,,,,,,,,,,,,,,,,,,,,,,,,,,,,,,,,,,,,,,,,,,nback54,001,2024-01-15_16h53.27.255,untitled,2023.2.3,59.978143951533674,2024-01-15 17h14.40.591200 -0500,
11,"[-0.64, -0.4]",space,0,33,33,33,,,,,,,,,2103.0288872999954,,,,,,,,,,,,,,,,,,,,,,,,,,,,2103.013649200031,2103.0288872999954,2103.0288872999954,2103.528996500012,2103.528996500012,2106.0288323000423,2106.013298200036,space,1,0.3846662999712862,None,2106.0288323000423,,,,,,,,,,,,,,,,,,,,,,,,,,,,,,,,,,,,,,,,,,,nback54,001,2024-01-15_16h53.27.255,untitled,2023.2.3,59.978143951533674,2024-01-15 17h14.40.591200 -0500,
7,"[0.3, 0]",None,0,34,34,34,,,,,,,,,2106.0288323000423,,,,,,,,,,,,,,,,,,,,,,,,,,,,2106.014283300028,2106.0288323000423,2106.0288323000423,2106.528962600045,2106.528962600045,2109.02895040001,2109.013167100027,None,1,,,2109.02895040001,,,,,,,,,,,,,,,,,,,,,,,,,,,,,,,,,,,,,,,,,,,nback54,001,2024-01-15_16h53.27.255,untitled,2023.2.3,59.978143951533674,2024-01-15 17h14.40.591200 -0500,
11,"[-0.64, -0.4]",space,0,35,35,35,,,,,,,,,2109.02895040001,,,,,,,,,,,,,,,,,,,,,,,,,,,,2109.0138098000316,2109.02895040001,2109.02895040001,2109.528924400045,2109.528924400045,2112.0287885,2112.0127989000175,space,1,0.4522784000146203,None,2112.0287885,,,,,,,,,,,,,,,,,,,,,,,,,,,,,,,,,,,,,,,,,,,nback54,001,2024-01-15_16h53.27.255,untitled,2023.2.3,59.978143951533674,2024-01-15 17h14.40.591200 -0500,
4,"[-0.2, 0.1]",None,0,36,36,36,,,,,,,,,2112.0287885,,,,,,,,,,,,,,,,,,,,,,,,,,,,2112.013672500034,2112.0287885,2112.0287885,2112.5287763000233,2112.5287763000233,2115.0286899000057,2115.012989700015,None,1,,,2115.0286899000057,,,,,,,,,,,,,,,,,,,,,,,,,,,,,,,,,,,,,,,,,,,nback54,001,2024-01-15_16h53.27.255,untitled,2023.2.3,59.978143951533674,2024-01-15 17h14.40.591200 -0500,
5,"[0.2, 0.1]",None,0,37,37,37,,,,,,,,,2115.0286899000057,,,,,,,,,,,,,,,,,,,,,,,,,,,,2115.0137228000094,2115.0286899000057,2115.0286899000057,2115.528733599989,2115.528733599989,2118.0286706000334,2118.012777500029,None,1,,,2118.0286706000334,,,,,,,,,,,,,,,,,,,,,,,,,,,,,,,,,,,,,,,,,,,nback54,001,2024-01-15_16h53.27.255,untitled,2023.2.3,59.978143951533674,2024-01-15 17h14.40.591200 -0500,
6,"[-0.3, 0]",None,0,38,38,38,,,,,,,,,2118.0286706000334,,,,,,,,,,,,,,,,,,,,,,,,,,,,2118.013493700011,2118.0286706000334,2118.0286706000334,2118.5286344999913,2118.5286344999913,2121.0286448000115,2121.0129882000037,None,1,,,2121.0286448000115,,,,,,,,,,,,,,,,,,,,,,,,,,,,,,,,,,,,,,,,,,,nback54,001,2024-01-15_16h53.27.255,untitled,2023.2.3,59.978143951533674,2024-01-15 17h14.40.591200 -0500,
11,"[-0.64, -0.4]",space,0,39,39,39,,,,,,,,,2121.0286448000115,,,,,,,,,,,,,,,,,,,,,,,,,,,,2121.013766499993,2121.0286448000115,2121.0286448000115,2121.5285282999976,2121.5285282999976,2124.0288419999997,2124.0127666000044,space,1,0.34283410001080483,None,2124.0288419999997,,,,,,,,,,,,,,,,,,,,,,,,,,,,,,,,,,,,,,,,,,,nback54,001,2024-01-15_16h53.27.255,untitled,2023.2.3,59.978143951533674,2024-01-15 17h14.40.591200 -0500,
,,,,,,,,,,,,,,,,,,,,,,,,,,,,,,,,,,,,,,,,,,,,,,,,,,,,,,,2124.0133870000136,2124.0288419999997,2124.0288419999997,2143.779972899996,space,19.745184700004756,None,,,,,,,,,,,,,,,,,,,,,,,,,,,,,,,,,,,,nback54,001,2024-01-15_16h53.27.255,untitled,2023.2.3,59.978143951533674,2024-01-15 17h14.40.591200 -0500,
10,"[0, -0.2]",None,,,,,0,0,0,0,,,,,2144.794804300007,,,,,,,,,,,,,,,,,,,,,,,,2143.7800182999927,2143.7949223000323,2144.794804300007,2144.7789694000385,,,,,,,,,,,,,,,,,,,,2144.7890096000046,2144.794804300007,2144.794804300007,2145.294791100023,2145.294791100023,2147.794870999991,2147.794870999991,2147.779043700022,None,1,,,,,,,,,,,,,,,,,,,,,,,,,,nback54,001,2024-01-15_16h53.27.255,untitled,2023.2.3,59.978143951533674,2024-01-15 17h14.40.591200 -0500,
5,"[0.2, 0.1]",None,,,,,0,1,1,1,,,,,2147.794870999991,,,,,,,,,,,,,,,,,,,,,,,,,,,,,,,,,,,,,,,,,,,,,,,2147.780014000018,2147.794870999991,2147.794870999991,2148.2948154000333,2148.2948154000333,2150.794800600037,2150.794800600037,2150.7790573000093,None,1,,,,,,,,,,,,,,,,,,,,,,,,,,nback54,001,2024-01-15_16h53.27.255,untitled,2023.2.3,59.978143951533674,2024-01-15 17h14.40.591200 -0500,
6,"[-0.3, 0]",None,,,,,0,2,2,2,,,,,2150.794800600037,,,,,,,,,,,,,,,,,,,,,,,,,,,,,,,,,,,,,,,,,,,,,,,2150.779858499998,2150.794800600037,2150.794800600037,2151.2947526000207,2151.2947526000207,2153.7947125000064,2153.7947125000064,2153.7791568000102,None,1,,,,,,,,,,,,,,,,,,,,,,,,,,nback54,001,2024-01-15_16h53.27.255,untitled,2023.2.3,59.978143951533674,2024-01-15 17h14.40.591200 -0500,
6,"[-0.3, 0]",space,,,,,0,3,3,3,,,,,2153.7947125000064,,,,,,,,,,,,,,,,,,,,,,,,,,,,,,,,,,,,,,,,,,,,,,,2153.77992619999,2153.7947125000064,2153.7947125000064,2154.2947237000335,2154.2947237000335,2156.7945790000376,2156.7945790000376,2156.7786519000074,space,1,0.6871544999885373,None,,,,,,,,,,,,,,,,,,,,,,,,nback54,001,2024-01-15_16h53.27.255,untitled,2023.2.3,59.978143951533674,2024-01-15 17h14.40.591200 -0500,
12,"[0.64, -0.4]",None,,,,,0,4,4,4,,,,,2156.7945790000376,,,,,,,,,,,,,,,,,,,,,,,,,,,,,,,,,,,,,,,,,,,,,,,2156.779466600041,2156.7945790000376,2156.7945790000376,2157.2947737000068,2157.2947737000068,2159.7947236000327,2159.7947236000327,2159.779003600008,None,1,,,,,,,,,,,,,,,,,,,,,,,,,,nback54,001,2024-01-15_16h53.27.255,untitled,2023.2.3,59.978143951533674,2024-01-15 17h14.40.591200 -0500,
10,"[0, -0.2]",None,,,,,0,5,5,5,,,,,2159.7947236000327,,,,,,,,,,,,,,,,,,,,,,,,,,,,,,,,,,,,,,,,,,,,,,,2159.7797494000406,2159.7947236000327,2159.7947236000327,2160.2945230000187,2160.2945230000187,2162.7944894999964,2162.7944894999964,2162.778817000042,None,1,,,,,,,,,,,,,,,,,,,,,,,,,,nback54,001,2024-01-15_16h53.27.255,untitled,2023.2.3,59.978143951533674,2024-01-15 17h14.40.591200 -0500,
2,"[0.64, 0.4]",None,,,,,0,6,6,6,,,,,2162.7944894999964,,,,,,,,,,,,,,,,,,,,,,,,,,,,,,,,,,,,,,,,,,,,,,,2162.779531500011,2162.7944894999964,2162.7944894999964,2163.2945450000116,2163.2945450000116,2165.794563900039,2165.794563900039,2165.7787867000443,None,1,,,,,,,,,,,,,,,,,,,,,,,,,,nback54,001,2024-01-15_16h53.27.255,untitled,2023.2.3,59.978143951533674,2024-01-15 17h14.40.591200 -0500,
9,"[0.2, -0.1]",None,,,,,0,7,7,7,,,,,2165.794563900039,,,,,,,,,,,,,,,,,,,,,,,,,,,,,,,,,,,,,,,,,,,,,,,2165.7795089000138,2165.794563900039,2165.794563900039,2166.2945056000026,2166.2945056000026,2168.794393100019,2168.794393100019,2168.7784519999987,None,1,,,,,,,,,,,,,,,,,,,,,,,,,,nback54,001,2024-01-15_16h53.27.255,untitled,2023.2.3,59.978143951533674,2024-01-15 17h14.40.591200 -0500,
9,"[0.2, -0.1]",space,,,,,0,8,8,8,,,,,2168.794393100019,,,,,,,,,,,,,,,,,,,,,,,,,,,,,,,,,,,,,,,,,,,,,,,2168.7791137000313,2168.794393100019,2168.794393100019,2169.294476400013,2169.294476400013,2171.7943286999944,2171.7943286999944,2171.7786514000036,space,1,0.39172580000013113,None,,,,,,,,,,,,,,,,,,,,,,,,nback54,001,2024-01-15_16h53.27.255,untitled,2023.2.3,59.978143951533674,2024-01-15 17h14.40.591200 -0500,
6,"[-0.3, 0]",None,,,,,0,9,9,9,,,,,2171.7943286999944,,,,,,,,,,,,,,,,,,,,,,,,,,,,,,,,,,,,,,,,,,,,,,,2171.779315299995,2171.7943286999944,2171.7943286999944,2172.2943423000397,2172.2943423000397,2174.7944277999923,2174.7944277999923,2174.778573299991,None,1,,,,,,,,,,,,,,,,,,,,,,,,,,nback54,001,2024-01-15_16h53.27.255,untitled,2023.2.3,59.978143951533674,2024-01-15 17h14.40.591200 -0500,
11,"[-0.64, -0.4]",None,,,,,0,10,10,10,,,,,2174.7944277999923,,,,,,,,,,,,,,,,,,,,,,,,,,,,,,,,,,,,,,,,,,,,,,,2174.779312400031,2174.7944277999923,2174.7944277999923,2175.294390700001,2175.294390700001,2177.7941993999993,2177.7941993999993,2177.7784861000255,None,1,,,,,,,,,,,,,,,,,,,,,,,,,,nback54,001,2024-01-15_16h53.27.255,untitled,2023.2.3,59.978143951533674,2024-01-15 17h14.40.591200 -0500,
11,"[-0.64, -0.4]",space,,,,,0,11,11,11,,,,,2177.7941993999993,,,,,,,,,,,,,,,,,,,,,,,,,,,,,,,,,,,,,,,,,,,,,,,2177.7791887000203,2177.7941993999993,2177.7941993999993,2178.2943443999975,2178.2943443999975,2180.7940755000454,2180.7940755000454,2180.778642899997,space,1,0.3606664999970235,None,,,,,,,,,,,,,,,,,,,,,,,,nback54,001,2024-01-15_16h53.27.255,untitled,2023.2.3,59.978143951533674,2024-01-15 17h14.40.591200 -0500,
4,"[-0.2, 0.1]",None,,,,,0,12,12,12,,,,,2180.7940755000454,,,,,,,,,,,,,,,,,,,,,,,,,,,,,,,,,,,,,,,,,,,,,,,2180.7794726000284,2180.7940755000454,2180.7940755000454,2181.294272100029,2181.294272100029,2183.7941760999965,2183.7941760999965,2183.778453900013,None,1,,,,,,,,,,,,,,,,,,,,,,,,,,nback54,001,2024-01-15_16h53.27.255,untitled,2023.2.3,59.978143951533674,2024-01-15 17h14.40.591200 -0500,
3,"[0, 0.2]",None,,,,,0,13,13,13,,,,,2183.7941760999965,,,,,,,,,,,,,,,,,,,,,,,,,,,,,,,,,,,,,,,,,,,,,,,2183.7791733000195,2183.7941760999965,2183.7941760999965,2184.29421740002,2184.29421740002,2186.794044100039,2186.794044100039,2186.7785768000176,None,1,,,,,,,,,,,,,,,,,,,,,,,,,,nback54,001,2024-01-15_16h53.27.255,untitled,2023.2.3,59.978143951533674,2024-01-15 17h14.40.591200 -0500,
3,"[0, 0.2]",space,,,,,0,14,14,14,,,,,2186.794044100039,,,,,,,,,,,,,,,,,,,,,,,,,,,,,,,,,,,,,,,,,,,,,,,2186.7793950000196,2186.794044100039,2186.794044100039,2187.2941251000157,2187.2941251000157,2189.794028400036,2189.794028400036,2189.778358999989,space,1,0.3219618999864906,None,,,,,,,,,,,,,,,,,,,,,,,,nback54,001,2024-01-15_16h53.27.255,untitled,2023.2.3,59.978143951533674,2024-01-15 17h14.40.591200 -0500,
8,"[-0.2, -0.1]",None,,,,,0,15,15,15,,,,,2189.794028400036,,,,,,,,,,,,,,,,,,,,,,,,,,,,,,,,,,,,,,,,,,,,,,,2189.7792661000276,2189.794028400036,2189.794028400036,2190.2941374999937,2190.2941374999937,2192.7940883000265,2192.7940883000265,2192.778519399988,None,1,,,,,,,,,,,,,,,,,,,,,,,,,,nback54,001,2024-01-15_16h53.27.255,untitled,2023.2.3,59.978143951533674,2024-01-15 17h14.40.591200 -0500,
1,"[-0.64, 0.4]",None,,,,,0,16,16,16,,,,,2192.7940883000265,,,,,,,,,,,,,,,,,,,,,,,,,,,,,,,,,,,,,,,,,,,,,,,2192.779411000025,2192.7940883000265,2192.7940883000265,2193.2940428000293,2193.2940428000293,2195.7940138000413,2195.7940138000413,2195.778146800003,None,1,,,,,,,,,,,,,,,,,,,,,,,,,,nback54,001,2024-01-15_16h53.27.255,untitled,2023.2.3,59.978143951533674,2024-01-15 17h14.40.591200 -0500,
2,"[0.64, 0.4]",None,,,,,0,17,17,17,,,,,2195.7940138000413,,,,,,,,,,,,,,,,,,,,,,,,,,,,,,,,,,,,,,,,,,,,,,,2195.7788350000046,2195.7940138000413,2195.7940138000413,2196.2940686999937,2196.2940686999937,2198.7939919999917,2198.7939919999917,2198.7781988999923,None,1,,,,,,,,,,,,,,,,,,,,,,,,,,nback54,001,2024-01-15_16h53.27.255,untitled,2023.2.3,59.978143951533674,2024-01-15 17h14.40.591200 -0500,
4,"[-0.2, 0.1]",None,,,,,0,18,18,18,,,,,2198.7939919999917,,,,,,,,,,,,,,,,,,,,,,,,,,,,,,,,,,,,,,,,,,,,,,,2198.7788517000154,2198.7939919999917,2198.7939919999917,2199.2937956000096,2199.2937956000096,2201.793887100008,2201.793887100008,2201.7781814000336,None,1,,,,,,,,,,,,,,,,,,,,,,,,,,nback54,001,2024-01-15_16h53.27.255,untitled,2023.2.3,59.978143951533674,2024-01-15 17h14.40.591200 -0500,
4,"[-0.2, 0.1]",space,,,,,0,19,19,19,,,,,2201.793887100008,,,,,,,,,,,,,,,,,,,,,,,,,,,,,,,,,,,,,,,,,,,,,,,2201.779013000021,2201.793887100008,2201.793887100008,2202.2938184000086,2202.2938184000086,2204.793805000023,2204.793805000023,2204.778066900035,space,1,0.40552650002064183,None,,,,,,,,,,,,,,,,,,,,,,,,nback54,001,2024-01-15_16h53.27.255,untitled,2023.2.3,59.978143951533674,2024-01-15 17h14.40.591200 -0500,
8,"[-0.2, -0.1]",None,,,,,0,20,20,20,,,,,2204.793805000023,,,,,,,,,,,,,,,,,,,,,,,,,,,,,,,,,,,,,,,,,,,,,,,2204.779070999997,2204.793805000023,2204.793805000023,2205.2937799000065,2205.2937799000065,2207.793919900025,2207.793919900025,2207.777954799996,None,1,,,,,,,,,,,,,,,,,,,,,,,,,,nback54,001,2024-01-15_16h53.27.255,untitled,2023.2.3,59.978143951533674,2024-01-15 17h14.40.591200 -0500,
5,"[0.2, 0.1]",None,,,,,0,21,21,21,,,,,2207.793919900025,,,,,,,,,,,,,,,,,,,,,,,,,,,,,,,,,,,,,,,,,,,,,,,2207.778776000021,2207.793919900025,2207.793919900025,2208.2937895000214,2208.2937895000214,2210.7938300000387,2210.7938300000387,2210.7781657000305,None,1,,,,,,,,,,,,,,,,,,,,,,,,,,nback54,001,2024-01-15_16h53.27.255,untitled,2023.2.3,59.978143951533674,2024-01-15 17h14.40.591200 -0500,
5,"[0.2, 0.1]",space,,,,,0,22,22,22,,,,,2210.7938300000387,,,,,,,,,,,,,,,,,,,,,,,,,,,,,,,,,,,,,,,,,,,,,,,2210.7789888000116,2210.7938300000387,2210.7938300000387,2211.2937316999887,2211.2937316999887,2213.7936584000126,2213.7936584000126,2213.7777636999963,space,1,0.3197179000126198,None,,,,,,,,,,,,,,,,,,,,,,,,nback54,001,2024-01-15_16h53.27.255,untitled,2023.2.3,59.978143951533674,2024-01-15 17h14.40.591200 -0500,
1,"[-0.64, 0.4]",None,,,,,0,23,23,23,,,,,2213.7936584000126,,,,,,,,,,,,,,,,,,,,,,,,,,,,,,,,,,,,,,,,,,,,,,,2213.7785769000184,2213.7936584000126,2213.7936584000126,2214.2936540000373,2214.2936540000373,2216.793598600023,2216.793598600023,2216.777962399996,None,1,,,,,,,,,,,,,,,,,,,,,,,,,,nback54,001,2024-01-15_16h53.27.255,untitled,2023.2.3,59.978143951533674,2024-01-15 17h14.40.591200 -0500,
3,"[0, 0.2]",None,,,,,0,24,24,24,,,,,2216.793598600023,,,,,,,,,,,,,,,,,,,,,,,,,,,,,,,,,,,,,,,,,,,,,,,2216.7787912000204,2216.793598600023,2216.793598600023,2217.2936615000363,2217.2936615000363,2219.793642900011,2219.793642900011,2219.7779589000274,None,1,,,,,,,,,,,,,,,,,,,,,,,,,,nback54,001,2024-01-15_16h53.27.255,untitled,2023.2.3,59.978143951533674,2024-01-15 17h14.40.591200 -0500,
6,"[-0.3, 0]",None,,,,,0,25,25,25,,,,,2219.793642900011,,,,,,,,,,,,,,,,,,,,,,,,,,,,,,,,,,,,,,,,,,,,,,,2219.7787039999967,2219.793642900011,2219.793642900011,2220.293623100035,2220.293623100035,2222.793443500006,2222.793443500006,2222.7776939999894,None,1,,,,,,,,,,,,,,,,,,,,,,,,,,nback54,001,2024-01-15_16h53.27.255,untitled,2023.2.3,59.978143951533674,2024-01-15 17h14.40.591200 -0500,
1,"[-0.64, 0.4]",None,,,,,0,26,26,26,,,,,2222.793443500006,,,,,,,,,,,,,,,,,,,,,,,,,,,,,,,,,,,,,,,,,,,,,,,2222.7783183000283,2222.793443500006,2222.793443500006,2223.2935291000176,2223.2935291000176,2225.7933244000305,2225.7933244000305,2225.77786490001,None,1,,,,,,,,,,,,,,,,,,,,,,,,,,nback54,001,2024-01-15_16h53.27.255,untitled,2023.2.3,59.978143951533674,2024-01-15 17h14.40.591200 -0500,
1,"[-0.64, 0.4]",space,,,,,0,27,27,27,,,,,2225.7933244000305,,,,,,,,,,,,,,,,,,,,,,,,,,,,,,,,,,,,,,,,,,,,,,,2225.7786793000414,2225.7933244000305,2225.7933244000305,2226.2935905000195,2226.2935905000195,2228.793412900006,2228.793412900006,2228.7778648000094,space,1,0.32209620001958683,None,,,,,,,,,,,,,,,,,,,,,,,,nback54,001,2024-01-15_16h53.27.255,untitled,2023.2.3,59.978143951533674,2024-01-15 17h14.40.591200 -0500,
1,"[-0.64, 0.4]",space,,,,,0,28,28,28,,,,,2228.793412900006,,,,,,,,,,,,,,,,,,,,,,,,,,,,,,,,,,,,,,,,,,,,,,,2228.7786934000324,2228.793412900006,2228.793412900006,2229.29345430003,2229.29345430003,2231.7933495999896,2231.7933495999896,2231.777654900041,None,0,,,,,,,,,,,,,,,,,,,,,,,,,,nback54,001,2024-01-15_16h53.27.255,untitled,2023.2.3,59.978143951533674,2024-01-15 17h14.40.591200 -0500,
3,"[0, 0.2]",None,,,,,0,29,29,29,,,,,2231.7933495999896,,,,,,,,,,,,,,,,,,,,,,,,,,,,,,,,,,,,,,,,,,,,,,,2231.778366100043,2231.7933495999896,2231.7933495999896,2232.2934577999986,2232.2934577999986,2234.7932280999958,2234.7932280999958,2234.7777607000316,space,0,1.2008396000019275,None,,,,,,,,,,,,,,,,,,,,,,,,nback54,001,2024-01-15_16h53.27.255,untitled,2023.2.3,59.978143951533674,2024-01-15 17h14.40.591200 -0500,
12,"[0.64, -0.4]",None,,,,,0,30,30,30,,,,,2234.7932280999958,,,,,,,,,,,,,,,,,,,,,,,,,,,,,,,,,,,,,,,,,,,,,,,2234.7787727999967,2234.7932280999958,2234.7932280999958,2235.2934247000376,2235.2934247000376,2237.793349899992,2237.793349899992,2237.777476200019,None,1,,,,,,,,,,,,,,,,,,,,,,,,,,nback54,001,2024-01-15_16h53.27.255,untitled,2023.2.3,59.978143951533674,2024-01-15 17h14.40.591200 -0500,
12,"[0.64, -0.4]",space,,,,,0,31,31,31,,,,,2237.793349899992,,,,,,,,,,,,,,,,,,,,,,,,,,,,,,,,,,,,,,,,,,,,,,,2237.77816430002,2237.793349899992,2237.793349899992,2238.293238400016,2238.293238400016,2240.793337400013,2240.793337400013,2240.776924500009,space,1,0.5968231000006199,None,,,,,,,,,,,,,,,,,,,,,,,,nback54,001,2024-01-15_16h53.27.255,untitled,2023.2.3,59.978143951533674,2024-01-15 17h14.40.591200 -0500,
2,"[0.64, 0.4]",None,,,,,0,32,32,32,,,,,2240.793337400013,,,,,,,,,,,,,,,,,,,,,,,,,,,,,,,,,,,,,,,,,,,,,,,2240.777581100003,2240.793337400013,2240.793337400013,2241.2932580999914,2241.2932580999914,2243.793260000006,2243.793260000006,2243.7774678000133,None,1,,,,,,,,,,,,,,,,,,,,,,,,,,nback54,001,2024-01-15_16h53.27.255,untitled,2023.2.3,59.978143951533674,2024-01-15 17h14.40.591200 -0500,
1,"[-0.64, 0.4]",None,,,,,0,33,33,33,,,,,2243.793260000006,,,,,,,,,,,,,,,,,,,,,,,,,,,,,,,,,,,,,,,,,,,,,,,2243.7781188000226,2243.793260000006,2243.793260000006,2244.2930839000037,2244.2930839000037,2246.7930620000116,2246.7930620000116,2246.7772761000087,None,1,,,,,,,,,,,,,,,,,,,,,,,,,,nback54,001,2024-01-15_16h53.27.255,untitled,2023.2.3,59.978143951533674,2024-01-15 17h14.40.591200 -0500,
7,"[0.3, 0]",None,,,,,0,34,34,34,,,,,2246.7930620000116,,,,,,,,,,,,,,,,,,,,,,,,,,,,,,,,,,,,,,,,,,,,,,,2246.777931299992,2246.7930620000116,2246.7930620000116,2247.2930915000034,2247.2930915000034,2249.793012100039,2249.793012100039,2249.777061700006,None,1,,,,,,,,,,,,,,,,,,,,,,,,,,nback54,001,2024-01-15_16h53.27.255,untitled,2023.2.3,59.978143951533674,2024-01-15 17h14.40.591200 -0500,
7,"[0.3, 0]",space,,,,,0,35,35,35,,,,,2249.793012100039,,,,,,,,,,,,,,,,,,,,,,,,,,,,,,,,,,,,,,,,,,,,,,,2249.7776446000207,2249.793012100039,2249.793012100039,2250.293012600043,2250.293012600043,2252.793111100036,2252.793111100036,2252.7772302000085,space,1,0.3855246999883093,None,,,,,,,,,,,,,,,,,,,,,,,,nback54,001,2024-01-15_16h53.27.255,untitled,2023.2.3,59.978143951533674,2024-01-15 17h14.40.591200 -0500,
11,"[-0.64, -0.4]",None,,,,,0,36,36,36,,,,,2252.793111100036,,,,,,,,,,,,,,,,,,,,,,,,,,,,,,,,,,,,,,,,,,,,,,,2252.778122799995,2252.793111100036,2252.793111100036,2253.293077600014,2253.293077600014,2255.7930134999915,2255.7930134999915,2255.7770759999985,None,1,,,,,,,,,,,,,,,,,,,,,,,,,,nback54,001,2024-01-15_16h53.27.255,untitled,2023.2.3,59.978143951533674,2024-01-15 17h14.40.591200 -0500,
2,"[0.64, 0.4]",None,,,,,0,37,37,37,,,,,2255.7930134999915,,,,,,,,,,,,,,,,,,,,,,,,,,,,,,,,,,,,,,,,,,,,,,,2255.777662300039,2255.7930134999915,2255.7930134999915,2256.292989700043,2256.292989700043,2258.7928219999885,2258.7928219999885,2258.7770175000187,None,1,,,,,,,,,,,,,,,,,,,,,,,,,,nback54,001,2024-01-15_16h53.27.255,untitled,2023.2.3,59.978143951533674,2024-01-15 17h14.40.591200 -0500,
6,"[-0.3, 0]",None,,,,,0,38,38,38,,,,,2258.7928219999885,,,,,,,,,,,,,,,,,,,,,,,,,,,,,,,,,,,,,,,,,,,,,,,2258.777652300021,2258.7928219999885,2258.7928219999885,2259.2930221999995,2259.2930221999995,2261.7929111000267,2261.7929111000267,2261.777323300019,None,1,,,,,,,,,,,,,,,,,,,,,,,,,,nback54,001,2024-01-15_16h53.27.255,untitled,2023.2.3,59.978143951533674,2024-01-15 17h14.40.591200 -0500,
10,"[0, -0.2]",None,,,,,0,39,39,39,,,,,2261.7929111000267,,,,,,,,,,,,,,,,,,,,,,,,,,,,,,,,,,,,,,,,,,,,,,,2261.7781362000387,2261.7929111000267,2261.7929111000267,2262.2928608999937,2262.2928608999937,2264.7928395000054,2264.7928395000054,2264.777086200018,None,1,,,,,,,,,,,,,,,,,,,,,,,,,,nback54,001,2024-01-15_16h53.27.255,untitled,2023.2.3,59.978143951533674,2024-01-15 17h14.40.591200 -0500,
,,,,,,,,,,,,,,,,,,,,,,,,,,,,,,,,,,,,,,,,,,,,,,,,,,,,,,,,,,,,,,,,,,,,,,,,,,2264.777620400011,2264.7928395000054,2264.7928395000054,2275.610970900045,space,10.813397800025996,None,,,,,,,,,,,,,,,,,nback54,001,2024-01-15_16h53.27.255,untitled,2023.2.3,59.978143951533674,2024-01-15 17h14.40.591200 -0500,
,"[0.2, 0.1]",None,,,,,,,,,0,0,0,0,2276.625833900005,,,,,,,,,,,,,,,,,,,,,,,,2275.6110115000047,2275.6258932999917,2276.625833900005,2276.610127800028,,,,,,,,,,,,,,,,,,,,,,,,,,,,,,,,,,,,,,,2276.6199244000018,2276.625833900005,2276.625833900005,2277.126004400023,2277.126004400023,2279.6258748000255,2279.6258748000255,2279.6101893000305,None,1,,,,,,,nback54,001,2024-01-15_16h53.27.255,untitled,2023.2.3,59.978143951533674,2024-01-15 17h14.40.591200 -0500,
,"[0.64, 0.4]",None,,,,,,,,,0,1,1,1,2279.6258748000255,,,,,,,,,,,,,,,,,,,,,,,,,,,,,,,,,,,,,,,,,,,,,,,,,,,,,,,,,,,,,,,,,,2279.6111869000015,2279.6258748000255,2279.6258748000255,2280.1257692000363,2280.1257692000363,2282.6257232000353,2282.6257232000353,2282.6100035000127,None,1,,,,,,,nback54,001,2024-01-15_16h53.27.255,untitled,2023.2.3,59.978143951533674,2024-01-15 17h14.40.591200 -0500,
,"[-0.3, 0]",None,,,,,,,,,0,2,2,2,2282.6257232000353,,,,,,,,,,,,,,,,,,,,,,,,,,,,,,,,,,,,,,,,,,,,,,,,,,,,,,,,,,,,,,,,,,2282.6106874000398,2282.6257232000353,2282.6257232000353,2283.125683600025,2283.125683600025,2285.6258689000388,2285.6258689000388,2285.6101549000014,None,1,,,,,,,nback54,001,2024-01-15_16h53.27.255,untitled,2023.2.3,59.978143951533674,2024-01-15 17h14.40.591200 -0500,
,"[0.2, -0.1]",None,,,,,,,,,0,3,3,3,2285.6258689000388,,,,,,,,,,,,,,,,,,,,,,,,,,,,,,,,,,,,,,,,,,,,,,,,,,,,,,,,,,,,,,,,,,2285.610887399991,2285.6258689000388,2285.6258689000388,2286.125721600023,2286.125721600023,2288.625815300038,2288.625815300038,2288.6099343000096,None,1,,,,,,,nback54,001,2024-01-15_16h53.27.255,untitled,2023.2.3,59.978143951533674,2024-01-15 17h14.40.591200 -0500,
,"[0, 0.2]",None,,,,,,,,,0,4,4,4,2288.625815300038,,,,,,,,,,,,,,,,,,,,,,,,,,,,,,,,,,,,,,,,,,,,,,,,,,,,,,,,,,,,,,,,,,2288.6105939000263,2288.625815300038,2288.625815300038,2289.1256887000054,2289.1256887000054,2291.6257794999983,2291.6257794999983,2291.609999700042,None,1,,,,,,,nback54,001,2024-01-15_16h53.27.255,untitled,2023.2.3,59.978143951533674,2024-01-15 17h14.40.591200 -0500,
,"[0.2, -0.1]",space,,,,,,,,,0,5,5,5,2291.6257794999983,,,,,,,,,,,,,,,,,,,,,,,,,,,,,,,,,,,,,,,,,,,,,,,,,,,,,,,,,,,,,,,,,,2291.6107503999956,2291.6257794999983,2291.6257794999983,2292.125652000017,2292.125652000017,2294.62555300002,2294.62555300002,2294.6100155999884,None,0,,,,,,,nback54,001,2024-01-15_16h53.27.255,untitled,2023.2.3,59.978143951533674,2024-01-15 17h14.40.591200 -0500,
,"[0, -0.2]",None,,,,,,,,,0,6,6,6,2294.62555300002,,,,,,,,,,,,,,,,,,,,,,,,,,,,,,,,,,,,,,,,,,,,,,,,,,,,,,,,,,,,,,,,,,2294.610865900002,2294.62555300002,2294.62555300002,2295.125431900029,2295.125431900029,2297.625645300024,2297.625645300024,2297.6098059000215,None,1,,,,,,,nback54,001,2024-01-15_16h53.27.255,untitled,2023.2.3,59.978143951533674,2024-01-15 17h14.40.591200 -0500,
,"[0.64, -0.4]",None,,,,,,,,,0,7,7,7,2297.625645300024,,,,,,,,,,,,,,,,,,,,,,,,,,,,,,,,,,,,,,,,,,,,,,,,,,,,,,,,,,,,,,,,,,2297.6106270000455,2297.625645300024,2297.625645300024,2298.125521500013,2298.125521500013,2300.6255724999937,2300.6255724999937,2300.6098409999977,None,1,,,,,,,nback54,001,2024-01-15_16h53.27.255,untitled,2023.2.3,59.978143951533674,2024-01-15 17h14.40.591200 -0500,
,"[0.3, 0]",None,,,,,,,,,0,8,8,8,2300.6255724999937,,,,,,,,,,,,,,,,,,,,,,,,,,,,,,,,,,,,,,,,,,,,,,,,,,,,,,,,,,,,,,,,,,2300.6105872000335,2300.6255724999937,2300.6255724999937,2301.1254876999883,2301.1254876999883,2303.625535900006,2303.625535900006,2303.609961600043,None,1,,,,,,,nback54,001,2024-01-15_16h53.27.255,untitled,2023.2.3,59.978143951533674,2024-01-15 17h14.40.591200 -0500,
,"[0.64, -0.4]",space,,,,,,,,,0,9,9,9,2303.625535900006,,,,,,,,,,,,,,,,,,,,,,,,,,,,,,,,,,,,,,,,,,,,,,,,,,,,,,,,,,,,,,,,,,2303.6108023000415,2303.625535900006,2303.625535900006,2304.12544969999,2304.12544969999,2306.625553700025,2306.625553700025,2306.6097125000088,None,0,,,,,,,nback54,001,2024-01-15_16h53.27.255,untitled,2023.2.3,59.978143951533674,2024-01-15 17h14.40.591200 -0500,
,"[-0.64, 0.4]",None,,,,,,,,,0,10,10,10,2306.625553700025,,,,,,,,,,,,,,,,,,,,,,,,,,,,,,,,,,,,,,,,,,,,,,,,,,,,,,,,,,,,,,,,,,2306.610587400035,2306.625553700025,2306.625553700025,2307.125523500028,2307.125523500028,2309.6253968999954,2309.6253968999954,2309.609647300036,None,1,,,,,,,nback54,001,2024-01-15_16h53.27.255,untitled,2023.2.3,59.978143951533674,2024-01-15 17h14.40.591200 -0500,
,"[0.2, 0.1]",None,,,,,,,,,0,11,11,11,2309.6253968999954,,,,,,,,,,,,,,,,,,,,,,,,,,,,,,,,,,,,,,,,,,,,,,,,,,,,,,,,,,,,,,,,,,2309.6104500000365,2309.6253968999954,2309.6253968999954,2310.125351099996,2310.125351099996,2312.62528919999,2312.62528919999,2312.60959430004,None,1,,,,,,,nback54,001,2024-01-15_16h53.27.255,untitled,2023.2.3,59.978143951533674,2024-01-15 17h14.40.591200 -0500,
,"[0.3, 0]",None,,,,,,,,,0,12,12,12,2312.62528919999,,,,,,,,,,,,,,,,,,,,,,,,,,,,,,,,,,,,,,,,,,,,,,,,,,,,,,,,,,,,,,,,,,2312.610284299997,2312.62528919999,2312.62528919999,2313.125245800009,2313.125245800009,2315.6253306000144,2315.6253306000144,2315.6096719999914,None,1,,,,,,,nback54,001,2024-01-15_16h53.27.255,untitled,2023.2.3,59.978143951533674,2024-01-15 17h14.40.591200 -0500,
,"[0.2, 0.1]",space,,,,,,,,,0,13,13,13,2315.6253306000144,,,,,,,,,,,,,,,,,,,,,,,,,,,,,,,,,,,,,,,,,,,,,,,,,,,,,,,,,,,,,,,,,,2315.610448100022,2315.6253306000144,2315.6253306000144,2316.1252513999934,2316.1252513999934,2318.625348600035,2318.625348600035,2318.609538300021,None,0,,,,,,,nback54,001,2024-01-15_16h53.27.255,untitled,2023.2.3,59.978143951533674,2024-01-15 17h14.40.591200 -0500,
,"[-0.3, 0]",None,,,,,,,,,0,14,14,14,2318.625348600035,,,,,,,,,,,,,,,,,,,,,,,,,,,,,,,,,,,,,,,,,,,,,,,,,,,,,,,,,,,,,,,,,,2318.610194500012,2318.625348600035,2318.625348600035,2319.1252013000194,2319.1252013000194,2321.6251938000205,2321.6251938000205,2321.609519299993,None,1,,,,,,,nback54,001,2024-01-15_16h53.27.255,untitled,2023.2.3,59.978143951533674,2024-01-15 17h14.40.591200 -0500,
,"[0, 0.2]",None,,,,,,,,,0,15,15,15,2321.6251938000205,,,,,,,,,,,,,,,,,,,,,,,,,,,,,,,,,,,,,,,,,,,,,,,,,,,,,,,,,,,,,,,,,,2321.610287800024,2321.6251938000205,2321.6251938000205,2322.125297099992,2322.125297099992,2324.624985000002,2324.624985000002,2324.6092739999876,None,1,,,,,,,nback54,001,2024-01-15_16h53.27.255,untitled,2023.2.3,59.978143951533674,2024-01-15 17h14.40.591200 -0500,
,"[-0.3, 0]",space,,,,,,,,,0,16,16,16,2324.624985000002,,,,,,,,,,,,,,,,,,,,,,,,,,,,,,,,,,,,,,,,,,,,,,,,,,,,,,,,,,,,,,,,,,2324.6100070000393,2324.624985000002,2324.624985000002,2325.125260300003,2325.125260300003,2327.624868999992,2327.624868999992,2327.609330200008,None,0,,,,,,,nback54,001,2024-01-15_16h53.27.255,untitled,2023.2.3,59.978143951533674,2024-01-15 17h14.40.591200 -0500,
,"[-0.64, -0.4]",None,,,,,,,,,0,17,17,17,2327.624868999992,,,,,,,,,,,,,,,,,,,,,,,,,,,,,,,,,,,,,,,,,,,,,,,,,,,,,,,,,,,,,,,,,,2327.6100831000367,2327.624868999992,2327.624868999992,2328.125153800007,2328.125153800007,2330.6249439000385,2330.6249439000385,2330.609111000027,None,1,,,,,,,nback54,001,2024-01-15_16h53.27.255,untitled,2023.2.3,59.978143951533674,2024-01-15 17h14.40.591200 -0500,
,"[-0.2, -0.1]",None,,,,,,,,,0,18,18,18,2330.6249439000385,,,,,,,,,,,,,,,,,,,,,,,,,,,,,,,,,,,,,,,,,,,,,,,,,,,,,,,,,,,,,,,,,,2330.6097496,2330.6249439000385,2330.6249439000385,2331.1250487000216,2331.1250487000216,2333.6250128000393,2333.6250128000393,2333.609319600044,None,1,,,,,,,nback54,001,2024-01-15_16h53.27.255,untitled,2023.2.3,59.978143951533674,2024-01-15 17h14.40.591200 -0500,
,"[0.2, -0.1]",None,,,,,,,,,0,19,19,19,2333.6250128000393,,,,,,,,,,,,,,,,,,,,,,,,,,,,,,,,,,,,,,,,,,,,,,,,,,,,,,,,,,,,,,,,,,2333.610059400031,2333.6250128000393,2333.6250128000393,2334.1250114000286,2334.1250114000286,2336.624884699995,2336.624884699995,2336.609313199995,None,1,,,,,,,nback54,001,2024-01-15_16h53.27.255,untitled,2023.2.3,59.978143951533674,2024-01-15 17h14.40.591200 -0500,
,"[0.2, -0.1]",None,,,,,,,,,0,20,20,20,2336.624884699995,,,,,,,,,,,,,,,,,,,,,,,,,,,,,,,,,,,,,,,,,,,,,,,,,,,,,,,,,,,,,,,,,,2336.6101531999884,2336.624884699995,2336.624884699995,2337.1248037000187,2337.1248037000187,2339.6248717000126,2339.6248717000126,2339.6093023000285,None,1,,,,,,,nback54,001,2024-01-15_16h53.27.255,untitled,2023.2.3,59.978143951533674,2024-01-15 17h14.40.591200 -0500,
,"[-0.64, 0.4]",None,,,,,,,,,0,21,21,21,2339.6248717000126,,,,,,,,,,,,,,,,,,,,,,,,,,,,,,,,,,,,,,,,,,,,,,,,,,,,,,,,,,,,,,,,,,2339.61002740002,2339.6248717000126,2339.6248717000126,2340.1247975000297,2340.1247975000297,2342.6248266000184,2342.6248266000184,2342.6088308999897,None,1,,,,,,,nback54,001,2024-01-15_16h53.27.255,untitled,2023.2.3,59.978143951533674,2024-01-15 17h14.40.591200 -0500,
,"[0, 0.2]",None,,,,,,,,,0,22,22,22,2342.6248266000184,,,,,,,,,,,,,,,,,,,,,,,,,,,,,,,,,,,,,,,,,,,,,,,,,,,,,,,,,,,,,,,,,,2342.609446800023,2342.6248266000184,2342.6248266000184,2343.1247913000407,2343.1247913000407,2345.6248279000283,2345.6248279000283,2345.609003300022,None,1,,,,,,,nback54,001,2024-01-15_16h53.27.255,untitled,2023.2.3,59.978143951533674,2024-01-15 17h14.40.591200 -0500,
,"[0.64, -0.4]",None,,,,,,,,,0,23,23,23,2345.6248279000283,,,,,,,,,,,,,,,,,,,,,,,,,,,,,,,,,,,,,,,,,,,,,,,,,,,,,,,,,,,,,,,,,,2345.609756699996,2345.6248279000283,2345.6248279000283,2346.1247044000193,2346.1247044000193,2348.624727700022,2348.624727700022,2348.6087518000277,None,1,,,,,,,nback54,001,2024-01-15_16h53.27.255,untitled,2023.2.3,59.978143951533674,2024-01-15 17h14.40.591200 -0500,
,"[0, 0.2]",space,,,,,,,,,0,24,24,24,2348.624727700022,,,,,,,,,,,,,,,,,,,,,,,,,,,,,,,,,,,,,,,,,,,,,,,,,,,,,,,,,,,,,,,,,,2348.609328099992,2348.624727700022,2348.624727700022,2349.124705400027,2349.124705400027,2351.624588900013,2351.624588900013,2351.608860600041,None,0,,,,,,,nback54,001,2024-01-15_16h53.27.255,untitled,2023.2.3,59.978143951533674,2024-01-15 17h14.40.591200 -0500,
,"[-0.2, 0.1]",None,,,,,,,,,0,25,25,25,2351.624588900013,,,,,,,,,,,,,,,,,,,,,,,,,,,,,,,,,,,,,,,,,,,,,,,,,,,,,,,,,,,,,,,,,,2351.6096124000032,2351.624588900013,2351.624588900013,2352.124665500014,2352.124665500014,2354.624618200003,2354.624618200003,2354.608665100008,None,1,,,,,,,nback54,001,2024-01-15_16h53.27.255,untitled,2023.2.3,59.978143951533674,2024-01-15 17h14.40.591200 -0500,
,"[0.3, 0]",None,,,,,,,,,0,26,26,26,2354.624618200003,,,,,,,,,,,,,,,,,,,,,,,,,,,,,,,,,,,,,,,,,,,,,,,,,,,,,,,,,,,,,,,,,,2354.6093176000286,2354.624618200003,2354.624618200003,2355.1245281000156,2355.1245281000156,2357.62452870002,2357.62452870002,2357.608658900019,None,1,,,,,,,nback54,001,2024-01-15_16h53.27.255,untitled,2023.2.3,59.978143951533674,2024-01-15 17h14.40.591200 -0500,
,"[-0.2, 0.1]",space,,,,,,,,,0,27,27,27,2357.62452870002,,,,,,,,,,,,,,,,,,,,,,,,,,,,,,,,,,,,,,,,,,,,,,,,,,,,,,,,,,,,,,,,,,2357.6093055999954,2357.62452870002,2357.62452870002,2358.1245474999887,2358.1245474999887,2360.6245676000253,2360.6245676000253,2360.60866170004,None,0,,,,,,,nback54,001,2024-01-15_16h53.27.255,untitled,2023.2.3,59.978143951533674,2024-01-15 17h14.40.591200 -0500,
,"[-0.2, 0.1]",None,,,,,,,,,0,28,28,28,2360.6245676000253,,,,,,,,,,,,,,,,,,,,,,,,,,,,,,,,,,,,,,,,,,,,,,,,,,,,,,,,,,,,,,,,,,2360.6093090000213,2360.6245676000253,2360.6245676000253,2361.124523500039,2361.124523500039,2363.6245119000087,2363.6245119000087,2363.6086332999985,space,0,1.2641450999653898,None,,,,,nback54,001,2024-01-15_16h53.27.255,untitled,2023.2.3,59.978143951533674,2024-01-15 17h14.40.591200 -0500,
,"[0.2, 0.1]",None,,,,,,,,,0,29,29,29,2363.6245119000087,,,,,,,,,,,,,,,,,,,,,,,,,,,,,,,,,,,,,,,,,,,,,,,,,,,,,,,,,,,,,,,,,,2363.6095936000347,2363.6245119000087,2363.6245119000087,2364.1244705000427,2364.1244705000427,2366.624394899991,2366.624394899991,2366.6086863999953,None,1,,,,,,,nback54,001,2024-01-15_16h53.27.255,untitled,2023.2.3,59.978143951533674,2024-01-15 17h14.40.591200 -0500,
,"[-0.64, -0.4]",None,,,,,,,,,0,30,30,30,2366.624394899991,,,,,,,,,,,,,,,,,,,,,,,,,,,,,,,,,,,,,,,,,,,,,,,,,,,,,,,,,,,,,,,,,,2366.6095000000205,2366.624394899991,2366.624394899991,2367.124503500003,2367.124503500003,2369.624341399991,2369.624341399991,2369.608743000019,None,1,,,,,,,nback54,001,2024-01-15_16h53.27.255,untitled,2023.2.3,59.978143951533674,2024-01-15 17h14.40.591200 -0500,
,"[0, -0.2]",None,,,,,,,,,0,31,31,31,2369.624341399991,,,,,,,,,,,,,,,,,,,,,,,,,,,,,,,,,,,,,,,,,,,,,,,,,,,,,,,,,,,,,,,,,,2369.6094838000135,2369.624341399991,2369.624341399991,2370.1244232000317,2370.1244232000317,2372.6243102000444,2372.6243102000444,2372.608227299992,None,1,,,,,,,nback54,001,2024-01-15_16h53.27.255,untitled,2023.2.3,59.978143951533674,2024-01-15 17h14.40.591200 -0500,
,"[-0.64, -0.4]",space,,,,,,,,,0,32,32,32,2372.6243102000444,,,,,,,,,,,,,,,,,,,,,,,,,,,,,,,,,,,,,,,,,,,,,,,,,,,,,,,,,,,,,,,,,,2372.6087304000393,2372.6243102000444,2372.6243102000444,2373.1244120000047,2373.1244120000047,2375.624269400025,2375.624269400025,2375.6084790999885,None,0,,,,,,,nback54,001,2024-01-15_16h53.27.255,untitled,2023.2.3,59.978143951533674,2024-01-15 17h14.40.591200 -0500,
,"[0.64, 0.4]",None,,,,,,,,,0,33,33,33,2375.624269400025,,,,,,,,,,,,,,,,,,,,,,,,,,,,,,,,,,,,,,,,,,,,,,,,,,,,,,,,,,,,,,,,,,2375.6091311000055,2375.624269400025,2375.624269400025,2376.1243333999882,2376.1243333999882,2378.6242468000273,2378.6242468000273,2378.608179300034,None,1,,,,,,,nback54,001,2024-01-15_16h53.27.255,untitled,2023.2.3,59.978143951533674,2024-01-15 17h14.40.591200 -0500,
,"[-0.3, 0]",None,,,,,,,,,0,34,34,34,2378.6242468000273,,,,,,,,,,,,,,,,,,,,,,,,,,,,,,,,,,,,,,,,,,,,,,,,,,,,,,,,,,,,,,,,,,2378.6088514000294,2378.6242468000273,2378.6242468000273,2379.1241426999914,2379.1241426999914,2381.6242205000017,2381.6242205000017,2381.6084119000006,None,1,,,,,,,nback54,001,2024-01-15_16h53.27.255,untitled,2023.2.3,59.978143951533674,2024-01-15 17h14.40.591200 -0500,
,"[0.3, 0]",None,,,,,,,,,0,35,35,35,2381.6242205000017,,,,,,,,,,,,,,,,,,,,,,,,,,,,,,,,,,,,,,,,,,,,,,,,,,,,,,,,,,,,,,,,,,2381.609105899988,2381.6242205000017,2381.6242205000017,2382.1242704000324,2382.1242704000324,2384.6241882999893,2384.6241882999893,2384.608460600022,None,1,,,,,,,nback54,001,2024-01-15_16h53.27.255,untitled,2023.2.3,59.978143951533674,2024-01-15 17h14.40.591200 -0500,
,"[-0.3, 0]",space,,,,,,,,,0,36,36,36,2384.6241882999893,,,,,,,,,,,,,,,,,,,,,,,,,,,,,,,,,,,,,,,,,,,,,,,,,,,,,,,,,,,,,,,,,,2384.609295000031,2384.6241882999893,2384.6241882999893,2385.1240132999956,2385.1240132999956,2387.6241062000045,2387.6241062000045,2387.6083725999924,None,0,,,,,,,nback54,001,2024-01-15_16h53.27.255,untitled,2023.2.3,59.978143951533674,2024-01-15 17h14.40.591200 -0500,
,"[0, -0.2]",None,,,,,,,,,0,37,37,37,2387.6241062000045,,,,,,,,,,,,,,,,,,,,,,,,,,,,,,,,,,,,,,,,,,,,,,,,,,,,,,,,,,,,,,,,,,2387.609104900039,2387.6241062000045,2387.6241062000045,2388.1241000000155,2388.1241000000155,2390.6240742999944,2390.6240742999944,2390.607884199999,None,1,,,,,,,nback54,001,2024-01-15_16h53.27.255,untitled,2023.2.3,59.978143951533674,2024-01-15 17h14.40.591200 -0500,
,"[0.3, 0]",None,,,,,,,,,0,38,38,38,2390.6240742999944,,,,,,,,,,,,,,,,,,,,,,,,,,,,,,,,,,,,,,,,,,,,,,,,,,,,,,,,,,,,,,,,,,2390.6086130000185,2390.6240742999944,2390.6240742999944,2391.12404580001,2391.12404580001,2393.623816200008,2393.623816200008,2393.6081668999977,None,1,,,,,,,nback54,001,2024-01-15_16h53.27.255,untitled,2023.2.3,59.978143951533674,2024-01-15 17h14.40.591200 -0500,
,"[0.2, 0.1]",None,,,,,,,,,0,39,39,39,2393.623816200008,,,,,,,,,,,,,,,,,,,,,,,,,,,,,,,,,,,,,,,,,,,,,,,,,,,,,,,,,,,,,,,,,,2393.6089022000087,2393.623816200008,2393.623816200008,2394.1238927000086,2394.1238927000086,2396.6239719000296,2396.6239719000296,2396.608183000004,None,1,,,,,,,nback54,001,2024-01-15_16h53.27.255,untitled,2023.2.3,59.978143951533674,2024-01-15 17h14.40.591200 -0500,
,,,,,,,,,,,,,,,,,,,,,,,,,,,,,,,,,,,,,,,,,,,,,,,,,,,,,,,,,,,,,,,,,,,,,,,,,,,,,,,,,,,,,,,,,,,,,2396.608727200015,2396.6239719000296,2399.6238716000225,2399.608277900028,,,,,,,,
