square,location,corrAns,trials_0.thisRepN,trials_0.thisTrialN,trials_0.thisN,trials_0.thisIndex,trials_1.thisRepN,trials_1.thisTrialN,trials_1.thisN,trials_1.thisIndex,trials_2.thisRepN,trials_2.thisTrialN,trials_2.thisN,trials_2.thisIndex,thisRow.t,notes,Instructions.started,instructions.started,key_resp.started,inst_sq11.started,Instructions.stopped,key_resp.keys,key_resp.rt,key_resp.duration,All.started,sq_1.started,sq_2.started,sq_3.started,sq_4.started,sq_5.started,sq_6.started,sq_7.started,sq_8.started,sq_9.started,sq_10.started,sq_11.started,sq_12.started,All.stopped,Fixation.started,fixation_3.started,fixation_3.stopped,Fixation.stopped,N_back_0_Trial.started,target_square_0.started,response_0.started,fixation_0.started,target_square_0.stopped,fixation_0.stopped,N_back_0_Trial.stopped,response_0.keys,response_0.corr,response_0.rt,response_0.duration,Instructions_1.started,instructions_1.started,key_resp_1.started,Instructions_1.stopped,key_resp_1.keys,key_resp_1.rt,key_resp_1.duration,N_back_1_Trial.started,target_square_1.started,response_1.started,target_square_1.stopped,fixation_1.started,fixation_1.stopped,response_1.stopped,N_back_1_Trial.stopped,response_1.keys,response_1.corr,response_1.rt,response_1.duration,Instructions_2.started,instructions_2.started,key_resp_2.started,Instructions_2.stopped,key_resp_2.keys,key_resp_2.rt,key_resp_2.duration,N_back_2_trials.started,target_square_2.started,response_2.started,target_square_2.stopped,fixation_2.started,fixation_2.stopped,response_2.stopped,N_back_2_trials.stopped,response_2.keys,response_2.corr,response_2.rt,response_2.duration,End.started,thank_you.started,thank_you.stopped,End.stopped,participant,session,date,expName,psychopyVersion,frameRate,expStart,
,,,,,,,,,,,,,,,,,0.0014543999859597534,0.003913699998520315,0.003913699998520315,0.003913699998520315,1672.951492399996,space,1672.934903699992,None,,,,,,,,,,,,,,,,,,,,,,,,,,,,,,,,,,,,,,,,,,,,,,,,,,,,,,,,,,,,,,,,,,,,,,,,nback60,001,2024-01-18_15h55.57.363,untitled,2023.2.3,59.95390743745801,2024-01-18 16h17.41.139542 -0500,
6,"[-0.3, 0]",None,0,0,0,0,,,,,,,,,1674.975702900003,,,,,,,,,,1672.9515435999783,1672.9664865999948,1672.9664865999948,1672.9664865999948,1672.9664865999948,1672.9664865999948,1672.9664865999948,1672.9664865999948,1672.9664865999948,1672.9664865999948,1672.9664865999948,1672.9664865999948,1672.9664865999948,1673.950361700001,1673.950377000001,1673.966456299997,1674.975702900003,1674.9508619999979,1674.9737329999916,1674.975702900003,1674.975702900003,1675.4499285999918,1675.4831627999956,1677.9498809999786,1677.966844999988,None,1,,,,,,,,,,,,,,,,,,,,,,,,,,,,,,,,,,,,,,,,,,,,,nback60,001,2024-01-18_15h55.57.363,untitled,2023.2.3,59.95390743745801,2024-01-18 16h17.41.139542 -0500,
10,"[0, -0.2]",None,0,1,1,1,,,,,,,,,1677.983246799995,,,,,,,,,,,,,,,,,,,,,,,,,,,,1677.967857999989,1677.983246799995,1677.983246799995,1678.449715900002,1678.4833042999962,1680.9497996999999,1680.9668103999866,None,1,,,,,,,,,,,,,,,,,,,,,,,,,,,,,,,,,,,,,,,,,,,,,nback60,001,2024-01-18_15h55.57.363,untitled,2023.2.3,59.95390743745801,2024-01-18 16h17.41.139542 -0500,
11,"[-0.64, -0.4]",space,0,2,2,2,,,,,,,,,1680.9832212000038,,,,,,,,,,,,,,,,,,,,,,,,,,,,1680.9676853999845,1680.9832212000038,1680.9832212000038,1681.4498322999862,1681.4829863999912,1683.949764799996,1683.966740599979,space,1,0.43691020002006553,None,,,,,,,,,,,,,,,,,,,,,,,,,,,,,,,,,,,,,,,,,,,nback60,001,2024-01-18_15h55.57.363,untitled,2023.2.3,59.95390743745801,2024-01-18 16h17.41.139542 -0500,
12,"[0.64, -0.4]",None,0,3,3,3,,,,,,,,,1683.983195399982,,,,,,,,,,,,,,,,,,,,,,,,,,,,1683.9678779999958,1683.983195399982,1683.983195399982,1684.4497901999857,1684.4831774999911,1686.9495482999773,1686.9667274999956,None,1,,,,,,,,,,,,,,,,,,,,,,,,,,,,,,,,,,,,,,,,,,,,,nback60,001,2024-01-18_15h55.57.363,untitled,2023.2.3,59.95390743745801,2024-01-18 16h17.41.139542 -0500,
1,"[-0.64, 0.4]",None,0,4,4,4,,,,,,,,,1686.9830492999754,,,,,,,,,,,,,,,,,,,,,,,,,,,,1686.967593199981,1686.9830492999754,1686.9830492999754,1687.449689799978,1687.4830265999772,1689.9498217999935,1689.966570699995,None,1,,,,,,,,,,,,,,,,,,,,,,,,,,,,,,,,,,,,,,,,,,,,,nback60,001,2024-01-18_15h55.57.363,untitled,2023.2.3,59.95390743745801,2024-01-18 16h17.41.139542 -0500,
1,"[-0.64, 0.4]",None,0,5,5,5,,,,,,,,,1689.9830658999854,,,,,,,,,,,,,,,,,,,,,,,,,,,,1689.9674388999993,1689.9830658999854,1689.9830658999854,1690.4495758999838,1690.4830619999848,1692.9494798999804,1692.96643879998,None,1,,,,,,,,,,,,,,,,,,,,,,,,,,,,,,,,,,,,,,,,,,,,,nback60,001,2024-01-18_15h55.57.363,untitled,2023.2.3,59.95390743745801,2024-01-18 16h17.41.139542 -0500,
4,"[-0.2, 0.1]",None,0,6,6,6,,,,,,,,,1692.9830134999938,,,,,,,,,,,,,,,,,,,,,,,,,,,,1692.9671468999877,1692.9830134999938,1692.9830134999938,1693.4496589999762,1693.4828926999762,1695.9494968999934,1695.9664058999915,None,1,,,,,,,,,,,,,,,,,,,,,,,,,,,,,,,,,,,,,,,,,,,,,nback60,001,2024-01-18_15h55.57.363,untitled,2023.2.3,59.95390743745801,2024-01-18 16h17.41.139542 -0500,
5,"[0.2, 0.1]",None,0,7,7,7,,,,,,,,,1695.9829753999948,,,,,,,,,,,,,,,,,,,,,,,,,,,,1695.9671912999765,1695.9829753999948,1695.9829753999948,1696.4495289999759,1696.4828386000008,1698.9491855999804,1698.9660937000008,None,1,,,,,,,,,,,,,,,,,,,,,,,,,,,,,,,,,,,,,,,,,,,,,nback60,001,2024-01-18_15h55.57.363,untitled,2023.2.3,59.95390743745801,2024-01-18 16h17.41.139542 -0500,
11,"[-0.64, -0.4]",space,0,8,8,8,,,,,,,,,1698.9825352999906,,,,,,,,,,,,,,,,,,,,,,,,,,,,1698.9669447999913,1698.9825352999906,1698.9825352999906,1699.4496257999854,1699.482801199978,1701.9495055000007,1701.9664285999897,space,1,0.4045506000111345,None,,,,,,,,,,,,,,,,,,,,,,,,,,,,,,,,,,,,,,,,,,,nback60,001,2024-01-18_15h55.57.363,untitled,2023.2.3,59.95390743745801,2024-01-18 16h17.41.139542 -0500,
9,"[0.2, -0.1]",None,0,9,9,9,,,,,,,,,1701.9830431999872,,,,,,,,,,,,,,,,,,,,,,,,,,,,1701.967424499977,1701.9830431999872,1701.9830431999872,1702.4493727999798,1702.4827554999792,1704.9494634000002,1704.9663528999954,None,1,,,,,,,,,,,,,,,,,,,,,,,,,,,,,,,,,,,,,,,,,,,,,nback60,001,2024-01-18_15h55.57.363,untitled,2023.2.3,59.95390743745801,2024-01-18 16h17.41.139542 -0500,
8,"[-0.2, -0.1]",None,0,10,10,10,,,,,,,,,1704.9827826999826,,,,,,,,,,,,,,,,,,,,,,,,,,,,1704.9671776999894,1704.9827826999826,1704.9827826999826,1705.4493646999763,1705.4828439999837,1707.9493377000035,1707.966379599995,None,1,,,,,,,,,,,,,,,,,,,,,,,,,,,,,,,,,,,,,,,,,,,,,nback60,001,2024-01-18_15h55.57.363,untitled,2023.2.3,59.95390743745801,2024-01-18 16h17.41.139542 -0500,
9,"[0.2, -0.1]",None,0,11,11,11,,,,,,,,,1707.982754800003,,,,,,,,,,,,,,,,,,,,,,,,,,,,1707.9672059000004,1707.982754800003,1707.982754800003,1708.4658633999934,1708.4825990999816,1710.9660412999801,1710.9662497999961,None,1,,,,,,,,,,,,,,,,,,,,,,,,,,,,,,,,,,,,,,,,,,,,,nback60,001,2024-01-18_15h55.57.363,untitled,2023.2.3,59.95390743745801,2024-01-18 16h17.41.139542 -0500,
6,"[-0.3, 0]",None,0,12,12,12,,,,,,,,,1710.982713699981,,,,,,,,,,,,,,,,,,,,,,,,,,,,1710.967083800002,1710.982713699981,1710.982713699981,1711.4493468999863,1711.4827093999775,1713.9492348999775,1713.966206299985,None,1,,,,,,,,,,,,,,,,,,,,,,,,,,,,,,,,,,,,,,,,,,,,,nback60,001,2024-01-18_15h55.57.363,untitled,2023.2.3,59.95390743745801,2024-01-18 16h17.41.139542 -0500,
9,"[0.2, -0.1]",None,0,13,13,13,,,,,,,,,1713.982572799985,,,,,,,,,,,,,,,,,,,,,,,,,,,,1713.9670235999802,1713.982572799985,1713.982572799985,1714.465950199985,1714.4824709999957,1716.9659056999953,1716.9661153999914,None,1,,,,,,,,,,,,,,,,,,,,,,,,,,,,,,,,,,,,,,,,,,,,,nback60,001,2024-01-18_15h55.57.363,untitled,2023.2.3,59.95390743745801,2024-01-18 16h17.41.139542 -0500,
7,"[0.3, 0]",None,0,14,14,14,,,,,,,,,1716.98253009998,,,,,,,,,,,,,,,,,,,,,,,,,,,,1716.966922599997,1716.98253009998,1716.98253009998,1717.4658820999903,1717.4824912999757,1719.9658660999849,1719.9660673999751,None,1,,,,,,,,,,,,,,,,,,,,,,,,,,,,,,,,,,,,,,,,,,,,,nback60,001,2024-01-18_15h55.57.363,untitled,2023.2.3,59.95390743745801,2024-01-18 16h17.41.139542 -0500,
2,"[0.64, 0.4]",None,0,15,15,15,,,,,,,,,1719.9824265999778,,,,,,,,,,,,,,,,,,,,,,,,,,,,1719.9668779999774,1719.9824265999778,1719.9824265999778,1720.4659105000028,1720.4825245999964,1722.9658217999968,1722.966029299976,None,1,,,,,,,,,,,,,,,,,,,,,,,,,,,,,,,,,,,,,,,,,,,,,nback60,001,2024-01-18_15h55.57.363,untitled,2023.2.3,59.95390743745801,2024-01-18 16h17.41.139542 -0500,
2,"[0.64, 0.4]",None,0,16,16,16,,,,,,,,,1722.9823772999807,,,,,,,,,,,,,,,,,,,,,,,,,,,,1722.9668173999817,1722.9823772999807,1722.9823772999807,1723.4657415999973,1723.482569499989,1725.9656361999805,1725.965815899981,None,1,,,,,,,,,,,,,,,,,,,,,,,,,,,,,,,,,,,,,,,,,,,,,nback60,001,2024-01-18_15h55.57.363,untitled,2023.2.3,59.95390743745801,2024-01-18 16h17.41.139542 -0500,
11,"[-0.64, -0.4]",space,0,17,17,17,,,,,,,,,1725.982447199989,,,,,,,,,,,,,,,,,,,,,,,,,,,,1725.9665211999964,1725.982447199989,1725.982447199989,1726.4658796000003,1726.4822655000025,1728.9657747999881,1728.9659727999824,space,1,0.47844579999218695,None,,,,,,,,,,,,,,,,,,,,,,,,,,,,,,,,,,,,,,,,,,,nback60,001,2024-01-18_15h55.57.363,untitled,2023.2.3,59.95390743745801,2024-01-18 16h17.41.139542 -0500,
11,"[-0.64, -0.4]",space,0,18,18,18,,,,,,,,,1728.982199399994,,,,,,,,,,,,,,,,,,,,,,,,,,,,1728.9669018999848,1728.982199399994,1728.982199399994,1729.465712699981,1729.4823279999837,1731.9656918999972,1731.9658972999896,space,1,0.5481855000252835,None,,,,,,,,,,,,,,,,,,,,,,,,,,,,,,,,,,,,,,,,,,,nback60,001,2024-01-18_15h55.57.363,untitled,2023.2.3,59.95390743745801,2024-01-18 16h17.41.139542 -0500,
7,"[0.3, 0]",None,0,19,19,19,,,,,,,,,1731.9822954999981,,,,,,,,,,,,,,,,,,,,,,,,,,,,1731.9668679999886,1731.9822954999981,1731.9822954999981,1732.4655343999912,1732.4823005999788,1734.9656954999955,1734.9658620999835,None,1,,,,,,,,,,,,,,,,,,,,,,,,,,,,,,,,,,,,,,,,,,,,,nback60,001,2024-01-18_15h55.57.363,untitled,2023.2.3,59.95390743745801,2024-01-18 16h17.41.139542 -0500,
3,"[0, 0.2]",None,0,20,20,20,,,,,,,,,1734.9823582999816,,,,,,,,,,,,,,,,,,,,,,,,,,,,1734.9665257000015,1734.9823582999816,1734.9823582999816,1735.4655191999918,1735.482223799976,1737.9655719999864,1737.9657564999943,None,1,,,,,,,,,,,,,,,,,,,,,,,,,,,,,,,,,,,,,,,,,,,,,nback60,001,2024-01-18_15h55.57.363,untitled,2023.2.3,59.95390743745801,2024-01-18 16h17.41.139542 -0500,
10,"[0, -0.2]",None,0,21,21,21,,,,,,,,,1737.982188199996,,,,,,,,,,,,,,,,,,,,,,,,,,,,1737.9665181000018,1737.982188199996,1737.982188199996,1738.4655411999847,1738.482133499987,1740.965555999981,1740.9657315999793,None,1,,,,,,,,,,,,,,,,,,,,,,,,,,,,,,,,,,,,,,,,,,,,,nback60,001,2024-01-18_15h55.57.363,untitled,2023.2.3,59.95390743745801,2024-01-18 16h17.41.139542 -0500,
1,"[-0.64, 0.4]",None,0,22,22,22,,,,,,,,,1740.9820275999955,,,,,,,,,,,,,,,,,,,,,,,,,,,,1740.9664700999856,1740.9820275999955,1740.9820275999955,1741.4654938000022,1741.482176599995,1743.9656327999837,1743.9658422999782,None,1,,,,,,,,,,,,,,,,,,,,,,,,,,,,,,,,,,,,,,,,,,,,,nback60,001,2024-01-18_15h55.57.363,untitled,2023.2.3,59.95390743745801,2024-01-18 16h17.41.139542 -0500,
2,"[0.64, 0.4]",None,0,23,23,23,,,,,,,,,1743.9822091999813,,,,,,,,,,,,,,,,,,,,,,,,,,,,1743.9666504999914,1743.9822091999813,1743.9822091999813,1744.4653552999953,1744.482018699986,1746.9654218999785,1746.965589999978,None,1,,,,,,,,,,,,,,,,,,,,,,,,,,,,,,,,,,,,,,,,,,,,,nback60,001,2024-01-18_15h55.57.363,untitled,2023.2.3,59.95390743745801,2024-01-18 16h17.41.139542 -0500,
6,"[-0.3, 0]",None,0,24,24,24,,,,,,,,,1746.981991699984,,,,,,,,,,,,,,,,,,,,,,,,,,,,1746.966327299975,1746.981991699984,1746.981991699984,1747.4654970999982,1747.4820888999966,1749.9652783999918,1749.9654290999752,None,1,,,,,,,,,,,,,,,,,,,,,,,,,,,,,,,,,,,,,,,,,,,,,nback60,001,2024-01-18_15h55.57.363,untitled,2023.2.3,59.95390743745801,2024-01-18 16h17.41.139542 -0500,
3,"[0, 0.2]",None,0,25,25,25,,,,,,,,,1749.9819193999865,,,,,,,,,,,,,,,,,,,,,,,,,,,,1749.9660141999775,1749.9819193999865,1749.9819193999865,1750.465345899982,1750.4818795000028,1752.9652995999786,1752.9654902999755,None,1,,,,,,,,,,,,,,,,,,,,,,,,,,,,,,,,,,,,,,,,,,,,,nback60,001,2024-01-18_15h55.57.363,untitled,2023.2.3,59.95390743745801,2024-01-18 16h17.41.139542 -0500,
11,"[-0.64, -0.4]",space,0,26,26,26,,,,,,,,,1752.9819728999864,,,,,,,,,,,,,,,,,,,,,,,,,,,,1752.9662080999988,1752.9819728999864,1752.9819728999864,1753.4652251999942,1753.4819090999954,1755.9651958000031,1755.9653950999782,space,1,0.6625036999757867,None,,,,,,,,,,,,,,,,,,,,,,,,,,,,,,,,,,,,,,,,,,,nback60,001,2024-01-18_15h55.57.363,untitled,2023.2.3,59.95390743745801,2024-01-18 16h17.41.139542 -0500,
1,"[-0.64, 0.4]",None,0,27,27,27,,,,,,,,,1755.9817394999845,,,,,,,,,,,,,,,,,,,,,,,,,,,,1755.9663392999792,1755.9817394999845,1755.9817394999845,1756.4651759999979,1756.4818986000028,1758.964853499987,1758.964950900001,None,1,,,,,,,,,,,,,,,,,,,,,,,,,,,,,,,,,,,,,,,,,,,,,nback60,001,2024-01-18_15h55.57.363,untitled,2023.2.3,59.95390743745801,2024-01-18 16h17.41.139542 -0500,
3,"[0, 0.2]",None,0,28,28,28,,,,,,,,,1758.981689999986,,,,,,,,,,,,,,,,,,,,,,,,,,,,1758.9652934999904,1758.981689999986,1758.981689999986,1759.4651946999948,1759.4818302999774,1761.9650524999888,1761.9652255999972,None,1,,,,,,,,,,,,,,,,,,,,,,,,,,,,,,,,,,,,,,,,,,,,,nback60,001,2024-01-18_15h55.57.363,untitled,2023.2.3,59.95390743745801,2024-01-18 16h17.41.139542 -0500,
9,"[0.2, -0.1]",None,0,29,29,29,,,,,,,,,1761.981631999981,,,,,,,,,,,,,,,,,,,,,,,,,,,,1761.9658608000027,1761.981631999981,1761.981631999981,1762.4651284999854,1762.4816494999977,1764.965089699981,1764.9652922999812,None,1,,,,,,,,,,,,,,,,,,,,,,,,,,,,,,,,,,,,,,,,,,,,,nback60,001,2024-01-18_15h55.57.363,untitled,2023.2.3,59.95390743745801,2024-01-18 16h17.41.139542 -0500,
8,"[-0.2, -0.1]",None,0,30,30,30,,,,,,,,,1764.9818850999873,,,,,,,,,,,,,,,,,,,,,,,,,,,,1764.9660520000034,1764.9818850999873,1764.9818850999873,1765.4651309999754,1765.4815925000003,1767.9650163999759,1767.9652313999832,None,1,,,,,,,,,,,,,,,,,,,,,,,,,,,,,,,,,,,,,,,,,,,,,nback60,001,2024-01-18_15h55.57.363,untitled,2023.2.3,59.95390743745801,2024-01-18 16h17.41.139542 -0500,
12,"[0.64, -0.4]",None,0,31,31,31,,,,,,,,,1767.9818749999977,,,,,,,,,,,,,,,,,,,,,,,,,,,,1767.965987499978,1767.9818749999977,1767.9818749999977,1768.465063999989,1768.4816939999873,1770.965017999988,1770.9652730999805,None,1,,,,,,,,,,,,,,,,,,,,,,,,,,,,,,,,,,,,,,,,,,,,,nback60,001,2024-01-18_15h55.57.363,untitled,2023.2.3,59.95390743745801,2024-01-18 16h17.41.139542 -0500,
9,"[0.2, -0.1]",None,0,32,32,32,,,,,,,,,1770.9815478999808,,,,,,,,,,,,,,,,,,,,,,,,,,,,1770.9660241999954,1770.9815478999808,1770.9815478999808,1771.465122499998,1771.4816176999884,1773.9650926000031,1773.9653055999952,None,1,,,,,,,,,,,,,,,,,,,,,,,,,,,,,,,,,,,,,,,,,,,,,nback60,001,2024-01-18_15h55.57.363,untitled,2023.2.3,59.95390743745801,2024-01-18 16h17.41.139542 -0500,
11,"[-0.64, -0.4]",space,0,33,33,33,,,,,,,,,1773.9815777999756,,,,,,,,,,,,,,,,,,,,,,,,,,,,1773.9661285999755,1773.9815777999756,1773.9815777999756,1774.464954199997,1774.4815855999768,1776.9647836999793,1776.964997299976,space,1,0.39368690000264905,None,,,,,,,,,,,,,,,,,,,,,,,,,,,,,,,,,,,,,,,,,,,nback60,001,2024-01-18_15h55.57.363,untitled,2023.2.3,59.95390743745801,2024-01-18 16h17.41.139542 -0500,
7,"[0.3, 0]",None,0,34,34,34,,,,,,,,,1776.9815136999823,,,,,,,,,,,,,,,,,,,,,,,,,,,,1776.9659780999937,1776.9815136999823,1776.9815136999823,1777.4647532999807,1777.4816444999888,1779.9648754999798,1779.9650804999983,None,1,,,,,,,,,,,,,,,,,,,,,,,,,,,,,,,,,,,,,,,,,,,,,nback60,001,2024-01-18_15h55.57.363,untitled,2023.2.3,59.95390743745801,2024-01-18 16h17.41.139542 -0500,
11,"[-0.64, -0.4]",space,0,35,35,35,,,,,,,,,1779.981464899989,,,,,,,,,,,,,,,,,,,,,,,,,,,,1779.9658429999836,1779.981464899989,1779.981464899989,1780.4647065000026,1780.4815598999849,1782.964534699975,1782.9646918999788,space,1,0.5615524999739137,None,,,,,,,,,,,,,,,,,,,,,,,,,,,,,,,,,,,,,,,,,,,nback60,001,2024-01-18_15h55.57.363,untitled,2023.2.3,59.95390743745801,2024-01-18 16h17.41.139542 -0500,
4,"[-0.2, 0.1]",None,0,36,36,36,,,,,,,,,1782.9813018999994,,,,,,,,,,,,,,,,,,,,,,,,,,,,1782.9654176999757,1782.9813018999994,1782.9813018999994,1783.4647751000011,1783.4813158999896,1785.964835699997,1785.9650438999815,None,1,,,,,,,,,,,,,,,,,,,,,,,,,,,,,,,,,,,,,,,,,,,,,nback60,001,2024-01-18_15h55.57.363,untitled,2023.2.3,59.95390743745801,2024-01-18 16h17.41.139542 -0500,
5,"[0.2, 0.1]",None,0,37,37,37,,,,,,,,,1785.9815097999817,,,,,,,,,,,,,,,,,,,,,,,,,,,,1785.9658001999778,1785.9815097999817,1785.9815097999817,1786.4646837000037,1786.481236599997,1788.964513199986,1788.9646804999793,None,1,,,,,,,,,,,,,,,,,,,,,,,,,,,,,,,,,,,,,,,,,,,,,nback60,001,2024-01-18_15h55.57.363,untitled,2023.2.3,59.95390743745801,2024-01-18 16h17.41.139542 -0500,
6,"[-0.3, 0]",None,0,38,38,38,,,,,,,,,1788.98139239999,,,,,,,,,,,,,,,,,,,,,,,,,,,,1788.9653758999775,1788.98139239999,1788.98139239999,1789.464524399984,1789.4811419000034,1791.964605199988,1791.964788799989,None,1,,,,,,,,,,,,,,,,,,,,,,,,,,,,,,,,,,,,,,,,,,,,,nback60,001,2024-01-18_15h55.57.363,untitled,2023.2.3,59.95390743745801,2024-01-18 16h17.41.139542 -0500,
11,"[-0.64, -0.4]",space,0,39,39,39,,,,,,,,,1791.9813473999966,,,,,,,,,,,,,,,,,,,,,,,,,,,,1791.9654994999873,1791.9813473999966,1791.9813473999966,1792.464553400001,1792.4812756000028,1794.9645455999998,1794.9647292000009,space,1,0.42243770000641234,None,,,,,,,,,,,,,,,,,,,,,,,,,,,,,,,,,,,,,,,,,,,nback60,001,2024-01-18_15h55.57.363,untitled,2023.2.3,59.95390743745801,2024-01-18 16h17.41.139542 -0500,
,,,,,,,,,,,,,,,,,,,,,,,,,,,,,,,,,,,,,,,,,,,,,,,,,,,,,,1794.9654096000013,1794.9814370999811,1794.9814370999811,1831.4486376999994,space,36.45100440000533,None,,,,,,,,,,,,,,,,,,,,,,,,,,,,,,,,,,,,nback60,001,2024-01-18_15h55.57.363,untitled,2023.2.3,59.95390743745801,2024-01-18 16h17.41.139542 -0500,
10,"[0, -0.2]",None,,,,,0,0,0,0,,,,,1832.4643284999765,,,,,,,,,,,,,,,,,,,,,,,,1831.448677599983,1831.46383589998,1832.4643284999765,1832.4480457000027,,,,,,,,,,,,,,,,,,,1832.4622443999979,1832.4643284999765,1832.4643284999765,1832.9637970999756,1832.9637970999756,1835.4637478999794,1835.4637478999794,1835.4478442999825,None,1,,,,,,,,,,,,,,,,,,,,,,,,,,nback60,001,2024-01-18_15h55.57.363,untitled,2023.2.3,59.95390743745801,2024-01-18 16h17.41.139542 -0500,
5,"[0.2, 0.1]",None,,,,,0,1,1,1,,,,,1835.4637478999794,,,,,,,,,,,,,,,,,,,,,,,,,,,,,,,,,,,,,,,,,,,,,,1835.4488014999952,1835.4637478999794,1835.4637478999794,1835.9638063999882,1835.9638063999882,1838.4637025999837,1838.4637025999837,1838.447855699982,None,1,,,,,,,,,,,,,,,,,,,,,,,,,,nback60,001,2024-01-18_15h55.57.363,untitled,2023.2.3,59.95390743745801,2024-01-18 16h17.41.139542 -0500,
6,"[-0.3, 0]",None,,,,,0,2,2,2,,,,,1838.4637025999837,,,,,,,,,,,,,,,,,,,,,,,,,,,,,,,,,,,,,,,,,,,,,,1838.4484606999904,1838.4637025999837,1838.4637025999837,1838.963847099978,1838.963847099978,1841.4636418999871,1841.4636418999871,1841.4477569999872,None,1,,,,,,,,,,,,,,,,,,,,,,,,,,nback60,001,2024-01-18_15h55.57.363,untitled,2023.2.3,59.95390743745801,2024-01-18 16h17.41.139542 -0500,
6,"[-0.3, 0]",space,,,,,0,3,3,3,,,,,1841.4636418999871,,,,,,,,,,,,,,,,,,,,,,,,,,,,,,,,,,,,,,,,,,,,,,1841.448379599984,1841.4636418999871,1841.4636418999871,1841.963680099987,1841.963680099987,1844.463561099983,1844.463561099983,1844.4476618999906,space,1,0.43073720001848415,None,,,,,,,,,,,,,,,,,,,,,,,,nback60,001,2024-01-18_15h55.57.363,untitled,2023.2.3,59.95390743745801,2024-01-18 16h17.41.139542 -0500,
12,"[0.64, -0.4]",None,,,,,0,4,4,4,,,,,1844.463561099983,,,,,,,,,,,,,,,,,,,,,,,,,,,,,,,,,,,,,,,,,,,,,,1844.4485513999825,1844.463561099983,1844.463561099983,1844.9636818,1844.9636818,1847.4635381999833,1847.4635381999833,1847.447955199983,None,1,,,,,,,,,,,,,,,,,,,,,,,,,,nback60,001,2024-01-18_15h55.57.363,untitled,2023.2.3,59.95390743745801,2024-01-18 16h17.41.139542 -0500,
10,"[0, -0.2]",None,,,,,0,5,5,5,,,,,1847.4635381999833,,,,,,,,,,,,,,,,,,,,,,,,,,,,,,,,,,,,,,,,,,,,,,1847.4485093999829,1847.4635381999833,1847.4635381999833,1847.96359259999,1847.96359259999,1850.463382899994,1850.463382899994,1850.4476275999914,None,1,,,,,,,,,,,,,,,,,,,,,,,,,,nback60,001,2024-01-18_15h55.57.363,untitled,2023.2.3,59.95390743745801,2024-01-18 16h17.41.139542 -0500,
2,"[0.64, 0.4]",None,,,,,0,6,6,6,,,,,1850.463382899994,,,,,,,,,,,,,,,,,,,,,,,,,,,,,,,,,,,,,,,,,,,,,,1850.4482524999767,1850.463382899994,1850.463382899994,1850.963434299978,1850.963434299978,1853.4633270999766,1853.4633270999766,1853.447769099992,None,1,,,,,,,,,,,,,,,,,,,,,,,,,,nback60,001,2024-01-18_15h55.57.363,untitled,2023.2.3,59.95390743745801,2024-01-18 16h17.41.139542 -0500,
9,"[0.2, -0.1]",None,,,,,0,7,7,7,,,,,1853.4633270999766,,,,,,,,,,,,,,,,,,,,,,,,,,,,,,,,,,,,,,,,,,,,,,1853.4484841999947,1853.4633270999766,1853.4633270999766,1853.9633207999868,1853.9633207999868,1856.4633570000005,1856.4633570000005,1856.4473124999786,None,1,,,,,,,,,,,,,,,,,,,,,,,,,,nback60,001,2024-01-18_15h55.57.363,untitled,2023.2.3,59.95390743745801,2024-01-18 16h17.41.139542 -0500,
9,"[0.2, -0.1]",space,,,,,0,8,8,8,,,,,1856.4633570000005,,,,,,,,,,,,,,,,,,,,,,,,,,,,,,,,,,,,,,,,,,,,,,1856.4479105999926,1856.4633570000005,1856.4633570000005,1856.9633859999885,1856.9633859999885,1859.4633729999769,1859.4633729999769,1859.4477523999813,space,1,0.587841499975184,None,,,,,,,,,,,,,,,,,,,,,,,,nback60,001,2024-01-18_15h55.57.363,untitled,2023.2.3,59.95390743745801,2024-01-18 16h17.41.139542 -0500,
6,"[-0.3, 0]",None,,,,,0,9,9,9,,,,,1859.4633729999769,,,,,,,,,,,,,,,,,,,,,,,,,,,,,,,,,,,,,,,,,,,,,,1859.4487265999778,1859.4633729999769,1859.4633729999769,1859.9633127999841,1859.9633127999841,1862.463410299999,1862.463410299999,1862.4477119999938,None,1,,,,,,,,,,,,,,,,,,,,,,,,,,nback60,001,2024-01-18_15h55.57.363,untitled,2023.2.3,59.95390743745801,2024-01-18 16h17.41.139542 -0500,
11,"[-0.64, -0.4]",None,,,,,0,10,10,10,,,,,1862.463410299999,,,,,,,,,,,,,,,,,,,,,,,,,,,,,,,,,,,,,,,,,,,,,,1862.449668699992,1862.463410299999,1862.463410299999,1862.9632844000007,1862.9632844000007,1865.4632711999875,1865.4632711999875,1865.44719419998,None,1,,,,,,,,,,,,,,,,,,,,,,,,,,nback60,001,2024-01-18_15h55.57.363,untitled,2023.2.3,59.95390743745801,2024-01-18 16h17.41.139542 -0500,
11,"[-0.64, -0.4]",space,,,,,0,11,11,11,,,,,1865.4632711999875,,,,,,,,,,,,,,,,,,,,,,,,,,,,,,,,,,,,,,,,,,,,,,1865.4478851000022,1865.4632711999875,1865.4632711999875,1865.963315699977,1865.963315699977,1868.4631911999895,1868.4631911999895,1868.4474067999981,space,1,0.42880829999921843,None,,,,,,,,,,,,,,,,,,,,,,,,nback60,001,2024-01-18_15h55.57.363,untitled,2023.2.3,59.95390743745801,2024-01-18 16h17.41.139542 -0500,
4,"[-0.2, 0.1]",None,,,,,0,12,12,12,,,,,1868.4631911999895,,,,,,,,,,,,,,,,,,,,,,,,,,,,,,,,,,,,,,,,,,,,,,1868.4482695999905,1868.4631911999895,1868.4631911999895,1868.9633030999976,1868.9633030999976,1871.4630215999787,1871.4630215999787,1871.4473030999943,None,1,,,,,,,,,,,,,,,,,,,,,,,,,,nback60,001,2024-01-18_15h55.57.363,untitled,2023.2.3,59.95390743745801,2024-01-18 16h17.41.139542 -0500,
3,"[0, 0.2]",None,,,,,0,13,13,13,,,,,1871.4630215999787,,,,,,,,,,,,,,,,,,,,,,,,,,,,,,,,,,,,,,,,,,,,,,1871.4479263999965,1871.4630215999787,1871.4630215999787,1871.9632906999905,1871.9632906999905,1874.4631501999975,1874.4631501999975,1874.4471897999756,None,1,,,,,,,,,,,,,,,,,,,,,,,,,,nback60,001,2024-01-18_15h55.57.363,untitled,2023.2.3,59.95390743745801,2024-01-18 16h17.41.139542 -0500,
3,"[0, 0.2]",space,,,,,0,14,14,14,,,,,1874.4631501999975,,,,,,,,,,,,,,,,,,,,,,,,,,,,,,,,,,,,,,,,,,,,,,1874.4478380999935,1874.4631501999975,1874.4631501999975,1874.9630720999849,1874.9630720999849,1877.46298869999,1877.46298869999,1877.4474534000037,space,1,0.3724374000157695,None,,,,,,,,,,,,,,,,,,,,,,,,nback60,001,2024-01-18_15h55.57.363,untitled,2023.2.3,59.95390743745801,2024-01-18 16h17.41.139542 -0500,
8,"[-0.2, -0.1]",None,,,,,0,15,15,15,,,,,1877.46298869999,,,,,,,,,,,,,,,,,,,,,,,,,,,,,,,,,,,,,,,,,,,,,,1877.448378799978,1877.46298869999,1877.46298869999,1877.962993299996,1877.962993299996,1880.4629902000015,1880.4629902000015,1880.446680699999,None,1,,,,,,,,,,,,,,,,,,,,,,,,,,nback60,001,2024-01-18_15h55.57.363,untitled,2023.2.3,59.95390743745801,2024-01-18 16h17.41.139542 -0500,
1,"[-0.64, 0.4]",None,,,,,0,16,16,16,,,,,1880.4629902000015,,,,,,,,,,,,,,,,,,,,,,,,,,,,,,,,,,,,,,,,,,,,,,1880.4470060000021,1880.4629902000015,1880.4629902000015,1880.9629013999947,1880.9629013999947,1883.4628623999888,1883.4628623999888,1883.447208700003,None,1,,,,,,,,,,,,,,,,,,,,,,,,,,nback60,001,2024-01-18_15h55.57.363,untitled,2023.2.3,59.95390743745801,2024-01-18 16h17.41.139542 -0500,
2,"[0.64, 0.4]",None,,,,,0,17,17,17,,,,,1883.4628623999888,,,,,,,,,,,,,,,,,,,,,,,,,,,,,,,,,,,,,,,,,,,,,,1883.447966399981,1883.4628623999888,1883.4628623999888,1883.9630311999936,1883.9630311999936,1886.4628085999866,1886.4628085999866,1886.4470220999792,None,1,,,,,,,,,,,,,,,,,,,,,,,,,,nback60,001,2024-01-18_15h55.57.363,untitled,2023.2.3,59.95390743745801,2024-01-18 16h17.41.139542 -0500,
4,"[-0.2, 0.1]",None,,,,,0,18,18,18,,,,,1886.4628085999866,,,,,,,,,,,,,,,,,,,,,,,,,,,,,,,,,,,,,,,,,,,,,,1886.447704399994,1886.4628085999866,1886.4628085999866,1886.9629268999852,1886.9629268999852,1889.4627917000034,1889.4627917000034,1889.4470227999846,None,1,,,,,,,,,,,,,,,,,,,,,,,,,,nback60,001,2024-01-18_15h55.57.363,untitled,2023.2.3,59.95390743745801,2024-01-18 16h17.41.139542 -0500,
4,"[-0.2, 0.1]",space,,,,,0,19,19,19,,,,,1889.4627917000034,,,,,,,,,,,,,,,,,,,,,,,,,,,,,,,,,,,,,,,,,,,,,,1889.447689499997,1889.4627917000034,1889.4627917000034,1889.962808399985,1889.962808399985,1892.4627318999846,1892.4627318999846,1892.4468151999754,space,1,0.41098290000809357,None,,,,,,,,,,,,,,,,,,,,,,,,nback60,001,2024-01-18_15h55.57.363,untitled,2023.2.3,59.95390743745801,2024-01-18 16h17.41.139542 -0500,
8,"[-0.2, -0.1]",None,,,,,0,20,20,20,,,,,1892.4627318999846,,,,,,,,,,,,,,,,,,,,,,,,,,,,,,,,,,,,,,,,,,,,,,1892.4475998999842,1892.4627318999846,1892.4627318999846,1892.9629353999917,1892.9629353999917,1895.462706899998,1895.462706899998,1895.446630099992,None,1,,,,,,,,,,,,,,,,,,,,,,,,,,nback60,001,2024-01-18_15h55.57.363,untitled,2023.2.3,59.95390743745801,2024-01-18 16h17.41.139542 -0500,
5,"[0.2, 0.1]",None,,,,,0,21,21,21,,,,,1895.462706899998,,,,,,,,,,,,,,,,,,,,,,,,,,,,,,,,,,,,,,,,,,,,,,1895.4471794999845,1895.462706899998,1895.462706899998,1895.9627508999838,1895.9627508999838,1898.4627887999814,1898.4627887999814,1898.447078999976,None,1,,,,,,,,,,,,,,,,,,,,,,,,,,nback60,001,2024-01-18_15h55.57.363,untitled,2023.2.3,59.95390743745801,2024-01-18 16h17.41.139542 -0500,
5,"[0.2, 0.1]",space,,,,,0,22,22,22,,,,,1898.4627887999814,,,,,,,,,,,,,,,,,,,,,,,,,,,,,,,,,,,,,,,,,,,,,,1898.4478564999881,1898.4627887999814,1898.4627887999814,1898.9627931999858,1898.9627931999858,1901.462584199995,1901.462584199995,1901.447028900002,space,1,0.569462499988731,None,,,,,,,,,,,,,,,,,,,,,,,,nback60,001,2024-01-18_15h55.57.363,untitled,2023.2.3,59.95390743745801,2024-01-18 16h17.41.139542 -0500,
1,"[-0.64, 0.4]",None,,,,,0,23,23,23,,,,,1901.462584199995,,,,,,,,,,,,,,,,,,,,,,,,,,,,,,,,,,,,,,,,,,,,,,1901.4479773999774,1901.462584199995,1901.462584199995,1901.9626744999841,1901.9626744999841,1904.4625600999861,1904.4625600999861,1904.446713799989,None,1,,,,,,,,,,,,,,,,,,,,,,,,,,nback60,001,2024-01-18_15h55.57.363,untitled,2023.2.3,59.95390743745801,2024-01-18 16h17.41.139542 -0500,
3,"[0, 0.2]",None,,,,,0,24,24,24,,,,,1904.4625600999861,,,,,,,,,,,,,,,,,,,,,,,,,,,,,,,,,,,,,,,,,,,,,,1904.4474252999935,1904.4625600999861,1904.4625600999861,1904.9625589999778,1904.9625589999778,1907.4625224999909,1907.4625224999909,1907.4468656999816,None,1,,,,,,,,,,,,,,,,,,,,,,,,,,nback60,001,2024-01-18_15h55.57.363,untitled,2023.2.3,59.95390743745801,2024-01-18 16h17.41.139542 -0500,
6,"[-0.3, 0]",None,,,,,0,25,25,25,,,,,1907.4625224999909,,,,,,,,,,,,,,,,,,,,,,,,,,,,,,,,,,,,,,,,,,,,,,1907.4476611999853,1907.4625224999909,1907.4625224999909,1907.962491399987,1907.962491399987,1910.462450299994,1910.462450299994,1910.446480899991,None,1,,,,,,,,,,,,,,,,,,,,,,,,,,nback60,001,2024-01-18_15h55.57.363,untitled,2023.2.3,59.95390743745801,2024-01-18 16h17.41.139542 -0500,
1,"[-0.64, 0.4]",None,,,,,0,26,26,26,,,,,1910.462450299994,,,,,,,,,,,,,,,,,,,,,,,,,,,,,,,,,,,,,,,,,,,,,,1910.4469988999772,1910.462450299994,1910.462450299994,1910.9625662000035,1910.9625662000035,1913.462424999976,1913.462424999976,1913.4466778999777,None,1,,,,,,,,,,,,,,,,,,,,,,,,,,nback60,001,2024-01-18_15h55.57.363,untitled,2023.2.3,59.95390743745801,2024-01-18 16h17.41.139542 -0500,
1,"[-0.64, 0.4]",space,,,,,0,27,27,27,,,,,1913.462424999976,,,,,,,,,,,,,,,,,,,,,,,,,,,,,,,,,,,,,,,,,,,,,,1913.4473760999972,1913.462424999976,1913.462424999976,1913.9626008999767,1913.9626008999767,1916.462398499978,1916.462398499978,1916.4464644999825,space,1,0.6437422999879345,None,,,,,,,,,,,,,,,,,,,,,,,,nback60,001,2024-01-18_15h55.57.363,untitled,2023.2.3,59.95390743745801,2024-01-18 16h17.41.139542 -0500,
1,"[-0.64, 0.4]",space,,,,,0,28,28,28,,,,,1916.462398499978,,,,,,,,,,,,,,,,,,,,,,,,,,,,,,,,,,,,,,,,,,,,,,1916.4473024999897,1916.462398499978,1916.462398499978,1916.9623459999857,1916.9623459999857,1919.4623100000026,1919.4623100000026,1919.4468067999987,None,0,,,,,,,,,,,,,,,,,,,,,,,,,,nback60,001,2024-01-18_15h55.57.363,untitled,2023.2.3,59.95390743745801,2024-01-18 16h17.41.139542 -0500,
3,"[0, 0.2]",None,,,,,0,29,29,29,,,,,1919.4623100000026,,,,,,,,,,,,,,,,,,,,,,,,,,,,,,,,,,,,,,,,,,,,,,1919.4476316999935,1919.4623100000026,1919.4623100000026,1919.9624276999966,1919.9624276999966,1922.4623038999853,1922.4623038999853,1922.446691499994,None,1,,,,,,,,,,,,,,,,,,,,,,,,,,nback60,001,2024-01-18_15h55.57.363,untitled,2023.2.3,59.95390743745801,2024-01-18 16h17.41.139542 -0500,
12,"[0.64, -0.4]",None,,,,,0,30,30,30,,,,,1922.4623038999853,,,,,,,,,,,,,,,,,,,,,,,,,,,,,,,,,,,,,,,,,,,,,,1922.4474632999918,1922.4623038999853,1922.4623038999853,1922.9622602000018,1922.9622602000018,1925.4621392999834,1925.4621392999834,1925.446474700002,None,1,,,,,,,,,,,,,,,,,,,,,,,,,,nback60,001,2024-01-18_15h55.57.363,untitled,2023.2.3,59.95390743745801,2024-01-18 16h17.41.139542 -0500,
12,"[0.64, -0.4]",space,,,,,0,31,31,31,,,,,1925.4621392999834,,,,,,,,,,,,,,,,,,,,,,,,,,,,,,,,,,,,,,,,,,,,,,1925.4471430999984,1925.4621392999834,1925.4621392999834,1925.9621536999766,1925.9621536999766,1928.4621037000034,1928.4621037000034,1928.4465503999963,space,1,0.629954199976055,None,,,,,,,,,,,,,,,,,,,,,,,,nback60,001,2024-01-18_15h55.57.363,untitled,2023.2.3,59.95390743745801,2024-01-18 16h17.41.139542 -0500,
2,"[0.64, 0.4]",None,,,,,0,32,32,32,,,,,1928.4621037000034,,,,,,,,,,,,,,,,,,,,,,,,,,,,,,,,,,,,,,,,,,,,,,1928.4475491999765,1928.4621037000034,1928.4621037000034,1928.9622636999993,1928.9622636999993,1931.4620574,1931.4620574,1931.446064799995,None,1,,,,,,,,,,,,,,,,,,,,,,,,,,nback60,001,2024-01-18_15h55.57.363,untitled,2023.2.3,59.95390743745801,2024-01-18 16h17.41.139542 -0500,
1,"[-0.64, 0.4]",None,,,,,0,33,33,33,,,,,1931.4620574,,,,,,,,,,,,,,,,,,,,,,,,,,,,,,,,,,,,,,,,,,,,,,1931.4466973999806,1931.4620574,1931.4620574,1931.9621078999771,1931.9621078999771,1934.4620730000024,1934.4620730000024,1934.4463201999897,None,1,,,,,,,,,,,,,,,,,,,,,,,,,,nback60,001,2024-01-18_15h55.57.363,untitled,2023.2.3,59.95390743745801,2024-01-18 16h17.41.139542 -0500,
7,"[0.3, 0]",None,,,,,0,34,34,34,,,,,1934.4620730000024,,,,,,,,,,,,,,,,,,,,,,,,,,,,,,,,,,,,,,,,,,,,,,1934.4470156999887,1934.4620730000024,1934.4620730000024,1934.9619575999968,1934.9619575999968,1937.4619535999955,1937.4619535999955,1937.4460980999866,None,1,,,,,,,,,,,,,,,,,,,,,,,,,,nback60,001,2024-01-18_15h55.57.363,untitled,2023.2.3,59.95390743745801,2024-01-18 16h17.41.139542 -0500,
7,"[0.3, 0]",space,,,,,0,35,35,35,,,,,1937.4619535999955,,,,,,,,,,,,,,,,,,,,,,,,,,,,,,,,,,,,,,,,,,,,,,1937.4467464999761,1937.4619535999955,1937.4619535999955,1937.9621152999753,1937.9621152999753,1940.4620033999963,1940.4620033999963,1940.4460569999937,space,1,0.5280655000242405,None,,,,,,,,,,,,,,,,,,,,,,,,nback60,001,2024-01-18_15h55.57.363,untitled,2023.2.3,59.95390743745801,2024-01-18 16h17.41.139542 -0500,
11,"[-0.64, -0.4]",None,,,,,0,36,36,36,,,,,1940.4620033999963,,,,,,,,,,,,,,,,,,,,,,,,,,,,,,,,,,,,,,,,,,,,,,1940.446755699988,1940.4620033999963,1940.4620033999963,1940.9620670999866,1940.9620670999866,1943.4617529999814,1943.4617529999814,1943.4459078999935,None,1,,,,,,,,,,,,,,,,,,,,,,,,,,nback60,001,2024-01-18_15h55.57.363,untitled,2023.2.3,59.95390743745801,2024-01-18 16h17.41.139542 -0500,
2,"[0.64, 0.4]",None,,,,,0,37,37,37,,,,,1943.4617529999814,,,,,,,,,,,,,,,,,,,,,,,,,,,,,,,,,,,,,,,,,,,,,,1943.4465511000017,1943.4617529999814,1943.4617529999814,1943.9619544000016,1943.9619544000016,1946.4620352999773,1946.4620352999773,1946.4462822999922,None,1,,,,,,,,,,,,,,,,,,,,,,,,,,nback60,001,2024-01-18_15h55.57.363,untitled,2023.2.3,59.95390743745801,2024-01-18 16h17.41.139542 -0500,
6,"[-0.3, 0]",None,,,,,0,38,38,38,,,,,1946.4620352999773,,,,,,,,,,,,,,,,,,,,,,,,,,,,,,,,,,,,,,,,,,,,,,1946.447112599999,1946.4620352999773,1946.4620352999773,1946.961843899975,1946.961843899975,1949.4619633999828,1949.4619633999828,1949.4462666999898,None,1,,,,,,,,,,,,,,,,,,,,,,,,,,nback60,001,2024-01-18_15h55.57.363,untitled,2023.2.3,59.95390743745801,2024-01-18 16h17.41.139542 -0500,
10,"[0, -0.2]",None,,,,,0,39,39,39,,,,,1949.4619633999828,,,,,,,,,,,,,,,,,,,,,,,,,,,,,,,,,,,,,,,,,,,,,,1949.447124999977,1949.4619633999828,1949.4619633999828,1949.9626835999952,1949.9626835999952,1952.461917299981,1952.461917299981,1952.4460760999937,None,1,,,,,,,,,,,,,,,,,,,,,,,,,,nback60,001,2024-01-18_15h55.57.363,untitled,2023.2.3,59.95390743745801,2024-01-18 16h17.41.139542 -0500,
,,,,,,,,,,,,,,,,,,,,,,,,,,,,,,,,,,,,,,,,,,,,,,,,,,,,,,,,,,,,,,,,,,,,,,,,,1952.4466485999874,1952.461917299981,1952.461917299981,2011.428831600002,space,58.9532880000188,None,,,,,,,,,,,,,,,,,nback60,001,2024-01-18_15h55.57.363,untitled,2023.2.3,59.95390743745801,2024-01-18 16h17.41.139542 -0500,
,"[0.2, 0.1]",None,,,,,,,,,0,0,0,0,2012.4440778999997,,,,,,,,,,,,,,,,,,,,,,,,2011.4288753999863,2011.4439992999833,2012.4440778999997,2012.4285884999845,,,,,,,,,,,,,,,,,,,,,,,,,,,,,,,,,,,,,,2012.4419673999946,2012.4440778999997,2012.4440778999997,2012.9440729999915,2012.9440729999915,2015.4438362999936,2015.4438362999936,2015.4278701999865,None,1,,,,,,,nback60,001,2024-01-18_15h55.57.363,untitled,2023.2.3,59.95390743745801,2024-01-18 16h17.41.139542 -0500,
,"[0.64, 0.4]",None,,,,,,,,,0,1,1,1,2015.4438362999936,,,,,,,,,,,,,,,,,,,,,,,,,,,,,,,,,,,,,,,,,,,,,,,,,,,,,,,,,,,,,,,,,2015.4284905999957,2015.4438362999936,2015.4438362999936,2015.9439563999767,2015.9439563999767,2018.4438673999975,2018.4438673999975,2018.4282712999848,None,1,,,,,,,nback60,001,2024-01-18_15h55.57.363,untitled,2023.2.3,59.95390743745801,2024-01-18 16h17.41.139542 -0500,
,"[-0.3, 0]",None,,,,,,,,,0,2,2,2,2018.4438673999975,,,,,,,,,,,,,,,,,,,,,,,,,,,,,,,,,,,,,,,,,,,,,,,,,,,,,,,,,,,,,,,,,2018.4291040999815,2018.4438673999975,2018.4438673999975,2018.9439037999837,2018.9439037999837,2021.443710099993,2021.443710099993,2021.4279755000025,None,1,,,,,,,nback60,001,2024-01-18_15h55.57.363,untitled,2023.2.3,59.95390743745801,2024-01-18 16h17.41.139542 -0500,
,"[0.2, -0.1]",None,,,,,,,,,0,3,3,3,2021.443710099993,,,,,,,,,,,,,,,,,,,,,,,,,,,,,,,,,,,,,,,,,,,,,,,,,,,,,,,,,,,,,,,,,2021.4286436999973,2021.443710099993,2021.443710099993,2021.9438454999763,2021.9438454999763,2024.4438163999876,2024.4438163999876,2024.4282082999998,None,1,,,,,,,nback60,001,2024-01-18_15h55.57.363,untitled,2023.2.3,59.95390743745801,2024-01-18 16h17.41.139542 -0500,
,"[0, 0.2]",None,,,,,,,,,0,4,4,4,2024.4438163999876,,,,,,,,,,,,,,,,,,,,,,,,,,,,,,,,,,,,,,,,,,,,,,,,,,,,,,,,,,,,,,,,,2024.4290190000029,2024.4438163999876,2024.4438163999876,2024.943664899998,2024.943664899998,2027.4435291999835,2027.4435291999835,2027.4280074999842,None,1,,,,,,,nback60,001,2024-01-18_15h55.57.363,untitled,2023.2.3,59.95390743745801,2024-01-18 16h17.41.139542 -0500,
,"[0.2, -0.1]",space,,,,,,,,,0,5,5,5,2027.4435291999835,,,,,,,,,,,,,,,,,,,,,,,,,,,,,,,,,,,,,,,,,,,,,,,,,,,,,,,,,,,,,,,,,2027.428714299982,2027.4435291999835,2027.4435291999835,2027.9435793999874,2027.9435793999874,2030.443679399992,2030.443679399992,2030.4276389000006,space,1,0.8282302999868989,None,,,,,nback60,001,2024-01-18_15h55.57.363,untitled,2023.2.3,59.95390743745801,2024-01-18 16h17.41.139542 -0500,
,"[0, -0.2]",None,,,,,,,,,0,6,6,6,2030.443679399992,,,,,,,,,,,,,,,,,,,,,,,,,,,,,,,,,,,,,,,,,,,,,,,,,,,,,,,,,,,,,,,,,2030.4284832999983,2030.443679399992,2030.443679399992,2030.9438556999958,2030.9438556999958,2033.4436791999906,2033.4436791999906,2033.4278949,None,1,,,,,,,nback60,001,2024-01-18_15h55.57.363,untitled,2023.2.3,59.95390743745801,2024-01-18 16h17.41.139542 -0500,
,"[0.64, -0.4]",None,,,,,,,,,0,7,7,7,2033.4436791999906,,,,,,,,,,,,,,,,,,,,,,,,,,,,,,,,,,,,,,,,,,,,,,,,,,,,,,,,,,,,,,,,,2033.4286042999884,2033.4436791999906,2033.4436791999906,2033.9437429999816,2033.9437429999816,2036.443763999996,2036.443763999996,2036.4277449999936,None,1,,,,,,,nback60,001,2024-01-18_15h55.57.363,untitled,2023.2.3,59.95390743745801,2024-01-18 16h17.41.139542 -0500,
,"[0.3, 0]",None,,,,,,,,,0,8,8,8,2036.443763999996,,,,,,,,,,,,,,,,,,,,,,,,,,,,,,,,,,,,,,,,,,,,,,,,,,,,,,,,,,,,,,,,,2036.4284014999866,2036.443763999996,2036.443763999996,2036.9436517999857,2036.9436517999857,2039.4436869999918,2039.4436869999918,2039.427734500001,None,1,,,,,,,nback60,001,2024-01-18_15h55.57.363,untitled,2023.2.3,59.95390743745801,2024-01-18 16h17.41.139542 -0500,
,"[0.64, -0.4]",space,,,,,,,,,0,9,9,9,2039.4436869999918,,,,,,,,,,,,,,,,,,,,,,,,,,,,,,,,,,,,,,,,,,,,,,,,,,,,,,,,,,,,,,,,,2039.4283968999807,2039.4436869999918,2039.4436869999918,2039.943665400002,2039.943665400002,2042.4431971999875,2042.4431971999875,2042.427751899988,space,1,0.7169652000011411,None,,,,,nback60,001,2024-01-18_15h55.57.363,untitled,2023.2.3,59.95390743745801,2024-01-18 16h17.41.139542 -0500,
,"[-0.64, 0.4]",None,,,,,,,,,0,10,10,10,2042.4431971999875,,,,,,,,,,,,,,,,,,,,,,,,,,,,,,,,,,,,,,,,,,,,,,,,,,,,,,,,,,,,,,,,,2042.4284099999932,2042.4431971999875,2042.4431971999875,2042.943394699978,2042.943394699978,2045.443487499986,2045.443487499986,2045.427511099988,None,1,,,,,,,nback60,001,2024-01-18_15h55.57.363,untitled,2023.2.3,59.95390743745801,2024-01-18 16h17.41.139542 -0500,
,"[0.2, 0.1]",None,,,,,,,,,0,11,11,11,2045.443487499986,,,,,,,,,,,,,,,,,,,,,,,,,,,,,,,,,,,,,,,,,,,,,,,,,,,,,,,,,,,,,,,,,2045.4280886999913,2045.443487499986,2045.443487499986,2045.943440299976,2045.943440299976,2048.4433882999874,2048.4433882999874,2048.4274242999963,None,1,,,,,,,nback60,001,2024-01-18_15h55.57.363,untitled,2023.2.3,59.95390743745801,2024-01-18 16h17.41.139542 -0500,
,"[0.3, 0]",None,,,,,,,,,0,12,12,12,2048.4433882999874,,,,,,,,,,,,,,,,,,,,,,,,,,,,,,,,,,,,,,,,,,,,,,,,,,,,,,,,,,,,,,,,,2048.4280306999863,2048.4433882999874,2048.4433882999874,2048.9432639000006,2048.9432639000006,2051.4434401000035,2051.4434401000035,2051.427650799975,None,1,,,,,,,nback60,001,2024-01-18_15h55.57.363,untitled,2023.2.3,59.95390743745801,2024-01-18 16h17.41.139542 -0500,
,"[0.2, 0.1]",space,,,,,,,,,0,13,13,13,2051.4434401000035,,,,,,,,,,,,,,,,,,,,,,,,,,,,,,,,,,,,,,,,,,,,,,,,,,,,,,,,,,,,,,,,,2051.4283761999977,2051.4434401000035,2051.4434401000035,2051.943309800001,2051.943309800001,2054.4431999999797,2054.4431999999797,2054.4277085999784,space,1,1.1191642999765463,None,,,,,nback60,001,2024-01-18_15h55.57.363,untitled,2023.2.3,59.95390743745801,2024-01-18 16h17.41.139542 -0500,
,"[-0.3, 0]",None,,,,,,,,,0,14,14,14,2054.4431999999797,,,,,,,,,,,,,,,,,,,,,,,,,,,,,,,,,,,,,,,,,,,,,,,,,,,,,,,,,,,,,,,,,2054.428726699989,2054.4431999999797,2054.4431999999797,2054.9432390999864,2054.9432390999864,2057.4432274999854,2057.4432274999854,2057.4277391999785,None,1,,,,,,,nback60,001,2024-01-18_15h55.57.363,untitled,2023.2.3,59.95390743745801,2024-01-18 16h17.41.139542 -0500,
,"[0, 0.2]",None,,,,,,,,,0,15,15,15,2057.4432274999854,,,,,,,,,,,,,,,,,,,,,,,,,,,,,,,,,,,,,,,,,,,,,,,,,,,,,,,,,,,,,,,,,2057.428471499996,2057.4432274999854,2057.4432274999854,2057.9432688999805,2057.9432688999805,2060.4430964999774,2060.4430964999774,2060.4273391999886,None,1,,,,,,,nback60,001,2024-01-18_15h55.57.363,untitled,2023.2.3,59.95390743745801,2024-01-18 16h17.41.139542 -0500,
,"[-0.3, 0]",space,,,,,,,,,0,16,16,16,2060.4430964999774,,,,,,,,,,,,,,,,,,,,,,,,,,,,,,,,,,,,,,,,,,,,,,,,,,,,,,,,,,,,,,,,,2060.4279946000024,2060.4430964999774,2060.4430964999774,2060.9431813999836,2060.9431813999836,2063.442975999991,2063.442975999991,2063.427490699978,space,1,0.9009311000118032,None,,,,,nback60,001,2024-01-18_15h55.57.363,untitled,2023.2.3,59.95390743745801,2024-01-18 16h17.41.139542 -0500,
,"[-0.64, -0.4]",None,,,,,,,,,0,17,17,17,2063.442975999991,,,,,,,,,,,,,,,,,,,,,,,,,,,,,,,,,,,,,,,,,,,,,,,,,,,,,,,,,,,,,,,,,2063.428450599982,2063.442975999991,2063.442975999991,2063.943153400003,2063.943153400003,2066.4431155999773,2066.4431155999773,2066.4274217999773,None,1,,,,,,,nback60,001,2024-01-18_15h55.57.363,untitled,2023.2.3,59.95390743745801,2024-01-18 16h17.41.139542 -0500,
,"[-0.2, -0.1]",None,,,,,,,,,0,18,18,18,2066.4431155999773,,,,,,,,,,,,,,,,,,,,,,,,,,,,,,,,,,,,,,,,,,,,,,,,,,,,,,,,,,,,,,,,,2066.4282428000006,2066.4431155999773,2066.4431155999773,2066.943130699976,2066.943130699976,2069.4430416999967,2069.4430416999967,2069.4274340999837,None,1,,,,,,,nback60,001,2024-01-18_15h55.57.363,untitled,2023.2.3,59.95390743745801,2024-01-18 16h17.41.139542 -0500,
,"[0.2, -0.1]",None,,,,,,,,,0,19,19,19,2069.4430416999967,,,,,,,,,,,,,,,,,,,,,,,,,,,,,,,,,,,,,,,,,,,,,,,,,,,,,,,,,,,,,,,,,2069.428308200004,2069.4430416999967,2069.4430416999967,2069.9430600999913,2069.9430600999913,2072.4428400000033,2072.4428400000033,2072.427227099979,None,1,,,,,,,nback60,001,2024-01-18_15h55.57.363,untitled,2023.2.3,59.95390743745801,2024-01-18 16h17.41.139542 -0500,
,"[0.2, -0.1]",None,,,,,,,,,0,20,20,20,2072.4428400000033,,,,,,,,,,,,,,,,,,,,,,,,,,,,,,,,,,,,,,,,,,,,,,,,,,,,,,,,,,,,,,,,,2072.427879499999,2072.4428400000033,2072.4428400000033,2072.9428688999906,2072.9428688999906,2075.442934999999,2075.442934999999,2075.4270395999774,None,1,,,,,,,nback60,001,2024-01-18_15h55.57.363,untitled,2023.2.3,59.95390743745801,2024-01-18 16h17.41.139542 -0500,
,"[-0.64, 0.4]",None,,,,,,,,,0,21,21,21,2075.442934999999,,,,,,,,,,,,,,,,,,,,,,,,,,,,,,,,,,,,,,,,,,,,,,,,,,,,,,,,,,,,,,,,,2075.427714199992,2075.442934999999,2075.442934999999,2075.942885800003,2075.942885800003,2078.442874899978,2078.442874899978,2078.4274216999765,None,1,,,,,,,nback60,001,2024-01-18_15h55.57.363,untitled,2023.2.3,59.95390743745801,2024-01-18 16h17.41.139542 -0500,
,"[0, 0.2]",None,,,,,,,,,0,22,22,22,2078.442874899978,,,,,,,,,,,,,,,,,,,,,,,,,,,,,,,,,,,,,,,,,,,,,,,,,,,,,,,,,,,,,,,,,2078.4282497999957,2078.442874899978,2078.442874899978,2078.9427991999837,2078.9427991999837,2081.4427179999766,2081.4427179999766,2081.426723199984,None,1,,,,,,,nback60,001,2024-01-18_15h55.57.363,untitled,2023.2.3,59.95390743745801,2024-01-18 16h17.41.139542 -0500,
,"[0.64, -0.4]",None,,,,,,,,,0,23,23,23,2081.4427179999766,,,,,,,,,,,,,,,,,,,,,,,,,,,,,,,,,,,,,,,,,,,,,,,,,,,,,,,,,,,,,,,,,2081.427408699994,2081.4427179999766,2081.4427179999766,2081.9428361000028,2081.9428361000028,2084.4427893999964,2084.4427893999964,2084.4272303000034,None,1,,,,,,,nback60,001,2024-01-18_15h55.57.363,untitled,2023.2.3,59.95390743745801,2024-01-18 16h17.41.139542 -0500,
,"[0, 0.2]",space,,,,,,,,,0,24,24,24,2084.4427893999964,,,,,,,,,,,,,,,,,,,,,,,,,,,,,,,,,,,,,,,,,,,,,,,,,,,,,,,,,,,,,,,,,2084.4280372999783,2084.4427893999964,2084.4427893999964,2084.942552099994,2084.942552099994,2087.4428912999865,2087.4428912999865,2087.426883099979,space,1,0.7838173000200186,None,,,,,nback60,001,2024-01-18_15h55.57.363,untitled,2023.2.3,59.95390743745801,2024-01-18 16h17.41.139542 -0500,
,"[-0.2, 0.1]",None,,,,,,,,,0,25,25,25,2087.4428912999865,,,,,,,,,,,,,,,,,,,,,,,,,,,,,,,,,,,,,,,,,,,,,,,,,,,,,,,,,,,,,,,,,2087.427681000001,2087.4428912999865,2087.4428912999865,2087.9426956999814,2087.9426956999814,2090.442637,2090.442637,2090.4269505999982,None,1,,,,,,,nback60,001,2024-01-18_15h55.57.363,untitled,2023.2.3,59.95390743745801,2024-01-18 16h17.41.139542 -0500,
,"[0.3, 0]",None,,,,,,,,,0,26,26,26,2090.442637,,,,,,,,,,,,,,,,,,,,,,,,,,,,,,,,,,,,,,,,,,,,,,,,,,,,,,,,,,,,,,,,,2090.427571099979,2090.442637,2090.442637,2090.942636699998,2090.942636699998,2093.442520199984,2093.442520199984,2093.4266125999857,None,1,,,,,,,nback60,001,2024-01-18_15h55.57.363,untitled,2023.2.3,59.95390743745801,2024-01-18 16h17.41.139542 -0500,
,"[-0.2, 0.1]",space,,,,,,,,,0,27,27,27,2093.442520199984,,,,,,,,,,,,,,,,,,,,,,,,,,,,,,,,,,,,,,,,,,,,,,,,,,,,,,,,,,,,,,,,,2093.4272139999957,2093.442520199984,2093.442520199984,2093.9426844999834,2093.9426844999834,2096.442623399984,2096.442623399984,2096.426693299989,space,1,0.7140562999993563,None,,,,,nback60,001,2024-01-18_15h55.57.363,untitled,2023.2.3,59.95390743745801,2024-01-18 16h17.41.139542 -0500,
,"[-0.2, 0.1]",None,,,,,,,,,0,28,28,28,2096.442623399984,,,,,,,,,,,,,,,,,,,,,,,,,,,,,,,,,,,,,,,,,,,,,,,,,,,,,,,,,,,,,,,,,2096.427443599998,2096.442623399984,2096.442623399984,2096.942548399995,2096.942548399995,2099.442523099977,2099.442523099977,2099.4266769999813,None,1,,,,,,,nback60,001,2024-01-18_15h55.57.363,untitled,2023.2.3,59.95390743745801,2024-01-18 16h17.41.139542 -0500,
,"[0.2, 0.1]",None,,,,,,,,,0,29,29,29,2099.442523099977,,,,,,,,,,,,,,,,,,,,,,,,,,,,,,,,,,,,,,,,,,,,,,,,,,,,,,,,,,,,,,,,,2099.427322000003,2099.442523099977,2099.442523099977,2099.9425224000006,2099.9425224000006,2102.442540899996,2102.442540899996,2102.4267659999896,None,1,,,,,,,nback60,001,2024-01-18_15h55.57.363,untitled,2023.2.3,59.95390743745801,2024-01-18 16h17.41.139542 -0500,
,"[-0.64, -0.4]",None,,,,,,,,,0,30,30,30,2102.442540899996,,,,,,,,,,,,,,,,,,,,,,,,,,,,,,,,,,,,,,,,,,,,,,,,,,,,,,,,,,,,,,,,,2102.4273823999974,2102.442540899996,2102.442540899996,2102.942539699987,2102.942539699987,2105.4422770999954,2105.4422770999954,2105.426394399983,None,1,,,,,,,nback60,001,2024-01-18_15h55.57.363,untitled,2023.2.3,59.95390743745801,2024-01-18 16h17.41.139542 -0500,
,"[0, -0.2]",None,,,,,,,,,0,31,31,31,2105.4422770999954,,,,,,,,,,,,,,,,,,,,,,,,,,,,,,,,,,,,,,,,,,,,,,,,,,,,,,,,,,,,,,,,,2105.426993399975,2105.4422770999954,2105.4422770999954,2105.942327099998,2105.942327099998,2108.442304299999,2108.442304299999,2108.4265865999914,None,1,,,,,,,nback60,001,2024-01-18_15h55.57.363,untitled,2023.2.3,59.95390743745801,2024-01-18 16h17.41.139542 -0500,
,"[-0.64, -0.4]",space,,,,,,,,,0,32,32,32,2108.442304299999,,,,,,,,,,,,,,,,,,,,,,,,,,,,,,,,,,,,,,,,,,,,,,,,,,,,,,,,,,,,,,,,,2108.427260700002,2108.442304299999,2108.442304299999,2108.9424005999754,2108.9424005999754,2111.4423473999777,2111.4423473999777,2111.426810099976,space,1,0.9536311000119895,None,,,,,nback60,001,2024-01-18_15h55.57.363,untitled,2023.2.3,59.95390743745801,2024-01-18 16h17.41.139542 -0500,
,"[0.64, 0.4]",None,,,,,,,,,0,33,33,33,2111.4423473999777,,,,,,,,,,,,,,,,,,,,,,,,,,,,,,,,,,,,,,,,,,,,,,,,,,,,,,,,,,,,,,,,,2111.427836099989,2111.4423473999777,2111.4423473999777,2111.9423486999876,2111.9423486999876,2114.442369700002,2114.442369700002,2114.4266474999895,None,1,,,,,,,nback60,001,2024-01-18_15h55.57.363,untitled,2023.2.3,59.95390743745801,2024-01-18 16h17.41.139542 -0500,
,"[-0.3, 0]",None,,,,,,,,,0,34,34,34,2114.442369700002,,,,,,,,,,,,,,,,,,,,,,,,,,,,,,,,,,,,,,,,,,,,,,,,,,,,,,,,,,,,,,,,,2114.427390500001,2114.442369700002,2114.442369700002,2114.9420150999795,2114.9420150999795,2117.4422129000013,2117.4422129000013,2117.4266971999896,None,1,,,,,,,nback60,001,2024-01-18_15h55.57.363,untitled,2023.2.3,59.95390743745801,2024-01-18 16h17.41.139542 -0500,
,"[0.3, 0]",None,,,,,,,,,0,35,35,35,2117.4422129000013,,,,,,,,,,,,,,,,,,,,,,,,,,,,,,,,,,,,,,,,,,,,,,,,,,,,,,,,,,,,,,,,,2117.427521799982,2117.4422129000013,2117.4422129000013,2117.942884899996,2117.942884899996,2120.442107399984,2120.442107399984,2120.426066099986,None,1,,,,,,,nback60,001,2024-01-18_15h55.57.363,untitled,2023.2.3,59.95390743745801,2024-01-18 16h17.41.139542 -0500,
,"[-0.3, 0]",space,,,,,,,,,0,36,36,36,2120.442107399984,,,,,,,,,,,,,,,,,,,,,,,,,,,,,,,,,,,,,,,,,,,,,,,,,,,,,,,,,,,,,,,,,2120.4266342999763,2120.442107399984,2120.442107399984,2120.942072399979,2120.942072399979,2123.4416665000026,2123.4416665000026,2123.425785200001,space,1,0.6205796000140253,None,,,,,nback60,001,2024-01-18_15h55.57.363,untitled,2023.2.3,59.95390743745801,2024-01-18 16h17.41.139542 -0500,
,"[0, -0.2]",None,,,,,,,,,0,37,37,37,2123.4416665000026,,,,,,,,,,,,,,,,,,,,,,,,,,,,,,,,,,,,,,,,,,,,,,,,,,,,,,,,,,,,,,,,,2123.426196799992,2123.4416665000026,2123.4416665000026,2123.9420553999953,2123.9420553999953,2126.441893099982,2126.441893099982,2126.4265576000034,None,1,,,,,,,nback60,001,2024-01-18_15h55.57.363,untitled,2023.2.3,59.95390743745801,2024-01-18 16h17.41.139542 -0500,
,"[0.3, 0]",None,,,,,,,,,0,38,38,38,2126.441893099982,,,,,,,,,,,,,,,,,,,,,,,,,,,,,,,,,,,,,,,,,,,,,,,,,,,,,,,,,,,,,,,,,2126.427377199987,2126.441893099982,2126.441893099982,2126.941909599991,2126.941909599991,2129.441895099997,2129.441895099997,2129.4261161999893,space,0,1.217333000007784,None,,,,,nback60,001,2024-01-18_15h55.57.363,untitled,2023.2.3,59.95390743745801,2024-01-18 16h17.41.139542 -0500,
,"[0.2, 0.1]",None,,,,,,,,,0,39,39,39,2129.441895099997,,,,,,,,,,,,,,,,,,,,,,,,,,,,,,,,,,,,,,,,,,,,,,,,,,,,,,,,,,,,,,,,,2129.426781499991,2129.441895099997,2129.441895099997,2129.9419237999828,2129.9419237999828,2132.4420221000037,2132.4420221000037,2132.4261994999833,None,1,,,,,,,nback60,001,2024-01-18_15h55.57.363,untitled,2023.2.3,59.95390743745801,2024-01-18 16h17.41.139542 -0500,
,,,,,,,,,,,,,,,,,,,,,,,,,,,,,,,,,,,,,,,,,,,,,,,,,,,,,,,,,,,,,,,,,,,,,,,,,,,,,,,,,,,,,,,,,,,,2132.4267030999763,2132.4420221000037,2135.441938199976,2135.426520499983,,,,,,,,
