square,location,corrAns,trials_0.thisRepN,trials_0.thisTrialN,trials_0.thisN,trials_0.thisIndex,trials_1.thisRepN,trials_1.thisTrialN,trials_1.thisN,trials_1.thisIndex,trials_2.thisRepN,trials_2.thisTrialN,trials_2.thisN,trials_2.thisIndex,thisRow.t,notes,Instructions.started,instructions.started,key_resp.started,inst_sq11.started,Instructions.stopped,key_resp.keys,key_resp.rt,key_resp.duration,All.started,sq_1.started,sq_2.started,sq_3.started,sq_4.started,sq_5.started,sq_6.started,sq_7.started,sq_8.started,sq_9.started,sq_10.started,sq_11.started,sq_12.started,All.stopped,Fixation.started,fixation_3.started,fixation_3.stopped,Fixation.stopped,N_back_0_Trial.started,target_square_0.started,response_0.started,fixation_0.started,target_square_0.stopped,fixation_0.stopped,N_back_0_Trial.stopped,response_0.keys,response_0.corr,Instructions_1.started,instructions_1.started,key_resp_1.started,Instructions_1.stopped,key_resp_1.keys,key_resp_1.rt,key_resp_1.duration,N_back_1_Trial.started,target_square_1.started,response_1.started,fixation_1.started,target_square_1.stopped,fixation_1.stopped,N_back_1_Trial.stopped,response_1.keys,response_1.corr,response_1.rt,response_1.duration,Instructions_2.started,instructions_2.started,key_resp_2.started,Instructions_2.stopped,key_resp_2.keys,key_resp_2.rt,key_resp_2.duration,N_back_2_trials.started,target_square_2.started,response_2.started,fixation_2.started,target_square_2.stopped,fixation_2.stopped,N_back_2_trials.stopped,response_2.keys,response_2.corr,response_2.rt,response_2.duration,End.started,thank_you.started,End.stopped,participant,session,date,expName,psychopyVersion,frameRate,expStart,Unnamed: 98
,,,,,,,,,,,,,,,,,0.0016647999873384,0.0043201999505981,0.0043201999505981,0.0043201999505981,1797.5069794999436,space,1797.4925233999966,None,,,,,,,,,,,,,,,,,,,,,,,,,,,,,,,,,,,,,,,,,,,,,,,,,,,,,,,,,,,,,,,,,,,nback72,1.0,2024-01-26_09h49.15.810,untitled,2023.2.3,60.05277434649995,2024-01-26 10h18.40.099126 -0500,
6.0,"[-0.3, 0]",None,0.0,0.0,0.0,0.0,,,,,,,,,1799.5297176999738,,,,,,,,,,1797.5070285999682,1797.5221515999874,1797.5221515999874,1797.5221515999874,1797.5221515999874,1797.5221515999874,1797.5221515999874,1797.5221515999874,1797.5221515999874,1797.5221515999874,1797.5221515999874,1797.5221515999874,1797.5221515999874,1798.5060385999968,1798.5060540999984,1798.5220888999756,1799.5297176999738,1799.5065603000112,1799.5273918999592,1799.5297176999738,1799.5297176999738,1800.0056035999442,1800.0388702999337,1802.5054985999595,1802.5224318999096,None,1.0,,,,,,,,,,,,,,,,,,,,,,,,,,,,,,,,,,,,,,,,nback72,1.0,2024-01-26_09h49.15.810,untitled,2023.2.3,60.05277434649995,2024-01-26 10h18.40.099126 -0500,
10.0,"[0, -0.2]",None,0.0,1.0,1.0,1.0,,,,,,,,,1802.538748299936,,,,,,,,,,,,,,,,,,,,,,,,,,,,1802.5235316999024,1802.538748299936,1802.538748299936,1803.0055675999029,1803.038813099964,1805.505500099971,1805.5222763000056,None,1.0,,,,,,,,,,,,,,,,,,,,,,,,,,,,,,,,,,,,,,,,nback72,1.0,2024-01-26_09h49.15.810,untitled,2023.2.3,60.05277434649995,2024-01-26 10h18.40.099126 -0500,
11.0,"[-0.64, -0.4]",space,0.0,2.0,2.0,2.0,,,,,,,,,1805.5387761999157,,,,,,,,,,,,,,,,,,,,,,,,,,,,1805.5231391999405,1805.5387761999157,1805.5387761999157,1806.005449499935,1806.0388642000037,1808.5053257999243,1808.5220501999136,None,0.0,,,,,,,,,,,,,,,,,,,,,,,,,,,,,,,,,,,,,,,,nback72,1.0,2024-01-26_09h49.15.810,untitled,2023.2.3,60.05277434649995,2024-01-26 10h18.40.099126 -0500,
12.0,"[0.64, -0.4]",None,0.0,3.0,3.0,3.0,,,,,,,,,1808.538741700002,,,,,,,,,,,,,,,,,,,,,,,,,,,,1808.5228340999456,1808.538741700002,1808.538741700002,1809.0053676000095,1809.0387159999227,1811.505442900001,1811.5221940999616,None,1.0,,,,,,,,,,,,,,,,,,,,,,,,,,,,,,,,,,,,,,,,nback72,1.0,2024-01-26_09h49.15.810,untitled,2023.2.3,60.05277434649995,2024-01-26 10h18.40.099126 -0500,
1.0,"[-0.64, 0.4]",None,0.0,4.0,4.0,4.0,,,,,,,,,1811.5386767999732,,,,,,,,,,,,,,,,,,,,,,,,,,,,1811.5230785999447,1811.5386767999732,1811.5386767999732,1812.005409699981,1812.038715899922,1814.505170099903,1814.5220002999995,None,1.0,,,,,,,,,,,,,,,,,,,,,,,,,,,,,,,,,,,,,,,,nback72,1.0,2024-01-26_09h49.15.810,untitled,2023.2.3,60.05277434649995,2024-01-26 10h18.40.099126 -0500,
1.0,"[-0.64, 0.4]",None,0.0,5.0,5.0,5.0,,,,,,,,,1814.5386381999124,,,,,,,,,,,,,,,,,,,,,,,,,,,,1814.522789199953,1814.5386381999124,1814.5386381999124,1815.0052946999203,1815.0385146999035,1817.5052726999857,1817.5221584999235,None,1.0,,,,,,,,,,,,,,,,,,,,,,,,,,,,,,,,,,,,,,,,nback72,1.0,2024-01-26_09h49.15.810,untitled,2023.2.3,60.05277434649995,2024-01-26 10h18.40.099126 -0500,
4.0,"[-0.2, 0.1]",None,0.0,6.0,6.0,6.0,,,,,,,,,1817.5384102999235,,,,,,,,,,,,,,,,,,,,,,,,,,,,1817.5230150999269,1817.5384102999235,1817.5384102999235,1818.0052902000025,1818.038552999962,1820.5052412999796,1820.5220326000128,None,1.0,,,,,,,,,,,,,,,,,,,,,,,,,,,,,,,,,,,,,,,,nback72,1.0,2024-01-26_09h49.15.810,untitled,2023.2.3,60.05277434649995,2024-01-26 10h18.40.099126 -0500,
5.0,"[0.2, 0.1]",None,0.0,7.0,7.0,7.0,,,,,,,,,1820.538471799926,,,,,,,,,,,,,,,,,,,,,,,,,,,,1820.5229014999927,1820.538471799926,1820.538471799926,1821.0218255999496,1821.0385862999829,1823.521995499963,1823.5222135999936,None,1.0,,,,,,,,,,,,,,,,,,,,,,,,,,,,,,,,,,,,,,,,nback72,1.0,2024-01-26_09h49.15.810,untitled,2023.2.3,60.05277434649995,2024-01-26 10h18.40.099126 -0500,
11.0,"[-0.64, -0.4]",space,0.0,8.0,8.0,8.0,,,,,,,,,1823.538342099986,,,,,,,,,,,,,,,,,,,,,,,,,,,,1823.5230265000137,1823.538342099986,1823.538342099986,1824.0216041000092,1824.038359500002,1826.5219688999928,1826.522159699933,None,0.0,,,,,,,,,,,,,,,,,,,,,,,,,,,,,,,,,,,,,,,,nback72,1.0,2024-01-26_09h49.15.810,untitled,2023.2.3,60.05277434649995,2024-01-26 10h18.40.099126 -0500,
9.0,"[0.2, -0.1]",None,0.0,9.0,9.0,9.0,,,,,,,,,1826.538360300008,,,,,,,,,,,,,,,,,,,,,,,,,,,,1826.5230070999824,1826.538360300008,1826.538360300008,1827.004911899916,1827.038407899905,1829.5049574999136,1829.521627799957,None,1.0,,,,,,,,,,,,,,,,,,,,,,,,,,,,,,,,,,,,,,,,nback72,1.0,2024-01-26_09h49.15.810,untitled,2023.2.3,60.05277434649995,2024-01-26 10h18.40.099126 -0500,
8.0,"[-0.2, -0.1]",None,0.0,10.0,10.0,10.0,,,,,,,,,1829.5382955999808,,,,,,,,,,,,,,,,,,,,,,,,,,,,1829.5219650999643,1829.5382955999808,1829.5382955999808,1830.0216860999356,1830.0382809999865,1832.5215911999112,1832.5217395999932,None,1.0,,,,,,,,,,,,,,,,,,,,,,,,,,,,,,,,,,,,,,,,nback72,1.0,2024-01-26_09h49.15.810,untitled,2023.2.3,60.05277434649995,2024-01-26 10h18.40.099126 -0500,
9.0,"[0.2, -0.1]",None,0.0,11.0,11.0,11.0,,,,,,,,,1832.538118599914,,,,,,,,,,,,,,,,,,,,,,,,,,,,1832.5222546999576,1832.538118599914,1832.538118599914,1833.0215868999949,1833.038250499987,1835.5214274999453,1835.521585599985,None,1.0,,,,,,,,,,,,,,,,,,,,,,,,,,,,,,,,,,,,,,,,nback72,1.0,2024-01-26_09h49.15.810,untitled,2023.2.3,60.05277434649995,2024-01-26 10h18.40.099126 -0500,
6.0,"[-0.3, 0]",None,0.0,12.0,12.0,12.0,,,,,,,,,1835.5382335999748,,,,,,,,,,,,,,,,,,,,,,,,,,,,1835.5221921999475,1835.5382335999748,1835.5382335999748,1836.0213768999088,1836.0381438999905,1838.521582699963,1838.521782099968,None,1.0,,,,,,,,,,,,,,,,,,,,,,,,,,,,,,,,,,,,,,,,nback72,1.0,2024-01-26_09h49.15.810,untitled,2023.2.3,60.05277434649995,2024-01-26 10h18.40.099126 -0500,
9.0,"[0.2, -0.1]",None,0.0,13.0,13.0,13.0,,,,,,,,,1838.538248799974,,,,,,,,,,,,,,,,,,,,,,,,,,,,1838.5225678000131,1838.538248799974,1838.538248799974,1839.021625299938,1839.038182499935,1841.5212509999983,1841.521396899945,None,1.0,,,,,,,,,,,,,,,,,,,,,,,,,,,,,,,,,,,,,,,,nback72,1.0,2024-01-26_09h49.15.810,untitled,2023.2.3,60.05277434649995,2024-01-26 10h18.40.099126 -0500,
7.0,"[0.3, 0]",None,0.0,14.0,14.0,14.0,,,,,,,,,1841.538174199988,,,,,,,,,,,,,,,,,,,,,,,,,,,,1841.521990399924,1841.538174199988,1841.538174199988,1842.0213404999813,1842.0380558999025,1844.521460399963,1844.521672499948,None,1.0,,,,,,,,,,,,,,,,,,,,,,,,,,,,,,,,,,,,,,,,nback72,1.0,2024-01-26_09h49.15.810,untitled,2023.2.3,60.05277434649995,2024-01-26 10h18.40.099126 -0500,
2.0,"[0.64, 0.4]",None,0.0,15.0,15.0,15.0,,,,,,,,,1844.5380900999296,,,,,,,,,,,,,,,,,,,,,,,,,,,,1844.5225783999776,1844.5380900999296,1844.5380900999296,1845.0215628999283,1845.038040400017,1847.5214503000025,1847.5216629999925,None,1.0,,,,,,,,,,,,,,,,,,,,,,,,,,,,,,,,,,,,,,,,nback72,1.0,2024-01-26_09h49.15.810,untitled,2023.2.3,60.05277434649995,2024-01-26 10h18.40.099126 -0500,
2.0,"[0.64, 0.4]",None,0.0,16.0,16.0,16.0,,,,,,,,,1847.538082199986,,,,,,,,,,,,,,,,,,,,,,,,,,,,1847.5225493999897,1847.538082199986,1847.538082199986,1848.0214480999855,1848.0378685999892,1850.521312900004,1850.5215256999943,None,1.0,,,,,,,,,,,,,,,,,,,,,,,,,,,,,,,,,,,,,,,,nback72,1.0,2024-01-26_09h49.15.810,untitled,2023.2.3,60.05277434649995,2024-01-26 10h18.40.099126 -0500,
11.0,"[-0.64, -0.4]",space,0.0,17.0,17.0,17.0,,,,,,,,,1850.5380419999128,,,,,,,,,,,,,,,,,,,,,,,,,,,,1850.522373599932,1850.5380419999128,1850.5380419999128,1851.0213511999464,1851.037948000012,1853.521280199988,1853.521482600016,None,0.0,,,,,,,,,,,,,,,,,,,,,,,,,,,,,,,,,,,,,,,,nback72,1.0,2024-01-26_09h49.15.810,untitled,2023.2.3,60.05277434649995,2024-01-26 10h18.40.099126 -0500,
11.0,"[-0.64, -0.4]",space,0.0,18.0,18.0,18.0,,,,,,,,,1853.5379220999312,,,,,,,,,,,,,,,,,,,,,,,,,,,,1853.52229559992,1853.5379220999312,1853.5379220999312,1854.021167899948,1854.0378401000053,1856.5212147999555,1856.521406300017,None,0.0,,,,,,,,,,,,,,,,,,,,,,,,,,,,,,,,,,,,,,,,nback72,1.0,2024-01-26_09h49.15.810,untitled,2023.2.3,60.05277434649995,2024-01-26 10h18.40.099126 -0500,
7.0,"[0.3, 0]",None,0.0,19.0,19.0,19.0,,,,,,,,,1856.5377282999689,,,,,,,,,,,,,,,,,,,,,,,,,,,,1856.522180699976,1856.5377282999689,1856.5377282999689,1857.0212360000005,1857.0376108000053,1859.5211356999357,1859.521340999985,None,1.0,,,,,,,,,,,,,,,,,,,,,,,,,,,,,,,,,,,,,,,,nback72,1.0,2024-01-26_09h49.15.810,untitled,2023.2.3,60.05277434649995,2024-01-26 10h18.40.099126 -0500,
3.0,"[0, 0.2]",None,0.0,20.0,20.0,20.0,,,,,,,,,1859.538010799908,,,,,,,,,,,,,,,,,,,,,,,,,,,,1859.522176499944,1859.538010799908,1859.538010799908,1860.0212512,1860.037889799918,1862.5211931999077,1862.521389600006,None,1.0,,,,,,,,,,,,,,,,,,,,,,,,,,,,,,,,,,,,,,,,nback72,1.0,2024-01-26_09h49.15.810,untitled,2023.2.3,60.05277434649995,2024-01-26 10h18.40.099126 -0500,
10.0,"[0, -0.2]",None,0.0,21.0,21.0,21.0,,,,,,,,,1862.5376984999748,,,,,,,,,,,,,,,,,,,,,,,,,,,,1862.5221694000063,1862.5376984999748,1862.5376984999748,1863.0210173999656,1863.0376437999075,1865.5210094999056,1865.5212108999256,None,1.0,,,,,,,,,,,,,,,,,,,,,,,,,,,,,,,,,,,,,,,,nback72,1.0,2024-01-26_09h49.15.810,untitled,2023.2.3,60.05277434649995,2024-01-26 10h18.40.099126 -0500,
1.0,"[-0.64, 0.4]",None,0.0,22.0,22.0,22.0,,,,,,,,,1865.537674299907,,,,,,,,,,,,,,,,,,,,,,,,,,,,1865.5219943999543,1865.537674299907,1865.537674299907,1866.0209938999035,1866.0378593999196,1868.5210022999672,1868.5212173999755,None,1.0,,,,,,,,,,,,,,,,,,,,,,,,,,,,,,,,,,,,,,,,nback72,1.0,2024-01-26_09h49.15.810,untitled,2023.2.3,60.05277434649995,2024-01-26 10h18.40.099126 -0500,
2.0,"[0.64, 0.4]",None,0.0,23.0,23.0,23.0,,,,,,,,,1868.5376997999847,,,,,,,,,,,,,,,,,,,,,,,,,,,,1868.522031600005,1868.5376997999847,1868.5376997999847,1869.021132899914,1869.0376997999847,1871.521007100004,1871.5212228000164,None,1.0,,,,,,,,,,,,,,,,,,,,,,,,,,,,,,,,,,,,,,,,nback72,1.0,2024-01-26_09h49.15.810,untitled,2023.2.3,60.05277434649995,2024-01-26 10h18.40.099126 -0500,
6.0,"[-0.3, 0]",None,0.0,24.0,24.0,24.0,,,,,,,,,1871.5375021999932,,,,,,,,,,,,,,,,,,,,,,,,,,,,1871.5220680999337,1871.5375021999932,1871.5375021999932,1872.021002899972,1872.0375986999131,1874.5209420999745,1874.5211274999888,None,1.0,,,,,,,,,,,,,,,,,,,,,,,,,,,,,,,,,,,,,,,,nback72,1.0,2024-01-26_09h49.15.810,untitled,2023.2.3,60.05277434649995,2024-01-26 10h18.40.099126 -0500,
3.0,"[0, 0.2]",None,0.0,25.0,25.0,25.0,,,,,,,,,1874.5374391999796,,,,,,,,,,,,,,,,,,,,,,,,,,,,1874.521841699956,1874.5374391999796,1874.5374391999796,1875.020925699966,1875.037530499976,1877.5207575999664,1877.5209446999943,None,1.0,,,,,,,,,,,,,,,,,,,,,,,,,,,,,,,,,,,,,,,,nback72,1.0,2024-01-26_09h49.15.810,untitled,2023.2.3,60.05277434649995,2024-01-26 10h18.40.099126 -0500,
11.0,"[-0.64, -0.4]",space,0.0,26.0,26.0,26.0,,,,,,,,,1877.5373921999708,,,,,,,,,,,,,,,,,,,,,,,,,,,,1877.5217017999385,1877.5373921999708,1877.5373921999708,1878.0206472999416,1878.037384999916,1880.5207201999144,1880.520918599912,None,0.0,,,,,,,,,,,,,,,,,,,,,,,,,,,,,,,,,,,,,,,,nback72,1.0,2024-01-26_09h49.15.810,untitled,2023.2.3,60.05277434649995,2024-01-26 10h18.40.099126 -0500,
1.0,"[-0.64, 0.4]",None,0.0,27.0,27.0,27.0,,,,,,,,,1880.5374814999525,,,,,,,,,,,,,,,,,,,,,,,,,,,,1880.5217236999888,1880.5374814999525,1880.5374814999525,1881.020756599959,1881.0373935999812,1883.5209012000123,1883.5211137000008,None,1.0,,,,,,,,,,,,,,,,,,,,,,,,,,,,,,,,,,,,,,,,nback72,1.0,2024-01-26_09h49.15.810,untitled,2023.2.3,60.05277434649995,2024-01-26 10h18.40.099126 -0500,
3.0,"[0, 0.2]",None,0.0,28.0,28.0,28.0,,,,,,,,,1883.5373765999684,,,,,,,,,,,,,,,,,,,,,,,,,,,,1883.5219612999356,1883.5373765999684,1883.5373765999684,1884.0207355999155,1884.037310799933,1886.5206652999625,1886.5208764999409,None,1.0,,,,,,,,,,,,,,,,,,,,,,,,,,,,,,,,,,,,,,,,nback72,1.0,2024-01-26_09h49.15.810,untitled,2023.2.3,60.05277434649995,2024-01-26 10h18.40.099126 -0500,
9.0,"[0.2, -0.1]",None,0.0,29.0,29.0,29.0,,,,,,,,,1886.5373115999391,,,,,,,,,,,,,,,,,,,,,,,,,,,,1886.52174519992,1886.5373115999391,1886.5373115999391,1887.0207775000017,1887.037369199912,1889.5204828999704,1889.520609500003,None,1.0,,,,,,,,,,,,,,,,,,,,,,,,,,,,,,,,,,,,,,,,nback72,1.0,2024-01-26_09h49.15.810,untitled,2023.2.3,60.05277434649995,2024-01-26 10h18.40.099126 -0500,
8.0,"[-0.2, -0.1]",None,0.0,30.0,30.0,30.0,,,,,,,,,1889.5371417999268,,,,,,,,,,,,,,,,,,,,,,,,,,,,1889.5210717999144,1889.5371417999268,1889.5371417999268,1890.0206033999568,1890.0372870999852,1892.5205999999307,1892.5207911999896,None,1.0,,,,,,,,,,,,,,,,,,,,,,,,,,,,,,,,,,,,,,,,nback72,1.0,2024-01-26_09h49.15.810,untitled,2023.2.3,60.05277434649995,2024-01-26 10h18.40.099126 -0500,
12.0,"[0.64, -0.4]",None,0.0,31.0,31.0,31.0,,,,,,,,,1892.5371995000169,,,,,,,,,,,,,,,,,,,,,,,,,,,,1892.521537099965,1892.5371995000169,1892.5371995000169,1893.0205846999304,1893.037076200009,1895.5204921999248,1895.5206895999145,None,1.0,,,,,,,,,,,,,,,,,,,,,,,,,,,,,,,,,,,,,,,,nback72,1.0,2024-01-26_09h49.15.810,untitled,2023.2.3,60.05277434649995,2024-01-26 10h18.40.099126 -0500,
9.0,"[0.2, -0.1]",None,0.0,32.0,32.0,32.0,,,,,,,,,1895.5371813999957,,,,,,,,,,,,,,,,,,,,,,,,,,,,1895.5214944999896,1895.5371813999957,1895.5371813999957,1896.020581199904,1896.037172399927,1898.5204650999517,1898.520661799936,None,1.0,,,,,,,,,,,,,,,,,,,,,,,,,,,,,,,,,,,,,,,,nback72,1.0,2024-01-26_09h49.15.810,untitled,2023.2.3,60.05277434649995,2024-01-26 10h18.40.099126 -0500,
11.0,"[-0.64, -0.4]",space,0.0,33.0,33.0,33.0,,,,,,,,,1898.537164599984,,,,,,,,,,,,,,,,,,,,,,,,,,,,1898.5213494999332,1898.537164599984,1898.537164599984,1899.0204607999185,1899.037164999987,1901.520470099989,1901.520658699912,None,0.0,,,,,,,,,,,,,,,,,,,,,,,,,,,,,,,,,,,,,,,,nback72,1.0,2024-01-26_09h49.15.810,untitled,2023.2.3,60.05277434649995,2024-01-26 10h18.40.099126 -0500,
7.0,"[0.3, 0]",None,0.0,34.0,34.0,34.0,,,,,,,,,1901.5370238999603,,,,,,,,,,,,,,,,,,,,,,,,,,,,1901.521409299923,1901.5370238999603,1901.5370238999603,1902.02029539994,1902.0368828999344,1904.52031729999,1904.520556399948,None,1.0,,,,,,,,,,,,,,,,,,,,,,,,,,,,,,,,,,,,,,,,nback72,1.0,2024-01-26_09h49.15.810,untitled,2023.2.3,60.05277434649995,2024-01-26 10h18.40.099126 -0500,
11.0,"[-0.64, -0.4]",space,0.0,35.0,35.0,35.0,,,,,,,,,1904.5370410999749,,,,,,,,,,,,,,,,,,,,,,,,,,,,1904.5213366999524,1904.5370410999749,1904.5370410999749,1905.020197900012,1905.0368082999485,1907.5202863999875,1907.520474199904,None,0.0,,,,,,,,,,,,,,,,,,,,,,,,,,,,,,,,,,,,,,,,nback72,1.0,2024-01-26_09h49.15.810,untitled,2023.2.3,60.05277434649995,2024-01-26 10h18.40.099126 -0500,
4.0,"[-0.2, 0.1]",None,0.0,36.0,36.0,36.0,,,,,,,,,1907.5368193999168,,,,,,,,,,,,,,,,,,,,,,,,,,,,1907.5212296999523,1907.5368193999168,1907.5368193999168,1908.020417099935,1908.0369061999957,1910.5203498000049,1910.5205673999155,None,1.0,,,,,,,,,,,,,,,,,,,,,,,,,,,,,,,,,,,,,,,,nback72,1.0,2024-01-26_09h49.15.810,untitled,2023.2.3,60.05277434649995,2024-01-26 10h18.40.099126 -0500,
5.0,"[0.2, 0.1]",None,0.0,37.0,37.0,37.0,,,,,,,,,1910.5369675999973,,,,,,,,,,,,,,,,,,,,,,,,,,,,1910.521460399963,1910.5369675999973,1910.5369675999973,1911.020371099934,1911.03689889994,1913.5202673999595,1913.5204333999427,None,1.0,,,,,,,,,,,,,,,,,,,,,,,,,,,,,,,,,,,,,,,,nback72,1.0,2024-01-26_09h49.15.810,untitled,2023.2.3,60.05277434649995,2024-01-26 10h18.40.099126 -0500,
6.0,"[-0.3, 0]",None,0.0,38.0,38.0,38.0,,,,,,,,,1913.536715999944,,,,,,,,,,,,,,,,,,,,,,,,,,,,1913.521097799996,1913.536715999944,1913.536715999944,1914.0200778999133,1914.0367281999208,1916.5202803999416,1916.5204929999309,None,1.0,,,,,,,,,,,,,,,,,,,,,,,,,,,,,,,,,,,,,,,,nback72,1.0,2024-01-26_09h49.15.810,untitled,2023.2.3,60.05277434649995,2024-01-26 10h18.40.099126 -0500,
11.0,"[-0.64, -0.4]",space,0.0,39.0,39.0,39.0,,,,,,,,,1916.5367531999943,,,,,,,,,,,,,,,,,,,,,,,,,,,,1916.5213174999224,1916.5367531999943,1916.5367531999943,1917.0200141000096,1917.0366822999204,1919.5200732999947,1919.5202617999169,None,0.0,,,,,,,,,,,,,,,,,,,,,,,,,,,,,,,,,,,,,,,,nback72,1.0,2024-01-26_09h49.15.810,untitled,2023.2.3,60.05277434649995,2024-01-26 10h18.40.099126 -0500,
,,,,,,,,,,,,,,,,,,,,,,,,,,,,,,,,,,,,,,,,,,,,,,,,,,,,1919.5207912999904,1919.5368306000016,1919.5368306000016,1997.353262699908,space,77.8063797999639,None,,,,,,,,,,,,,,,,,,,,,,,,,,,,,,,,,nback72,1.0,2024-01-26_09h49.15.810,untitled,2023.2.3,60.05277434649995,2024-01-26 10h18.40.099126 -0500,
10.0,"[0, -0.2]",None,,,,,0.0,0.0,0.0,0.0,,,,,1998.3722575999564,,,,,,,,,,,,,,,,,,,,,,,,1997.3532959999284,1997.36872899998,1998.3722575999564,1998.3529440999264,,,,,,,,,,,,,,,,,1998.3704161999049,1998.3722575999564,1998.3722575999564,1998.8686174999457,1998.8853109999327,2001.36857349996,2001.3687283999752,None,1.0,,,,,,,,,,,,,,,,,,,,,,,,nback72,1.0,2024-01-26_09h49.15.810,untitled,2023.2.3,60.05277434649995,2024-01-26 10h18.40.099126 -0500,
5.0,"[0.2, 0.1]",None,,,,,0.0,1.0,1.0,1.0,,,,,2001.3852207999444,,,,,,,,,,,,,,,,,,,,,,,,,,,,,,,,,,,,,,,,,,,,2001.3694092999208,2001.3852207999444,2001.3852207999444,2001.8686686999863,2001.8851909999505,2004.368638099986,2004.3688146999336,None,1.0,,,,,,,,,,,,,,,,,,,,,,,,nback72,1.0,2024-01-26_09h49.15.810,untitled,2023.2.3,60.05277434649995,2024-01-26 10h18.40.099126 -0500,
6.0,"[-0.3, 0]",None,,,,,0.0,2.0,2.0,2.0,,,,,2004.3853518000103,,,,,,,,,,,,,,,,,,,,,,,,,,,,,,,,,,,,,,,,,,,,2004.369620799902,2004.3853518000103,2004.3853518000103,2004.868538599927,2004.885238399962,2007.3687680999285,2007.368967299932,None,1.0,,,,,,,,,,,,,,,,,,,,,,,,nback72,1.0,2024-01-26_09h49.15.810,untitled,2023.2.3,60.05277434649995,2024-01-26 10h18.40.099126 -0500,
6.0,"[-0.3, 0]",space,,,,,0.0,3.0,3.0,3.0,,,,,2007.3852104999823,,,,,,,,,,,,,,,,,,,,,,,,,,,,,,,,,,,,,,,,,,,,2007.369764399948,2007.3852104999823,2007.3852104999823,2007.8686779999407,2007.8852436000016,2010.3684688999783,2010.3686544999944,space,1.0,0.604128000093624,None,,,,,,,,,,,,,,,,,,,,,,nback72,1.0,2024-01-26_09h49.15.810,untitled,2023.2.3,60.05277434649995,2024-01-26 10h18.40.099126 -0500,
12.0,"[0.64, -0.4]",None,,,,,0.0,4.0,4.0,4.0,,,,,2010.3854773999192,,,,,,,,,,,,,,,,,,,,,,,,,,,,,,,,,,,,,,,,,,,,2010.369880400016,2010.3854773999192,2010.3854773999192,2010.868729199981,2010.8852837999584,2013.368446499924,2013.3686473999403,None,1.0,,,,,,,,,,,,,,,,,,,,,,,,nback72,1.0,2024-01-26_09h49.15.810,untitled,2023.2.3,60.05277434649995,2024-01-26 10h18.40.099126 -0500,
10.0,"[0, -0.2]",None,,,,,0.0,5.0,5.0,5.0,,,,,2013.3850141000005,,,,,,,,,,,,,,,,,,,,,,,,,,,,,,,,,,,,,,,,,,,,2013.3694405999267,2013.3850141000005,2013.3850141000005,2013.8682784999253,2013.8849926999535,2016.3684897999049,2016.3686695999927,space,0.0,0.4583025000756606,None,,,,,,,,,,,,,,,,,,,,,,nback72,1.0,2024-01-26_09h49.15.810,untitled,2023.2.3,60.05277434649995,2024-01-26 10h18.40.099126 -0500,
2.0,"[0.64, 0.4]",None,,,,,0.0,6.0,6.0,6.0,,,,,2016.3850840999512,,,,,,,,,,,,,,,,,,,,,,,,,,,,,,,,,,,,,,,,,,,,2016.3695232999744,2016.3850840999512,2016.3850840999512,2016.8684293999104,2016.8849650999764,2019.368332399987,2019.368537799921,None,1.0,,,,,,,,,,,,,,,,,,,,,,,,nback72,1.0,2024-01-26_09h49.15.810,untitled,2023.2.3,60.05277434649995,2024-01-26 10h18.40.099126 -0500,
9.0,"[0.2, -0.1]",None,,,,,0.0,7.0,7.0,7.0,,,,,2019.3849019999616,,,,,,,,,,,,,,,,,,,,,,,,,,,,,,,,,,,,,,,,,,,,2019.369238300016,2019.3849019999616,2019.3849019999616,2019.868554499932,2019.8849621999543,2022.3683059000175,2022.3685174999991,None,1.0,,,,,,,,,,,,,,,,,,,,,,,,nback72,1.0,2024-01-26_09h49.15.810,untitled,2023.2.3,60.05277434649995,2024-01-26 10h18.40.099126 -0500,
9.0,"[0.2, -0.1]",space,,,,,0.0,8.0,8.0,8.0,,,,,2022.38499609998,,,,,,,,,,,,,,,,,,,,,,,,,,,,,,,,,,,,,,,,,,,,2022.369339199969,2022.38499609998,2022.38499609998,2022.868374899961,2022.8849176999647,2025.3682552999817,2025.368466899963,space,1.0,0.4765245999442413,None,,,,,,,,,,,,,,,,,,,,,,nback72,1.0,2024-01-26_09h49.15.810,untitled,2023.2.3,60.05277434649995,2024-01-26 10h18.40.099126 -0500,
6.0,"[-0.3, 0]",None,,,,,0.0,9.0,9.0,9.0,,,,,2025.385018599918,,,,,,,,,,,,,,,,,,,,,,,,,,,,,,,,,,,,,,,,,,,,2025.3694959999996,2025.385018599918,2025.385018599918,2025.8682623999196,2025.8850186999189,2028.3682921999132,2028.3685205999063,space,0.0,0.8860957999713719,None,,,,,,,,,,,,,,,,,,,,,,nback72,1.0,2024-01-26_09h49.15.810,untitled,2023.2.3,60.05277434649995,2024-01-26 10h18.40.099126 -0500,
11.0,"[-0.64, -0.4]",None,,,,,0.0,10.0,10.0,10.0,,,,,2028.3848836999389,,,,,,,,,,,,,,,,,,,,,,,,,,,,,,,,,,,,,,,,,,,,2028.3695842999728,2028.3848836999389,2028.3848836999389,2028.8683732999489,2028.88473359996,2031.3680846999632,2031.3682784999253,None,1.0,,,,,,,,,,,,,,,,,,,,,,,,nback72,1.0,2024-01-26_09h49.15.810,untitled,2023.2.3,60.05277434649995,2024-01-26 10h18.40.099126 -0500,
11.0,"[-0.64, -0.4]",space,,,,,0.0,11.0,11.0,11.0,,,,,2031.3847681999905,,,,,,,,,,,,,,,,,,,,,,,,,,,,,,,,,,,,,,,,,,,,2031.369036199991,2031.3847681999905,2031.3847681999905,2031.868167900015,2031.884759199922,2034.3680754000088,2034.368266699952,space,1.0,0.482555599999614,None,,,,,,,,,,,,,,,,,,,,,,nback72,1.0,2024-01-26_09h49.15.810,untitled,2023.2.3,60.05277434649995,2024-01-26 10h18.40.099126 -0500,
4.0,"[-0.2, 0.1]",None,,,,,0.0,12.0,12.0,12.0,,,,,2034.3849186999723,,,,,,,,,,,,,,,,,,,,,,,,,,,,,,,,,,,,,,,,,,,,2034.3692401999144,2034.3849186999723,2034.3849186999723,2034.868197200005,2034.884779999964,2037.367939299904,2037.3681172999784,space,0.0,0.714980399934575,None,,,,,,,,,,,,,,,,,,,,,,nback72,1.0,2024-01-26_09h49.15.810,untitled,2023.2.3,60.05277434649995,2024-01-26 10h18.40.099126 -0500,
3.0,"[0, 0.2]",None,,,,,0.0,13.0,13.0,13.0,,,,,2037.3846949000144,,,,,,,,,,,,,,,,,,,,,,,,,,,,,,,,,,,,,,,,,,,,2037.368943599984,2037.3846949000144,2037.3846949000144,2037.8679100999143,2037.884457899956,2040.3680237999647,2040.368203399936,None,1.0,,,,,,,,,,,,,,,,,,,,,,,,nback72,1.0,2024-01-26_09h49.15.810,untitled,2023.2.3,60.05277434649995,2024-01-26 10h18.40.099126 -0500,
3.0,"[0, 0.2]",space,,,,,0.0,14.0,14.0,14.0,,,,,2040.384575099917,,,,,,,,,,,,,,,,,,,,,,,,,,,,,,,,,,,,,,,,,,,,2040.3689021000173,2040.384575099917,2040.384575099917,2040.8680224999555,2040.8845069999809,2043.3677865999048,2043.3679226000093,space,1.0,0.4908345999429002,None,,,,,,,,,,,,,,,,,,,,,,nback72,1.0,2024-01-26_09h49.15.810,untitled,2023.2.3,60.05277434649995,2024-01-26 10h18.40.099126 -0500,
8.0,"[-0.2, -0.1]",None,,,,,0.0,15.0,15.0,15.0,,,,,2043.3845050999664,,,,,,,,,,,,,,,,,,,,,,,,,,,,,,,,,,,,,,,,,,,,2043.3684897999049,2043.3845050999664,2043.3845050999664,2043.867926799925,2043.8847012999468,2046.3677811999803,2046.3679664999945,None,1.0,,,,,,,,,,,,,,,,,,,,,,,,nback72,1.0,2024-01-26_09h49.15.810,untitled,2023.2.3,60.05277434649995,2024-01-26 10h18.40.099126 -0500,
1.0,"[-0.64, 0.4]",None,,,,,0.0,16.0,16.0,16.0,,,,,2046.384552399977,,,,,,,,,,,,,,,,,,,,,,,,,,,,,,,,,,,,,,,,,,,,2046.3687206999168,2046.384552399977,2046.384552399977,2046.8678788999096,2046.8842884999467,2049.3678315000143,2049.3680281999987,None,1.0,,,,,,,,,,,,,,,,,,,,,,,,nback72,1.0,2024-01-26_09h49.15.810,untitled,2023.2.3,60.05277434649995,2024-01-26 10h18.40.099126 -0500,
2.0,"[0.64, 0.4]",None,,,,,0.0,17.0,17.0,17.0,,,,,2049.3845130999107,,,,,,,,,,,,,,,,,,,,,,,,,,,,,,,,,,,,,,,,,,,,2049.3688413999043,2049.3845130999107,2049.3845130999107,2049.867941799923,2049.884426399949,2052.3678337999154,2052.3680331999203,space,0.0,0.5006389999762177,None,,,,,,,,,,,,,,,,,,,,,,nback72,1.0,2024-01-26_09h49.15.810,untitled,2023.2.3,60.05277434649995,2024-01-26 10h18.40.099126 -0500,
4.0,"[-0.2, 0.1]",None,,,,,0.0,18.0,18.0,18.0,,,,,2052.384501499939,,,,,,,,,,,,,,,,,,,,,,,,,,,,,,,,,,,,,,,,,,,,2052.368956099963,2052.384501499939,2052.384501499939,2052.867728799931,2052.884287499939,2055.367702199961,2055.3678792999126,None,1.0,,,,,,,,,,,,,,,,,,,,,,,,nback72,1.0,2024-01-26_09h49.15.810,untitled,2023.2.3,60.05277434649995,2024-01-26 10h18.40.099126 -0500,
4.0,"[-0.2, 0.1]",space,,,,,0.0,19.0,19.0,19.0,,,,,2055.384362599929,,,,,,,,,,,,,,,,,,,,,,,,,,,,,,,,,,,,,,,,,,,,2055.368619799963,2055.384362599929,2055.384362599929,2055.867748999968,2055.884267999907,2058.3677434999263,2058.367939199903,space,1.0,0.7579614000860602,None,,,,,,,,,,,,,,,,,,,,,,nback72,1.0,2024-01-26_09h49.15.810,untitled,2023.2.3,60.05277434649995,2024-01-26 10h18.40.099126 -0500,
8.0,"[-0.2, -0.1]",None,,,,,0.0,20.0,20.0,20.0,,,,,2058.384411499952,,,,,,,,,,,,,,,,,,,,,,,,,,,,,,,,,,,,,,,,,,,,2058.368920499925,2058.384411499952,2058.384411499952,2058.867507699993,2058.8843485999387,2061.3674289999763,2061.367580299964,space,0.0,0.8292802999494597,None,,,,,,,,,,,,,,,,,,,,,,nback72,1.0,2024-01-26_09h49.15.810,untitled,2023.2.3,60.05277434649995,2024-01-26 10h18.40.099126 -0500,
5.0,"[0.2, 0.1]",None,,,,,0.0,21.0,21.0,21.0,,,,,2061.383882599999,,,,,,,,,,,,,,,,,,,,,,,,,,,,,,,,,,,,,,,,,,,,2061.3683539999183,2061.383882599999,2061.383882599999,2061.86761029996,2061.884205900016,2064.367552399985,2064.36774659995,space,0.0,1.1675049000186846,None,,,,,,,,,,,,,,,,,,,,,,nback72,1.0,2024-01-26_09h49.15.810,untitled,2023.2.3,60.05277434649995,2024-01-26 10h18.40.099126 -0500,
5.0,"[0.2, 0.1]",space,,,,,0.0,22.0,22.0,22.0,,,,,2064.38421509997,,,,,,,,,,,,,,,,,,,,,,,,,,,,,,,,,,,,,,,,,,,,2064.3686175999464,2064.38421509997,2064.38421509997,2064.867512699915,2064.8840831000125,2067.3675112999044,2067.367699699942,space,1.0,0.8398203999968246,None,,,,,,,,,,,,,,,,,,,,,,nback72,1.0,2024-01-26_09h49.15.810,untitled,2023.2.3,60.05277434649995,2024-01-26 10h18.40.099126 -0500,
1.0,"[-0.64, 0.4]",None,,,,,0.0,23.0,23.0,23.0,,,,,2067.384136199951,,,,,,,,,,,,,,,,,,,,,,,,,,,,,,,,,,,,,,,,,,,,2067.368643599912,2067.384136199951,2067.384136199951,2067.867325500003,2067.8842348000035,2070.367398799979,2070.367508800002,space,0.0,1.6652393999975177,None,,,,,,,,,,,,,,,,,,,,,,nback72,1.0,2024-01-26_09h49.15.810,untitled,2023.2.3,60.05277434649995,2024-01-26 10h18.40.099126 -0500,
3.0,"[0, 0.2]",None,,,,,0.0,24.0,24.0,24.0,,,,,2070.3839924999047,,,,,,,,,,,,,,,,,,,,,,,,,,,,,,,,,,,,,,,,,,,,2070.367920799996,2070.3839924999047,2070.3839924999047,2070.867365899961,2070.8839225999545,2073.3673061999725,2073.3674777999986,space,0.0,0.8619315000250936,None,,,,,,,,,,,,,,,,,,,,,,nback72,1.0,2024-01-26_09h49.15.810,untitled,2023.2.3,60.05277434649995,2024-01-26 10h18.40.099126 -0500,
6.0,"[-0.3, 0]",None,,,,,0.0,25.0,25.0,25.0,,,,,2073.3841542999726,,,,,,,,,,,,,,,,,,,,,,,,,,,,,,,,,,,,,,,,,,,,2073.368273,2073.3841542999726,2073.3841542999726,2073.867392199929,2073.883998699952,2076.367404699908,2076.3676142999902,space,0.0,1.3596582000609487,None,,,,,,,,,,,,,,,,,,,,,,nback72,1.0,2024-01-26_09h49.15.810,untitled,2023.2.3,60.05277434649995,2024-01-26 10h18.40.099126 -0500,
1.0,"[-0.64, 0.4]",None,,,,,0.0,26.0,26.0,26.0,,,,,2076.3838961999863,,,,,,,,,,,,,,,,,,,,,,,,,,,,,,,,,,,,,,,,,,,,2076.3685408999445,2076.3838961999863,2076.3838961999863,2076.8674641000107,2076.883994799922,2079.3673152999254,2079.3674913999857,space,0.0,0.6458219999913126,None,,,,,,,,,,,,,,,,,,,,,,nback72,1.0,2024-01-26_09h49.15.810,untitled,2023.2.3,60.05277434649995,2024-01-26 10h18.40.099126 -0500,
1.0,"[-0.64, 0.4]",space,,,,,0.0,27.0,27.0,27.0,,,,,2079.383979099919,,,,,,,,,,,,,,,,,,,,,,,,,,,,,,,,,,,,,,,,,,,,2079.368457100005,2079.383979099919,2079.383979099919,2079.8671465999214,2079.883889199933,2082.367438099929,2082.367608599947,space,1.0,0.758018400054425,None,,,,,,,,,,,,,,,,,,,,,,nback72,1.0,2024-01-26_09h49.15.810,untitled,2023.2.3,60.05277434649995,2024-01-26 10h18.40.099126 -0500,
1.0,"[-0.64, 0.4]",space,,,,,0.0,28.0,28.0,28.0,,,,,2082.3839391999645,,,,,,,,,,,,,,,,,,,,,,,,,,,,,,,,,,,,,,,,,,,,2082.3683810000075,2082.3839391999645,2082.3839391999645,2082.867344899918,2082.8840179999825,2085.367135999957,2085.3673143999185,space,1.0,0.6414495999924839,None,,,,,,,,,,,,,,,,,,,,,,nback72,1.0,2024-01-26_09h49.15.810,untitled,2023.2.3,60.05277434649995,2024-01-26 10h18.40.099126 -0500,
3.0,"[0, 0.2]",None,,,,,0.0,29.0,29.0,29.0,,,,,2085.3836874999106,,,,,,,,,,,,,,,,,,,,,,,,,,,,,,,,,,,,,,,,,,,,2085.368125899928,2085.3836874999106,2085.3836874999106,2085.867157200002,2085.8839434999973,2088.36726739991,2088.36746139999,space,0.0,0.7175113999983296,None,,,,,,,,,,,,,,,,,,,,,,nback72,1.0,2024-01-26_09h49.15.810,untitled,2023.2.3,60.05277434649995,2024-01-26 10h18.40.099126 -0500,
12.0,"[0.64, -0.4]",None,,,,,0.0,30.0,30.0,30.0,,,,,2088.383644599933,,,,,,,,,,,,,,,,,,,,,,,,,,,,,,,,,,,,,,,,,,,,2088.368407199974,2088.383644599933,2088.383644599933,2088.8671229999745,2088.8838247999083,2091.367181299953,2091.367379399948,space,0.0,1.4376128999283535,None,,,,,,,,,,,,,,,,,,,,,,nback72,1.0,2024-01-26_09h49.15.810,untitled,2023.2.3,60.05277434649995,2024-01-26 10h18.40.099126 -0500,
12.0,"[0.64, -0.4]",space,,,,,0.0,31.0,31.0,31.0,,,,,2091.383844799944,,,,,,,,,,,,,,,,,,,,,,,,,,,,,,,,,,,,,,,,,,,,2091.368325999938,2091.383844799944,2091.383844799944,2091.867059799959,2091.8837585999863,2094.3670502000023,2094.3672911999747,space,1.0,0.8003762000007555,None,,,,,,,,,,,,,,,,,,,,,,nback72,1.0,2024-01-26_09h49.15.810,untitled,2023.2.3,60.05277434649995,2024-01-26 10h18.40.099126 -0500,
2.0,"[0.64, 0.4]",None,,,,,0.0,32.0,32.0,32.0,,,,,2094.383672399912,,,,,,,,,,,,,,,,,,,,,,,,,,,,,,,,,,,,,,,,,,,,2094.3687359999167,2094.383672399912,2094.383672399912,2094.8668954999885,2094.8834579999093,2097.36700009997,2097.3672227999195,space,0.0,0.6444033000152558,None,,,,,,,,,,,,,,,,,,,,,,nback72,1.0,2024-01-26_09h49.15.810,untitled,2023.2.3,60.05277434649995,2024-01-26 10h18.40.099126 -0500,
1.0,"[-0.64, 0.4]",None,,,,,0.0,33.0,33.0,33.0,,,,,2097.383520999924,,,,,,,,,,,,,,,,,,,,,,,,,,,,,,,,,,,,,,,,,,,,2097.368180499994,2097.383520999924,2097.383520999924,2097.866978399921,2097.883537399932,2100.367006300017,2100.367221699911,space,0.0,0.6665663999738172,None,,,,,,,,,,,,,,,,,,,,,,nback72,1.0,2024-01-26_09h49.15.810,untitled,2023.2.3,60.05277434649995,2024-01-26 10h18.40.099126 -0500,
7.0,"[0.3, 0]",None,,,,,0.0,34.0,34.0,34.0,,,,,2100.383627999923,,,,,,,,,,,,,,,,,,,,,,,,,,,,,,,,,,,,,,,,,,,,2100.368246699916,2100.383627999923,2100.383627999923,2100.8670374999056,2100.883580899914,2103.3668316999683,2103.367008399917,None,1.0,,,,,,,,,,,,,,,,,,,,,,,,nback72,1.0,2024-01-26_09h49.15.810,untitled,2023.2.3,60.05277434649995,2024-01-26 10h18.40.099126 -0500,
7.0,"[0.3, 0]",space,,,,,0.0,35.0,35.0,35.0,,,,,2103.3835722999647,,,,,,,,,,,,,,,,,,,,,,,,,,,,,,,,,,,,,,,,,,,,2103.36774399993,2103.3835722999647,2103.3835722999647,2103.866914699902,2103.8834870000137,2106.3667942999164,2106.3669716999866,space,1.0,0.8070668000727892,None,,,,,,,,,,,,,,,,,,,,,,nback72,1.0,2024-01-26_09h49.15.810,untitled,2023.2.3,60.05277434649995,2024-01-26 10h18.40.099126 -0500,
11.0,"[-0.64, -0.4]",None,,,,,0.0,36.0,36.0,36.0,,,,,2106.383478499949,,,,,,,,,,,,,,,,,,,,,,,,,,,,,,,,,,,,,,,,,,,,2106.367815500009,2106.383478499949,2106.383478499949,2106.866810599924,2106.88316889992,2109.3668290999485,2109.367040999932,space,0.0,0.7810948999831453,None,,,,,,,,,,,,,,,,,,,,,,nback72,1.0,2024-01-26_09h49.15.810,untitled,2023.2.3,60.05277434649995,2024-01-26 10h18.40.099126 -0500,
2.0,"[0.64, 0.4]",None,,,,,0.0,37.0,37.0,37.0,,,,,2109.383384399931,,,,,,,,,,,,,,,,,,,,,,,,,,,,,,,,,,,,,,,,,,,,2109.368030500016,2109.383384399931,2109.383384399931,2109.866890199948,2109.8834807999665,2112.3668016999727,2112.366991399904,space,0.0,0.8416747999144718,None,,,,,,,,,,,,,,,,,,,,,,nback72,1.0,2024-01-26_09h49.15.810,untitled,2023.2.3,60.05277434649995,2024-01-26 10h18.40.099126 -0500,
6.0,"[-0.3, 0]",None,,,,,0.0,38.0,38.0,38.0,,,,,2112.3833955000155,,,,,,,,,,,,,,,,,,,,,,,,,,,,,,,,,,,,,,,,,,,,2112.367856399971,2112.3833955000155,2112.3833955000155,2112.8666558999103,2112.8832746999105,2115.3667801999254,2115.3669371999567,space,0.0,0.8157450000289828,None,,,,,,,,,,,,,,,,,,,,,,nback72,1.0,2024-01-26_09h49.15.810,untitled,2023.2.3,60.05277434649995,2024-01-26 10h18.40.099126 -0500,
10.0,"[0, -0.2]",None,,,,,0.0,39.0,39.0,39.0,,,,,2115.383394400007,,,,,,,,,,,,,,,,,,,,,,,,,,,,,,,,,,,,,,,,,,,,2115.3676602999917,2115.383394400007,2115.383394400007,2115.866741699981,2115.8832561000017,2118.366675199941,2118.3668770999648,space,0.0,0.8055597000056878,None,,,,,,,,,,,,,,,,,,,,,,nback72,1.0,2024-01-26_09h49.15.810,untitled,2023.2.3,60.05277434649995,2024-01-26 10h18.40.099126 -0500,
,,,,,,,,,,,,,,,,,,,,,,,,,,,,,,,,,,,,,,,,,,,,,,,,,,,,,,,,,,,,,,,,,,,,,,2118.367630499997,2118.3834569999017,2118.3834569999017,2179.6340345999924,space,61.23877589998301,None,,,,,,,,,,,,,,,nback72,1.0,2024-01-26_09h49.15.810,untitled,2023.2.3,60.05277434649995,2024-01-26 10h18.40.099126 -0500,
,"[0.2, 0.1]",None,,,,,,,,,0.0,0.0,0.0,0.0,2180.652157699922,,,,,,,,,,,,,,,,,,,,,,,,2179.6340925999684,2179.64883369999,2180.652157699922,2180.6332283999072,,,,,,,,,,,,,,,,,,,,,,,,,,,,,,,,,,,2180.650250399951,2180.652157699922,2180.652157699922,2181.148917799932,2181.1656135999365,2183.6488475999795,2183.6490643,None,1.0,,,,,,nback72,1.0,2024-01-26_09h49.15.810,untitled,2023.2.3,60.05277434649995,2024-01-26 10h18.40.099126 -0500,
,"[0.64, 0.4]",None,,,,,,,,,0.0,1.0,1.0,1.0,2183.6653805999085,,,,,,,,,,,,,,,,,,,,,,,,,,,,,,,,,,,,,,,,,,,,,,,,,,,,,,,,,,,,,,2183.650148099987,2183.6653805999085,2183.6653805999085,2184.148648299976,2184.1654585999204,2186.648826199933,2186.6490394999278,None,1.0,,,,,,nback72,1.0,2024-01-26_09h49.15.810,untitled,2023.2.3,60.05277434649995,2024-01-26 10h18.40.099126 -0500,
,"[-0.3, 0]",None,,,,,,,,,0.0,2.0,2.0,2.0,2186.6654844000004,,,,,,,,,,,,,,,,,,,,,,,,,,,,,,,,,,,,,,,,,,,,,,,,,,,,,,,,,,,,,,2186.6498662999365,2186.6654844000004,2186.6654844000004,2187.148734499933,2187.165428499924,2189.648668000009,2189.648852000013,None,1.0,,,,,,nback72,1.0,2024-01-26_09h49.15.810,untitled,2023.2.3,60.05277434649995,2024-01-26 10h18.40.099126 -0500,
,"[0.2, -0.1]",None,,,,,,,,,0.0,3.0,3.0,3.0,2189.665351899923,,,,,,,,,,,,,,,,,,,,,,,,,,,,,,,,,,,,,,,,,,,,,,,,,,,,,,,,,,,,,,2189.649569000001,2189.665351899923,2189.665351899923,2190.1486096999142,2190.165333700017,2192.648794999928,2192.649017299991,None,1.0,,,,,,nback72,1.0,2024-01-26_09h49.15.810,untitled,2023.2.3,60.05277434649995,2024-01-26 10h18.40.099126 -0500,
,"[0, 0.2]",None,,,,,,,,,0.0,4.0,4.0,4.0,2192.665483299992,,,,,,,,,,,,,,,,,,,,,,,,,,,,,,,,,,,,,,,,,,,,,,,,,,,,,,,,,,,,,,2192.649852399947,2192.665483299992,2192.665483299992,2193.148661699961,2193.1652700999985,2195.648589499993,2195.6487589000026,None,1.0,,,,,,nback72,1.0,2024-01-26_09h49.15.810,untitled,2023.2.3,60.05277434649995,2024-01-26 10h18.40.099126 -0500,
,"[0.2, -0.1]",space,,,,,,,,,0.0,5.0,5.0,5.0,2195.665177499992,,,,,,,,,,,,,,,,,,,,,,,,,,,,,,,,,,,,,,,,,,,,,,,,,,,,,,,,,,,,,,2195.649545299937,2195.665177499992,2195.665177499992,2196.14876599994,2196.1652982999803,2198.6485932999058,2198.6487947999267,space,1.0,0.8257454000413418,None,,,,nback72,1.0,2024-01-26_09h49.15.810,untitled,2023.2.3,60.05277434649995,2024-01-26 10h18.40.099126 -0500,
,"[0, -0.2]",None,,,,,,,,,0.0,6.0,6.0,6.0,2198.665266299969,,,,,,,,,,,,,,,,,,,,,,,,,,,,,,,,,,,,,,,,,,,,,,,,,,,,,,,,,,,,,,2198.6500392999733,2198.665266299969,2198.665266299969,2199.14862230001,2199.165235999972,2201.6484543000115,2201.648586999974,None,1.0,,,,,,nback72,1.0,2024-01-26_09h49.15.810,untitled,2023.2.3,60.05277434649995,2024-01-26 10h18.40.099126 -0500,
,"[0.64, -0.4]",None,,,,,,,,,0.0,7.0,7.0,7.0,2201.6650976999663,,,,,,,,,,,,,,,,,,,,,,,,,,,,,,,,,,,,,,,,,,,,,,,,,,,,,,,,,,,,,,2201.649058399955,2201.6650976999663,2201.6650976999663,2202.1484723999165,2202.1651609999826,2204.648537699948,2204.6487279,None,1.0,,,,,,nback72,1.0,2024-01-26_09h49.15.810,untitled,2023.2.3,60.05277434649995,2024-01-26 10h18.40.099126 -0500,
,"[0.3, 0]",None,,,,,,,,,0.0,8.0,8.0,8.0,2204.664988999953,,,,,,,,,,,,,,,,,,,,,,,,,,,,,,,,,,,,,,,,,,,,,,,,,,,,,,,,,,,,,,2204.649506599992,2204.664988999953,2204.664988999953,2205.1484683000017,2205.165205599973,2207.6484189999755,2207.648631899967,None,1.0,,,,,,nback72,1.0,2024-01-26_09h49.15.810,untitled,2023.2.3,60.05277434649995,2024-01-26 10h18.40.099126 -0500,
,"[0.64, -0.4]",space,,,,,,,,,0.0,9.0,9.0,9.0,2207.6651285999687,,,,,,,,,,,,,,,,,,,,,,,,,,,,,,,,,,,,,,,,,,,,,,,,,,,,,,,,,,,,,,2207.6494514999213,2207.6651285999687,2207.6651285999687,2208.148576800013,2208.16518599994,2210.648467299994,2210.6486759999534,space,1.0,0.6818347999360412,None,,,,nback72,1.0,2024-01-26_09h49.15.810,untitled,2023.2.3,60.05277434649995,2024-01-26 10h18.40.099126 -0500,
,"[-0.64, 0.4]",None,,,,,,,,,0.0,10.0,10.0,10.0,2210.665101199993,,,,,,,,,,,,,,,,,,,,,,,,,,,,,,,,,,,,,,,,,,,,,,,,,,,,,,,,,,,,,,2210.6496018999023,2210.665101199993,2210.665101199993,2211.1482690999983,2211.1649962000083,2213.648385999957,2213.648584099952,None,1.0,,,,,,nback72,1.0,2024-01-26_09h49.15.810,untitled,2023.2.3,60.05277434649995,2024-01-26 10h18.40.099126 -0500,
,"[0.2, 0.1]",None,,,,,,,,,0.0,11.0,11.0,11.0,2213.6650316999294,,,,,,,,,,,,,,,,,,,,,,,,,,,,,,,,,,,,,,,,,,,,,,,,,,,,,,,,,,,,,,2213.649363999953,2213.6650316999294,2213.6650316999294,2214.1483911999967,2214.165003699949,2216.6482949999627,2216.648504099925,None,1.0,,,,,,nback72,1.0,2024-01-26_09h49.15.810,untitled,2023.2.3,60.05277434649995,2024-01-26 10h18.40.099126 -0500,
,"[0.3, 0]",None,,,,,,,,,0.0,12.0,12.0,12.0,2216.664962399984,,,,,,,,,,,,,,,,,,,,,,,,,,,,,,,,,,,,,,,,,,,,,,,,,,,,,,,,,,,,,,2216.6493187999586,2216.664962399984,2216.664962399984,2217.148391399998,2217.1649645,2219.6481954999035,2219.648409999907,None,1.0,,,,,,nback72,1.0,2024-01-26_09h49.15.810,untitled,2023.2.3,60.05277434649995,2024-01-26 10h18.40.099126 -0500,
,"[0.2, 0.1]",space,,,,,,,,,0.0,13.0,13.0,13.0,2219.664720100001,,,,,,,,,,,,,,,,,,,,,,,,,,,,,,,,,,,,,,,,,,,,,,,,,,,,,,,,,,,,,,2219.6492980999174,2219.664720100001,2219.664720100001,2220.148223600001,2220.1649064999074,2222.6481445999816,2222.648352099932,space,1.0,1.1567780000623316,None,,,,nback72,1.0,2024-01-26_09h49.15.810,untitled,2023.2.3,60.05277434649995,2024-01-26 10h18.40.099126 -0500,
,"[-0.3, 0]",None,,,,,,,,,0.0,14.0,14.0,14.0,2222.664891299908,,,,,,,,,,,,,,,,,,,,,,,,,,,,,,,,,,,,,,,,,,,,,,,,,,,,,,,,,,,,,,2222.649335999973,2222.664891299908,2222.664891299908,2223.148276399937,2223.1647529999027,2225.648000099929,2225.648175499984,None,1.0,,,,,,nback72,1.0,2024-01-26_09h49.15.810,untitled,2023.2.3,60.05277434649995,2024-01-26 10h18.40.099126 -0500,
,"[0, 0.2]",None,,,,,,,,,0.0,15.0,15.0,15.0,2225.664911299944,,,,,,,,,,,,,,,,,,,,,,,,,,,,,,,,,,,,,,,,,,,,,,,,,,,,,,,,,,,,,,2225.6488553999225,2225.664911299944,2225.664911299944,2226.147987699951,2226.164804799948,2228.6480844999896,2228.648288999917,None,1.0,,,,,,nback72,1.0,2024-01-26_09h49.15.810,untitled,2023.2.3,60.05277434649995,2024-01-26 10h18.40.099126 -0500,
,"[-0.3, 0]",space,,,,,,,,,0.0,16.0,16.0,16.0,2228.66471729998,,,,,,,,,,,,,,,,,,,,,,,,,,,,,,,,,,,,,,,,,,,,,,,,,,,,,,,,,,,,,,2228.649134999956,2228.66471729998,2228.66471729998,2229.14798619994,2229.1647386999102,2231.647947499994,2231.648117500008,space,1.0,0.757634500041604,None,,,,nback72,1.0,2024-01-26_09h49.15.810,untitled,2023.2.3,60.05277434649995,2024-01-26 10h18.40.099126 -0500,
,"[-0.64, -0.4]",None,,,,,,,,,0.0,17.0,17.0,17.0,2231.6645745999413,,,,,,,,,,,,,,,,,,,,,,,,,,,,,,,,,,,,,,,,,,,,,,,,,,,,,,,,,,,,,,2231.648893399979,2231.6645745999413,2231.6645745999413,2232.148074199911,2232.1646661999403,2234.6478515999625,2234.648023599992,None,1.0,,,,,,nback72,1.0,2024-01-26_09h49.15.810,untitled,2023.2.3,60.05277434649995,2024-01-26 10h18.40.099126 -0500,
,"[-0.2, -0.1]",None,,,,,,,,,0.0,18.0,18.0,18.0,2234.664783899905,,,,,,,,,,,,,,,,,,,,,,,,,,,,,,,,,,,,,,,,,,,,,,,,,,,,,,,,,,,,,,2234.64872269996,2234.664783899905,2234.664783899905,2235.14792769996,2235.164282899932,2237.6478064999683,2237.6479865999427,None,1.0,,,,,,nback72,1.0,2024-01-26_09h49.15.810,untitled,2023.2.3,60.05277434649995,2024-01-26 10h18.40.099126 -0500,
,"[0.2, -0.1]",None,,,,,,,,,0.0,19.0,19.0,19.0,2237.6643722999142,,,,,,,,,,,,,,,,,,,,,,,,,,,,,,,,,,,,,,,,,,,,,,,,,,,,,,,,,,,,,,2237.648715799907,2237.6643722999142,2237.6643722999142,2238.1478251999943,2238.164549399982,2240.647786599933,2240.6479551999364,None,1.0,,,,,,nback72,1.0,2024-01-26_09h49.15.810,untitled,2023.2.3,60.05277434649995,2024-01-26 10h18.40.099126 -0500,
,"[0.2, -0.1]",None,,,,,,,,,0.0,20.0,20.0,20.0,2240.6643978999928,,,,,,,,,,,,,,,,,,,,,,,,,,,,,,,,,,,,,,,,,,,,,,,,,,,,,,,,,,,,,,2240.648539799964,2240.6643978999928,2240.6643978999928,2241.1477640999947,2241.164404599928,2243.6476997999707,2243.647900399985,None,1.0,,,,,,nback72,1.0,2024-01-26_09h49.15.810,untitled,2023.2.3,60.05277434649995,2024-01-26 10h18.40.099126 -0500,
,"[-0.64, 0.4]",None,,,,,,,,,0.0,21.0,21.0,21.0,2243.664360499941,,,,,,,,,,,,,,,,,,,,,,,,,,,,,,,,,,,,,,,,,,,,,,,,,,,,,,,,,,,,,,2243.648595299921,2243.664360499941,2243.664360499941,2244.1475473999744,2244.164438299951,2246.647797200014,2246.6479746999685,None,1.0,,,,,,nback72,1.0,2024-01-26_09h49.15.810,untitled,2023.2.3,60.05277434649995,2024-01-26 10h18.40.099126 -0500,
,"[0, 0.2]",None,,,,,,,,,0.0,22.0,22.0,22.0,2246.664277700009,,,,,,,,,,,,,,,,,,,,,,,,,,,,,,,,,,,,,,,,,,,,,,,,,,,,,,,,,,,,,,2246.648670799914,2246.664277700009,2246.664277700009,2247.1475999999093,2247.164330599946,2249.6477676999057,2249.6479776999918,None,1.0,,,,,,nback72,1.0,2024-01-26_09h49.15.810,untitled,2023.2.3,60.05277434649995,2024-01-26 10h18.40.099126 -0500,
,"[0.64, -0.4]",None,,,,,,,,,0.0,23.0,23.0,23.0,2249.664304199978,,,,,,,,,,,,,,,,,,,,,,,,,,,,,,,,,,,,,,,,,,,,,,,,,,,,,,,,,,,,,,2249.6488487999886,2249.664304199978,2249.664304199978,2250.147663599928,2250.164491300005,2252.647585699917,2252.6477698999224,None,1.0,,,,,,nback72,1.0,2024-01-26_09h49.15.810,untitled,2023.2.3,60.05277434649995,2024-01-26 10h18.40.099126 -0500,
,"[0, 0.2]",space,,,,,,,,,0.0,24.0,24.0,24.0,2252.664467699942,,,,,,,,,,,,,,,,,,,,,,,,,,,,,,,,,,,,,,,,,,,,,,,,,,,,,,,,,,,,,,2252.6484499999788,2252.664467699942,2252.664467699942,2253.1477335999957,2253.1642311000032,2255.6474408999784,2255.6476115999976,space,1.0,0.6053293000441045,None,,,,nback72,1.0,2024-01-26_09h49.15.810,untitled,2023.2.3,60.05277434649995,2024-01-26 10h18.40.099126 -0500,
,"[-0.2, 0.1]",None,,,,,,,,,0.0,25.0,25.0,25.0,2255.6642383999424,,,,,,,,,,,,,,,,,,,,,,,,,,,,,,,,,,,,,,,,,,,,,,,,,,,,,,,,,,,,,,2255.6483916,2255.6642383999424,2255.6642383999424,2256.1476900000125,2256.164270899957,2258.6474416999845,2258.6477189,None,1.0,,,,,,nback72,1.0,2024-01-26_09h49.15.810,untitled,2023.2.3,60.05277434649995,2024-01-26 10h18.40.099126 -0500,
,"[0.3, 0]",None,,,,,,,,,0.0,26.0,26.0,26.0,2258.664155400009,,,,,,,,,,,,,,,,,,,,,,,,,,,,,,,,,,,,,,,,,,,,,,,,,,,,,,,,,,,,,,2258.648548399913,2258.664155400009,2258.664155400009,2259.1472982999403,2259.1641697000014,2261.6475299999584,2261.6477292999625,None,1.0,,,,,,nback72,1.0,2024-01-26_09h49.15.810,untitled,2023.2.3,60.05277434649995,2024-01-26 10h18.40.099126 -0500,
,"[-0.2, 0.1]",space,,,,,,,,,0.0,27.0,27.0,27.0,2261.6641092000064,,,,,,,,,,,,,,,,,,,,,,,,,,,,,,,,,,,,,,,,,,,,,,,,,,,,,,,,,,,,,,2261.648522299947,2261.6641092000064,2261.6641092000064,2262.1474216999486,2262.1640887999674,2264.6473450999474,2264.6475302999606,space,1.0,0.5570950000546873,None,,,,nback72,1.0,2024-01-26_09h49.15.810,untitled,2023.2.3,60.05277434649995,2024-01-26 10h18.40.099126 -0500,
,"[-0.2, 0.1]",None,,,,,,,,,0.0,28.0,28.0,28.0,2264.664040399948,,,,,,,,,,,,,,,,,,,,,,,,,,,,,,,,,,,,,,,,,,,,,,,,,,,,,,,,,,,,,,2264.648438500008,2264.664040399948,2264.664040399948,2265.147275199997,2265.1639038999565,2267.6475568999304,2267.647787099937,None,1.0,,,,,,nback72,1.0,2024-01-26_09h49.15.810,untitled,2023.2.3,60.05277434649995,2024-01-26 10h18.40.099126 -0500,
,"[0.2, 0.1]",None,,,,,,,,,0.0,29.0,29.0,29.0,2267.664152599988,,,,,,,,,,,,,,,,,,,,,,,,,,,,,,,,,,,,,,,,,,,,,,,,,,,,,,,,,,,,,,2267.6486617999617,2267.664152599988,2267.664152599988,2268.147477499908,2268.1639566000085,2270.647322300006,2270.6475000999635,None,1.0,,,,,,nback72,1.0,2024-01-26_09h49.15.810,untitled,2023.2.3,60.05277434649995,2024-01-26 10h18.40.099126 -0500,
,"[-0.64, -0.4]",None,,,,,,,,,0.0,30.0,30.0,30.0,2270.6639021999435,,,,,,,,,,,,,,,,,,,,,,,,,,,,,,,,,,,,,,,,,,,,,,,,,,,,,,,,,,,,,,2270.6482136999257,2270.6639021999435,2270.6639021999435,2271.147051699925,2271.163823099924,2273.647180799977,2273.6473856999078,None,1.0,,,,,,nback72,1.0,2024-01-26_09h49.15.810,untitled,2023.2.3,60.05277434649995,2024-01-26 10h18.40.099126 -0500,
,"[0, -0.2]",None,,,,,,,,,0.0,31.0,31.0,31.0,2273.664056599955,,,,,,,,,,,,,,,,,,,,,,,,,,,,,,,,,,,,,,,,,,,,,,,,,,,,,,,,,,,,,,2273.648201499949,2273.664056599955,2273.664056599955,2274.147176099941,2274.163812499959,2276.647211099975,2276.6474279999966,None,1.0,,,,,,nback72,1.0,2024-01-26_09h49.15.810,untitled,2023.2.3,60.05277434649995,2024-01-26 10h18.40.099126 -0500,
,"[-0.64, -0.4]",space,,,,,,,,,0.0,32.0,32.0,32.0,2276.663808799931,,,,,,,,,,,,,,,,,,,,,,,,,,,,,,,,,,,,,,,,,,,,,,,,,,,,,,,,,,,,,,2276.648162500001,2276.663808799931,2276.663808799931,2277.1471921999478,2277.163727400009,2279.6471992000006,2279.647400699905,space,1.0,0.4441692000254988,None,,,,nback72,1.0,2024-01-26_09h49.15.810,untitled,2023.2.3,60.05277434649995,2024-01-26 10h18.40.099126 -0500,
,"[0.64, 0.4]",None,,,,,,,,,0.0,33.0,33.0,33.0,2279.6638898999663,,,,,,,,,,,,,,,,,,,,,,,,,,,,,,,,,,,,,,,,,,,,,,,,,,,,,,,,,,,,,,2279.648374199984,2279.6638898999663,2279.6638898999663,2280.146967799985,2280.16363049997,2282.6470507999184,2282.6473102999157,None,1.0,,,,,,nback72,1.0,2024-01-26_09h49.15.810,untitled,2023.2.3,60.05277434649995,2024-01-26 10h18.40.099126 -0500,
,"[-0.3, 0]",None,,,,,,,,,0.0,34.0,34.0,34.0,2282.6636494999984,,,,,,,,,,,,,,,,,,,,,,,,,,,,,,,,,,,,,,,,,,,,,,,,,,,,,,,,,,,,,,2282.6478613999207,2282.6636494999984,2282.6636494999984,2283.147281499929,2283.1640009999974,2285.6471634999616,2285.6473871999187,None,1.0,,,,,,nback72,1.0,2024-01-26_09h49.15.810,untitled,2023.2.3,60.05277434649995,2024-01-26 10h18.40.099126 -0500,
,"[0.3, 0]",None,,,,,,,,,0.0,35.0,35.0,35.0,2285.663704499952,,,,,,,,,,,,,,,,,,,,,,,,,,,,,,,,,,,,,,,,,,,,,,,,,,,,,,,,,,,,,,2285.6482115999097,2285.663704499952,2285.663704499952,2286.146910200012,2286.1636908999644,2288.6467770999297,2288.6469142999267,None,1.0,,,,,,nback72,1.0,2024-01-26_09h49.15.810,untitled,2023.2.3,60.05277434649995,2024-01-26 10h18.40.099126 -0500,
,"[-0.3, 0]",space,,,,,,,,,0.0,36.0,36.0,36.0,2288.663597199949,,,,,,,,,,,,,,,,,,,,,,,,,,,,,,,,,,,,,,,,,,,,,,,,,,,,,,,,,,,,,,2288.6473789999727,2288.663597199949,2288.663597199949,2289.147053499939,2289.1637981999665,2291.646929899929,2291.6471150999423,space,1.0,0.3787329000188038,None,,,,nback72,1.0,2024-01-26_09h49.15.810,untitled,2023.2.3,60.05277434649995,2024-01-26 10h18.40.099126 -0500,
,"[0, -0.2]",None,,,,,,,,,0.0,37.0,37.0,37.0,2291.6635054999497,,,,,,,,,,,,,,,,,,,,,,,,,,,,,,,,,,,,,,,,,,,,,,,,,,,,,,,,,,,,,,2291.648224400007,2291.6635054999497,2291.6635054999497,2292.147104099975,2292.163666600012,2294.647009999957,2294.647223499953,None,1.0,,,,,,nback72,1.0,2024-01-26_09h49.15.810,untitled,2023.2.3,60.05277434649995,2024-01-26 10h18.40.099126 -0500,
,"[0.3, 0]",None,,,,,,,,,0.0,38.0,38.0,38.0,2294.6634671000065,,,,,,,,,,,,,,,,,,,,,,,,,,,,,,,,,,,,,,,,,,,,,,,,,,,,,,,,,,,,,,2294.648084799992,2294.6634671000065,2294.6634671000065,2295.1468112999573,2295.163610399933,2297.6469457999337,2297.6471606999403,None,1.0,,,,,,nback72,1.0,2024-01-26_09h49.15.810,untitled,2023.2.3,60.05277434649995,2024-01-26 10h18.40.099126 -0500,
,"[0.2, 0.1]",None,,,,,,,,,0.0,39.0,39.0,39.0,2297.663493799977,,,,,,,,,,,,,,,,,,,,,,,,,,,,,,,,,,,,,,,,,,,,,,,,,,,,,,,,,,,,,,2297.6479997999268,2297.663493799977,2297.663493799977,2298.146766799968,2298.163444499951,2300.646785399993,2300.646991399932,None,1.0,,,,,,nback72,1.0,2024-01-26_09h49.15.810,untitled,2023.2.3,60.05277434649995,2024-01-26 10h18.40.099126 -0500,
,,,,,,,,,,,,,,,,,,,,,,,,,,,,,,,,,,,,,,,,,,,,,,,,,,,,,,,,,,,,,,,,,,,,,,,,,,,,,,,,,,,,,,,,2300.6475252999226,2300.6635541999717,2303.647031600005,,,,,,,,
