square,location,corrAns,trials_0.thisRepN,trials_0.thisTrialN,trials_0.thisN,trials_0.thisIndex,trials_1.thisRepN,trials_1.thisTrialN,trials_1.thisN,trials_1.thisIndex,trials_2.thisRepN,trials_2.thisTrialN,trials_2.thisN,trials_2.thisIndex,thisRow.t,notes,Instructions.started,instructions.started,key_resp.started,inst_sq11.started,Instructions.stopped,key_resp.keys,key_resp.rt,key_resp.duration,All.started,sq_1.started,sq_2.started,sq_3.started,sq_4.started,sq_5.started,sq_6.started,sq_7.started,sq_8.started,sq_9.started,sq_10.started,sq_11.started,sq_12.started,All.stopped,Fixation.started,fixation_3.started,fixation_3.stopped,Fixation.stopped,N_back_0_Trial.started,target_square_0.started,response_0.started,fixation_0.started,target_square_0.stopped,fixation_0.stopped,response_0.stopped,N_back_0_Trial.stopped,response_0.keys,response_0.corr,response_0.rt,response_0.duration,Instructions_1.started,instructions_1.started,key_resp_1.started,Instructions_1.stopped,key_resp_1.keys,key_resp_1.rt,key_resp_1.duration,N_back_1_Trial.started,target_square_1.started,response_1.started,target_square_1.stopped,fixation_1.started,fixation_1.stopped,response_1.stopped,N_back_1_Trial.stopped,response_1.keys,response_1.corr,response_1.rt,response_1.duration,Instructions_2.started,instructions_2.started,key_resp_2.started,Instructions_2.stopped,key_resp_2.keys,key_resp_2.rt,key_resp_2.duration,N_back_2_trials.started,target_square_2.started,response_2.started,target_square_2.stopped,fixation_2.started,fixation_2.stopped,response_2.stopped,N_back_2_trials.stopped,response_2.keys,response_2.corr,response_2.rt,response_2.duration,End.started,thank_you.started,thank_you.stopped,End.stopped,participant,session,date,expName,psychopyVersion,frameRate,expStart,Unnamed: 104
,,,,,,,,,,,,,,,,,0.0016706999995221,0.0041307999999844,0.0041307999999844,0.0041307999999844,2367.5871529999995,space,2367.569900899999,None,,,,,,,,,,,,,,,,,,,,,,,,,,,,,,,,,,,,,,,,,,,,,,,,,,,,,,,,,,,,,,,,,,,,,,,,,nback20,1.0,2023-12-11_18h21.31.407,untitled,2023.2.3,60.02231629691494,2023-12-11 18h21.41.810688 -0500,
6.0,"[-0.3, 0]",None,0.0,0.0,0.0,0.0,,,,,,,,,2369.6030550000005,,,,,,,,,,2367.587203799999,2367.6021197,2367.6021197,2367.6021197,2367.6021197,2367.6021197,2367.6021197,2367.6021197,2367.6021197,2367.6021197,2367.6021197,2367.6021197,2367.6021197,2368.585902399999,2368.585919300001,2368.6020992000003,2369.6030550000005,2369.586298199999,2369.6010763000004,2369.6030550000005,2369.6030550000005,2370.085499,2370.1022698000006,2372.5855463,2372.6021838000006,2372.5864161,None,1.0,,,,,,,,,,,,,,,,,,,,,,,,,,,,,,,,,,,,,,,,,,,,,nback20,1.0,2023-12-11_18h21.31.407,untitled,2023.2.3,60.02231629691494,2023-12-11 18h21.41.810688 -0500,
10.0,"[0, -0.2]",None,0.0,1.0,1.0,1.0,,,,,,,,,2372.6021838000006,,,,,,,,,,,,,,,,,,,,,,,,,,,,2372.5874713000003,2372.6021838000006,2372.6021838000006,2373.0854252,2373.1020769,2375.585484799999,2375.601977,2375.5863628,space,0.0,0.2010881000005611,None,,,,,,,,,,,,,,,,,,,,,,,,,,,,,,,,,,,,,,,,,,,nback20,1.0,2023-12-11_18h21.31.407,untitled,2023.2.3,60.02231629691494,2023-12-11 18h21.41.810688 -0500,
11.0,"[-0.64, -0.4]",space,0.0,2.0,2.0,2.0,,,,,,,,,2375.601977,,,,,,,,,,,,,,,,,,,,,,,,,,,,2375.5874780999998,2375.601977,2375.601977,2376.0853787999995,2376.1021463000006,2378.5853752,2378.6021656000003,2378.586382299999,space,1.0,1.025129099998594,None,,,,,,,,,,,,,,,,,,,,,,,,,,,,,,,,,,,,,,,,,,,nback20,1.0,2023-12-11_18h21.31.407,untitled,2023.2.3,60.02231629691494,2023-12-11 18h21.41.810688 -0500,
12.0,"[0.64, -0.4]",None,0.0,3.0,3.0,3.0,,,,,,,,,2378.6021656000003,,,,,,,,,,,,,,,,,,,,,,,,,,,,2378.5873743,2378.6021656000003,2378.6021656000003,2379.0853708000004,2379.1020368,2381.5853307000007,2381.6020547,2381.586395,space,0.0,0.3790676999997231,None,,,,,,,,,,,,,,,,,,,,,,,,,,,,,,,,,,,,,,,,,,,nback20,1.0,2023-12-11_18h21.31.407,untitled,2023.2.3,60.02231629691494,2023-12-11 18h21.41.810688 -0500,
1.0,"[-0.64, 0.4]",None,0.0,4.0,4.0,4.0,,,,,,,,,2381.6020547,,,,,,,,,,,,,,,,,,,,,,,,,,,,2381.5873501,2381.6020547,2381.6020547,2382.0852664000004,2382.1019067000007,2384.5852411999995,2384.601986499999,2384.5861517000003,space,0.0,0.4042628999995941,None,,,,,,,,,,,,,,,,,,,,,,,,,,,,,,,,,,,,,,,,,,,nback20,1.0,2023-12-11_18h21.31.407,untitled,2023.2.3,60.02231629691494,2023-12-11 18h21.41.810688 -0500,
1.0,"[-0.64, 0.4]",None,0.0,5.0,5.0,5.0,,,,,,,,,2384.601986499999,,,,,,,,,,,,,,,,,,,,,,,,,,,,2384.5870564000006,2384.601986499999,2384.601986499999,2385.0853055,2385.102085399999,2387.5851558000004,2387.601985099999,2387.586098499999,space,0.0,0.3377009999985603,None,,,,,,,,,,,,,,,,,,,,,,,,,,,,,,,,,,,,,,,,,,,nback20,1.0,2023-12-11_18h21.31.407,untitled,2023.2.3,60.02231629691494,2023-12-11 18h21.41.810688 -0500,
4.0,"[-0.2, 0.1]",None,0.0,6.0,6.0,6.0,,,,,,,,,2387.601985099999,,,,,,,,,,,,,,,,,,,,,,,,,,,,2387.5869438,2387.601985099999,2387.601985099999,2388.0852238,2388.1019528000006,2390.5853443000005,2390.6018104999994,2390.586198099999,space,0.0,0.3258867999993526,None,,,,,,,,,,,,,,,,,,,,,,,,,,,,,,,,,,,,,,,,,,,nback20,1.0,2023-12-11_18h21.31.407,untitled,2023.2.3,60.02231629691494,2023-12-11 18h21.41.810688 -0500,
5.0,"[0.2, 0.1]",None,0.0,7.0,7.0,7.0,,,,,,,,,2390.6018104999994,,,,,,,,,,,,,,,,,,,,,,,,,,,,2390.5870694,2390.6018104999994,2390.6018104999994,2391.0851041,2391.1019277999994,2393.5850645,2393.6018878999994,2393.5861135999994,space,0.0,0.4010589999998046,None,,,,,,,,,,,,,,,,,,,,,,,,,,,,,,,,,,,,,,,,,,,nback20,1.0,2023-12-11_18h21.31.407,untitled,2023.2.3,60.02231629691494,2023-12-11 18h21.41.810688 -0500,
11.0,"[-0.64, -0.4]",space,0.0,8.0,8.0,8.0,,,,,,,,,2393.6018878999994,,,,,,,,,,,,,,,,,,,,,,,,,,,,2393.5870396,2393.6018878999994,2393.6018878999994,2394.0851182,2394.1019394999994,2396.5850542,2396.6018197999992,2396.5860224,space,1.0,0.3550825000002078,None,,,,,,,,,,,,,,,,,,,,,,,,,,,,,,,,,,,,,,,,,,,nback20,1.0,2023-12-11_18h21.31.407,untitled,2023.2.3,60.02231629691494,2023-12-11 18h21.41.810688 -0500,
9.0,"[0.2, -0.1]",None,0.0,9.0,9.0,9.0,,,,,,,,,2396.6018197999992,,,,,,,,,,,,,,,,,,,,,,,,,,,,2396.5868712,2396.6018197999992,2396.6018197999992,2397.085042399999,2397.1017229,2399.5850654,2399.6017612999995,2399.586175399999,space,0.0,0.4217060999999376,None,,,,,,,,,,,,,,,,,,,,,,,,,,,,,,,,,,,,,,,,,,,nback20,1.0,2023-12-11_18h21.31.407,untitled,2023.2.3,60.02231629691494,2023-12-11 18h21.41.810688 -0500,
8.0,"[-0.2, -0.1]",None,0.0,10.0,10.0,10.0,,,,,,,,,2399.6017612999995,,,,,,,,,,,,,,,,,,,,,,,,,,,,2399.5870738999997,2399.6017612999995,2399.6017612999995,2400.0849522,2400.1019224,2402.585043099999,2402.6019821,2402.5858533,space,0.0,0.3958121000014216,None,,,,,,,,,,,,,,,,,,,,,,,,,,,,,,,,,,,,,,,,,,,nback20,1.0,2023-12-11_18h21.31.407,untitled,2023.2.3,60.02231629691494,2023-12-11 18h21.41.810688 -0500,
9.0,"[0.2, -0.1]",None,0.0,11.0,11.0,11.0,,,,,,,,,2402.6019821,,,,,,,,,,,,,,,,,,,,,,,,,,,,2402.5868365,2402.6019821,2402.6019821,2403.0851245999997,2403.1015916999995,2405.5849714999995,2405.601534999999,2405.585840999999,space,0.0,0.535516899999493,None,,,,,,,,,,,,,,,,,,,,,,,,,,,,,,,,,,,,,,,,,,,nback20,1.0,2023-12-11_18h21.31.407,untitled,2023.2.3,60.02231629691494,2023-12-11 18h21.41.810688 -0500,
6.0,"[-0.3, 0]",None,0.0,12.0,12.0,12.0,,,,,,,,,2405.601534999999,,,,,,,,,,,,,,,,,,,,,,,,,,,,2405.586735599999,2405.601534999999,2405.601534999999,2406.084962,2406.1015653000004,2408.5848509,2408.6015074,2408.5856940999997,None,1.0,,,,,,,,,,,,,,,,,,,,,,,,,,,,,,,,,,,,,,,,,,,,,nback20,1.0,2023-12-11_18h21.31.407,untitled,2023.2.3,60.02231629691494,2023-12-11 18h21.41.810688 -0500,
9.0,"[0.2, -0.1]",None,0.0,13.0,13.0,13.0,,,,,,,,,2408.6015074,,,,,,,,,,,,,,,,,,,,,,,,,,,,2408.5864013,2408.6015074,2408.6015074,2409.1015036,2409.1015036,2411.6015645,2411.6015645,2411.585677099999,None,1.0,,,,,,,,,,,,,,,,,,,,,,,,,,,,,,,,,,,,,,,,,,,,,nback20,1.0,2023-12-11_18h21.31.407,untitled,2023.2.3,60.02231629691494,2023-12-11 18h21.41.810688 -0500,
7.0,"[0.3, 0]",None,0.0,14.0,14.0,14.0,,,,,,,,,2411.6015645,,,,,,,,,,,,,,,,,,,,,,,,,,,,2411.586335699999,2411.6015645,2411.6015645,2412.1015158,2412.1015158,2414.601383799999,2414.601383799999,2414.5857246999994,None,1.0,,,,,,,,,,,,,,,,,,,,,,,,,,,,,,,,,,,,,,,,,,,,,nback20,1.0,2023-12-11_18h21.31.407,untitled,2023.2.3,60.02231629691494,2023-12-11 18h21.41.810688 -0500,
2.0,"[0.64, 0.4]",None,0.0,15.0,15.0,15.0,,,,,,,,,2414.601383799999,,,,,,,,,,,,,,,,,,,,,,,,,,,,2414.5865045,2414.601383799999,2414.601383799999,2415.0848792000006,2415.1014532,2417.5847674000006,2417.6012963000003,2417.585745199999,None,1.0,,,,,,,,,,,,,,,,,,,,,,,,,,,,,,,,,,,,,,,,,,,,,nback20,1.0,2023-12-11_18h21.31.407,untitled,2023.2.3,60.02231629691494,2023-12-11 18h21.41.810688 -0500,
2.0,"[0.64, 0.4]",None,0.0,16.0,16.0,16.0,,,,,,,,,2417.6012963000003,,,,,,,,,,,,,,,,,,,,,,,,,,,,2417.586599699999,2417.6012963000003,2417.6012963000003,2418.1014128,2418.1014128,2420.6013194,2420.6013194,2420.5856589999994,None,1.0,,,,,,,,,,,,,,,,,,,,,,,,,,,,,,,,,,,,,,,,,,,,,nback20,1.0,2023-12-11_18h21.31.407,untitled,2023.2.3,60.02231629691494,2023-12-11 18h21.41.810688 -0500,
11.0,"[-0.64, -0.4]",space,0.0,17.0,17.0,17.0,,,,,,,,,2420.6013194,,,,,,,,,,,,,,,,,,,,,,,,,,,,2420.586415999999,2420.6013194,2420.6013194,2421.101325999999,2421.101325999999,2423.601236199999,2423.601236199999,2423.5854436,space,1.0,0.4478779000000941,None,,,,,,,,,,,,,,,,,,,,,,,,,,,,,,,,,,,,,,,,,,,nback20,1.0,2023-12-11_18h21.31.407,untitled,2023.2.3,60.02231629691494,2023-12-11 18h21.41.810688 -0500,
11.0,"[-0.64, -0.4]",space,0.0,18.0,18.0,18.0,,,,,,,,,2423.601236199999,,,,,,,,,,,,,,,,,,,,,,,,,,,,2423.5862307,2423.601236199999,2423.601236199999,2424.1012777000005,2424.1012777000005,2426.6010266000003,2426.6010266000003,2426.5851111,space,1.0,0.5918689000009181,None,,,,,,,,,,,,,,,,,,,,,,,,,,,,,,,,,,,,,,,,,,,nback20,1.0,2023-12-11_18h21.31.407,untitled,2023.2.3,60.02231629691494,2023-12-11 18h21.41.810688 -0500,
7.0,"[0.3, 0]",None,0.0,19.0,19.0,19.0,,,,,,,,,2426.6010266000003,,,,,,,,,,,,,,,,,,,,,,,,,,,,2426.5857477,2426.6010266000003,2426.6010266000003,2427.101389299999,2427.101389299999,2429.6011983,2429.6011983,2429.5853619,None,1.0,,,,,,,,,,,,,,,,,,,,,,,,,,,,,,,,,,,,,,,,,,,,,nback20,1.0,2023-12-11_18h21.31.407,untitled,2023.2.3,60.02231629691494,2023-12-11 18h21.41.810688 -0500,
3.0,"[0, 0.2]",None,0.0,20.0,20.0,20.0,,,,,,,,,2429.6011983,,,,,,,,,,,,,,,,,,,,,,,,,,,,2429.5860717999994,2429.6011983,2429.6011983,2430.1011568000004,2430.1011568000004,2432.601147299999,2432.601147299999,2432.585424,None,1.0,,,,,,,,,,,,,,,,,,,,,,,,,,,,,,,,,,,,,,,,,,,,,nback20,1.0,2023-12-11_18h21.31.407,untitled,2023.2.3,60.02231629691494,2023-12-11 18h21.41.810688 -0500,
10.0,"[0, -0.2]",None,0.0,21.0,21.0,21.0,,,,,,,,,2432.601147299999,,,,,,,,,,,,,,,,,,,,,,,,,,,,2432.58608,2432.601147299999,2432.601147299999,2433.1012745,2433.1012745,2435.601194599999,2435.601194599999,2435.5854819999995,None,1.0,,,,,,,,,,,,,,,,,,,,,,,,,,,,,,,,,,,,,,,,,,,,,nback20,1.0,2023-12-11_18h21.31.407,untitled,2023.2.3,60.02231629691494,2023-12-11 18h21.41.810688 -0500,
1.0,"[-0.64, 0.4]",None,0.0,22.0,22.0,22.0,,,,,,,,,2435.601194599999,,,,,,,,,,,,,,,,,,,,,,,,,,,,2435.586279300001,2435.601194599999,2435.601194599999,2436.1011556999997,2436.1011556999997,2438.6010397,2438.6010397,2438.5853904999994,None,1.0,,,,,,,,,,,,,,,,,,,,,,,,,,,,,,,,,,,,,,,,,,,,,nback20,1.0,2023-12-11_18h21.31.407,untitled,2023.2.3,60.02231629691494,2023-12-11 18h21.41.810688 -0500,
2.0,"[0.64, 0.4]",None,0.0,23.0,23.0,23.0,,,,,,,,,2438.6010397,,,,,,,,,,,,,,,,,,,,,,,,,,,,2438.5860499,2438.6010397,2438.6010397,2439.1012867,2439.1012867,2441.6010578,2441.6010578,2441.585219899999,None,1.0,,,,,,,,,,,,,,,,,,,,,,,,,,,,,,,,,,,,,,,,,,,,,nback20,1.0,2023-12-11_18h21.31.407,untitled,2023.2.3,60.02231629691494,2023-12-11 18h21.41.810688 -0500,
6.0,"[-0.3, 0]",None,0.0,24.0,24.0,24.0,,,,,,,,,2441.6010578,,,,,,,,,,,,,,,,,,,,,,,,,,,,2441.586017299999,2441.6010578,2441.6010578,2442.1011357,2442.1011357,2444.6008778000005,2444.6008778000005,2444.5849159,None,1.0,,,,,,,,,,,,,,,,,,,,,,,,,,,,,,,,,,,,,,,,,,,,,nback20,1.0,2023-12-11_18h21.31.407,untitled,2023.2.3,60.02231629691494,2023-12-11 18h21.41.810688 -0500,
3.0,"[0, 0.2]",None,0.0,25.0,25.0,25.0,,,,,,,,,2444.6008778000005,,,,,,,,,,,,,,,,,,,,,,,,,,,,2444.5855292999995,2444.6008778000005,2444.6008778000005,2445.100862799999,2445.100862799999,2447.6009848000003,2447.6009848000003,2447.5855298,None,1.0,,,,,,,,,,,,,,,,,,,,,,,,,,,,,,,,,,,,,,,,,,,,,nback20,1.0,2023-12-11_18h21.31.407,untitled,2023.2.3,60.02231629691494,2023-12-11 18h21.41.810688 -0500,
11.0,"[-0.64, -0.4]",space,0.0,26.0,26.0,26.0,,,,,,,,,2447.6009848000003,,,,,,,,,,,,,,,,,,,,,,,,,,,,2447.586348399999,2447.6009848000003,2447.6009848000003,2448.1010025000005,2448.1010025000005,2450.6007488999994,2450.6007488999994,2450.5846393,space,1.0,0.4045587000000523,None,,,,,,,,,,,,,,,,,,,,,,,,,,,,,,,,,,,,,,,,,,,nback20,1.0,2023-12-11_18h21.31.407,untitled,2023.2.3,60.02231629691494,2023-12-11 18h21.41.810688 -0500,
1.0,"[-0.64, 0.4]",None,0.0,27.0,27.0,27.0,,,,,,,,,2450.6007488999994,,,,,,,,,,,,,,,,,,,,,,,,,,,,2450.5851729,2450.6007488999994,2450.6007488999994,2451.1008302,2451.1008302,2453.600668799999,2453.600668799999,2453.584942799999,None,1.0,,,,,,,,,,,,,,,,,,,,,,,,,,,,,,,,,,,,,,,,,,,,,nback20,1.0,2023-12-11_18h21.31.407,untitled,2023.2.3,60.02231629691494,2023-12-11 18h21.41.810688 -0500,
3.0,"[0, 0.2]",None,0.0,28.0,28.0,28.0,,,,,,,,,2453.600668799999,,,,,,,,,,,,,,,,,,,,,,,,,,,,2453.5856242,2453.600668799999,2453.600668799999,2454.1006135,2454.1006135,2456.6006695000005,2456.6006695000005,2456.584859899999,None,1.0,,,,,,,,,,,,,,,,,,,,,,,,,,,,,,,,,,,,,,,,,,,,,nback20,1.0,2023-12-11_18h21.31.407,untitled,2023.2.3,60.02231629691494,2023-12-11 18h21.41.810688 -0500,
9.0,"[0.2, -0.1]",None,0.0,29.0,29.0,29.0,,,,,,,,,2456.6006695000005,,,,,,,,,,,,,,,,,,,,,,,,,,,,2456.5854014000006,2456.6006695000005,2456.6006695000005,2457.1007915,2457.1007915,2459.600663099999,2459.600663099999,2459.584795599999,None,1.0,,,,,,,,,,,,,,,,,,,,,,,,,,,,,,,,,,,,,,,,,,,,,nback20,1.0,2023-12-11_18h21.31.407,untitled,2023.2.3,60.02231629691494,2023-12-11 18h21.41.810688 -0500,
8.0,"[-0.2, -0.1]",None,0.0,30.0,30.0,30.0,,,,,,,,,2459.600663099999,,,,,,,,,,,,,,,,,,,,,,,,,,,,2459.5853813000003,2459.600663099999,2459.600663099999,2460.1006193999992,2460.1006193999992,2462.600887899999,2462.600887899999,2462.5849623000004,None,1.0,,,,,,,,,,,,,,,,,,,,,,,,,,,,,,,,,,,,,,,,,,,,,nback20,1.0,2023-12-11_18h21.31.407,untitled,2023.2.3,60.02231629691494,2023-12-11 18h21.41.810688 -0500,
12.0,"[0.64, -0.4]",None,0.0,31.0,31.0,31.0,,,,,,,,,2462.600887899999,,,,,,,,,,,,,,,,,,,,,,,,,,,,2462.5857977999995,2462.600887899999,2462.600887899999,2463.1008796,2463.1008796,2465.600705599999,2465.600705599999,2465.5849193999998,None,1.0,,,,,,,,,,,,,,,,,,,,,,,,,,,,,,,,,,,,,,,,,,,,,nback20,1.0,2023-12-11_18h21.31.407,untitled,2023.2.3,60.02231629691494,2023-12-11 18h21.41.810688 -0500,
9.0,"[0.2, -0.1]",None,0.0,32.0,32.0,32.0,,,,,,,,,2465.600705599999,,,,,,,,,,,,,,,,,,,,,,,,,,,,2465.585655599999,2465.600705599999,2465.600705599999,2466.1006838000003,2466.1006838000003,2468.6006651,2468.6006651,2468.584918,None,1.0,,,,,,,,,,,,,,,,,,,,,,,,,,,,,,,,,,,,,,,,,,,,,nback20,1.0,2023-12-11_18h21.31.407,untitled,2023.2.3,60.02231629691494,2023-12-11 18h21.41.810688 -0500,
11.0,"[-0.64, -0.4]",space,0.0,33.0,33.0,33.0,,,,,,,,,2468.6006651,,,,,,,,,,,,,,,,,,,,,,,,,,,,2468.5855342000004,2468.6006651,2468.6006651,2469.1006150000003,2469.1006150000003,2471.6006874000004,2471.6006874000004,2471.584935,space,1.0,0.4789584999998624,None,,,,,,,,,,,,,,,,,,,,,,,,,,,,,,,,,,,,,,,,,,,nback20,1.0,2023-12-11_18h21.31.407,untitled,2023.2.3,60.02231629691494,2023-12-11 18h21.41.810688 -0500,
7.0,"[0.3, 0]",None,0.0,34.0,34.0,34.0,,,,,,,,,2471.6006874000004,,,,,,,,,,,,,,,,,,,,,,,,,,,,2471.5859307,2471.6006874000004,2471.6006874000004,2472.1018995000004,2472.1018995000004,,2474.6005626,2474.6007321000006,None,1.0,,,,,,,,,,,,,,,,,,,,,,,,,,,,,,,,,,,,,,,,,,,,,nback20,1.0,2023-12-11_18h21.31.407,untitled,2023.2.3,60.02231629691494,2023-12-11 18h21.41.810688 -0500,
11.0,"[-0.64, -0.4]",space,0.0,35.0,35.0,35.0,,,,,,,,,2474.617321499999,,,,,,,,,,,,,,,,,,,,,,,,,,,,2474.6015359000003,2474.617321499999,2474.617321499999,2475.100466499999,2475.117058499999,2477.6005130000003,,2477.600700099999,space,1.0,0.6209643000001961,None,,,,,,,,,,,,,,,,,,,,,,,,,,,,,,,,,,,,,,,,,,,nback20,1.0,2023-12-11_18h21.31.407,untitled,2023.2.3,60.02231629691494,2023-12-11 18h21.41.810688 -0500,
4.0,"[-0.2, 0.1]",None,0.0,36.0,36.0,36.0,,,,,,,,,2477.6172893,,,,,,,,,,,,,,,,,,,,,,,,,,,,2477.6016248000005,2477.6172893,2477.6172893,2478.1004545999995,2478.1170524,2480.6003814999995,,2480.600549599999,None,1.0,,,,,,,,,,,,,,,,,,,,,,,,,,,,,,,,,,,,,,,,,,,,,nback20,1.0,2023-12-11_18h21.31.407,untitled,2023.2.3,60.02231629691494,2023-12-11 18h21.41.810688 -0500,
5.0,"[0.2, 0.1]",None,0.0,37.0,37.0,37.0,,,,,,,,,2480.617068999999,,,,,,,,,,,,,,,,,,,,,,,,,,,,2480.6012998,2480.617068999999,2480.617068999999,2481.100329599999,2481.117201099999,2483.6003064999995,,2483.6004882000007,None,1.0,,,,,,,,,,,,,,,,,,,,,,,,,,,,,,,,,,,,,,,,,,,,,nback20,1.0,2023-12-11_18h21.31.407,untitled,2023.2.3,60.02231629691494,2023-12-11 18h21.41.810688 -0500,
6.0,"[-0.3, 0]",None,0.0,38.0,38.0,38.0,,,,,,,,,2483.6169731,,,,,,,,,,,,,,,,,,,,,,,,,,,,2483.6011687,2483.6169731,2483.6169731,2484.100206599999,2484.1169466,2486.6003255999995,,2486.600518,None,1.0,,,,,,,,,,,,,,,,,,,,,,,,,,,,,,,,,,,,,,,,,,,,,nback20,1.0,2023-12-11_18h21.31.407,untitled,2023.2.3,60.02231629691494,2023-12-11 18h21.41.810688 -0500,
11.0,"[-0.64, -0.4]",space,0.0,39.0,39.0,39.0,,,,,,,,,2486.617017899999,,,,,,,,,,,,,,,,,,,,,,,,,,,,2486.601302599999,2486.617017899999,2486.617017899999,2487.1003605,2487.1170024,2489.600288999999,,2489.6004456,space,1.0,0.4976570999988325,None,,,,,,,,,,,,,,,,,,,,,,,,,,,,,,,,,,,,,,,,,,,nback20,1.0,2023-12-11_18h21.31.407,untitled,2023.2.3,60.02231629691494,2023-12-11 18h21.41.810688 -0500,
,,,,,,,,,,,,,,,,,,,,,,,,,,,,,,,,,,,,,,,,,,,,,,,,,,,,,,,2489.6009934999997,2489.6170133000005,2489.6170133000005,2535.6353644,space,46.01636169999984,None,,,,,,,,,,,,,,,,,,,,,,,,,,,,,,,,,,,,nback20,1.0,2023-12-11_18h21.31.407,untitled,2023.2.3,60.02231629691494,2023-12-11 18h21.41.810688 -0500,
10.0,"[0, -0.2]",None,,,,,0.0,0.0,0.0,0.0,,,,,2536.6493500999995,,,,,,,,,,,,,,,,,,,,,,,,2535.6354490999997,2535.6493471000003,2536.6493500999995,2536.633713099999,,,,,,,,,,,,,,,,,,,,2536.6434315,2536.6493500999995,2536.6493500999995,2537.1494570999994,2537.1494570999994,2539.649552599999,2539.649552599999,2539.6336807,None,1.0,,,,,,,,,,,,,,,,,,,,,,,,,,nback20,1.0,2023-12-11_18h21.31.407,untitled,2023.2.3,60.02231629691494,2023-12-11 18h21.41.810688 -0500,
5.0,"[0.2, 0.1]",None,,,,,0.0,1.0,1.0,1.0,,,,,2539.649552599999,,,,,,,,,,,,,,,,,,,,,,,,,,,,,,,,,,,,,,,,,,,,,,,2539.634881699999,2539.649552599999,2539.649552599999,2540.1495977000004,2540.1495977000004,2542.649180899999,2542.649180899999,2542.6333564999995,None,1.0,,,,,,,,,,,,,,,,,,,,,,,,,,nback20,1.0,2023-12-11_18h21.31.407,untitled,2023.2.3,60.02231629691494,2023-12-11 18h21.41.810688 -0500,
6.0,"[-0.3, 0]",None,,,,,0.0,2.0,2.0,2.0,,,,,2542.649180899999,,,,,,,,,,,,,,,,,,,,,,,,,,,,,,,,,,,,,,,,,,,,,,,2542.6340212999994,2542.649180899999,2542.649180899999,2543.1494102999995,2543.1494102999995,2545.6493812,2545.6493812,2545.633575499999,None,1.0,,,,,,,,,,,,,,,,,,,,,,,,,,nback20,1.0,2023-12-11_18h21.31.407,untitled,2023.2.3,60.02231629691494,2023-12-11 18h21.41.810688 -0500,
6.0,"[-0.3, 0]",space,,,,,0.0,3.0,3.0,3.0,,,,,2545.6493812,,,,,,,,,,,,,,,,,,,,,,,,,,,,,,,,,,,,,,,,,,,,,,,2545.6342665,2545.6493812,2545.6493812,2546.1493143,2546.1493143,2548.6493691000005,2548.6493691000005,2548.6337474,space,1.0,0.3933985000003304,None,,,,,,,,,,,,,,,,,,,,,,,,nback20,1.0,2023-12-11_18h21.31.407,untitled,2023.2.3,60.02231629691494,2023-12-11 18h21.41.810688 -0500,
12.0,"[0.64, -0.4]",None,,,,,0.0,4.0,4.0,4.0,,,,,2548.6493691000005,,,,,,,,,,,,,,,,,,,,,,,,,,,,,,,,,,,,,,,,,,,,,,,2548.6350250000005,2548.6493691000005,2548.6493691000005,2549.1493347000005,2549.1493347000005,2551.6493913000004,2551.6493913000004,2551.6332655,None,1.0,,,,,,,,,,,,,,,,,,,,,,,,,,nback20,1.0,2023-12-11_18h21.31.407,untitled,2023.2.3,60.02231629691494,2023-12-11 18h21.41.810688 -0500,
10.0,"[0, -0.2]",None,,,,,0.0,5.0,5.0,5.0,,,,,2551.6493913000004,,,,,,,,,,,,,,,,,,,,,,,,,,,,,,,,,,,,,,,,,,,,,,,2551.6338866,2551.6493913000004,2551.6493913000004,2552.1491787000004,2552.1491787000004,2554.649343099999,2554.649343099999,2554.6330628000005,None,1.0,,,,,,,,,,,,,,,,,,,,,,,,,,nback20,1.0,2023-12-11_18h21.31.407,untitled,2023.2.3,60.02231629691494,2023-12-11 18h21.41.810688 -0500,
2.0,"[0.64, 0.4]",None,,,,,0.0,6.0,6.0,6.0,,,,,2554.649343099999,,,,,,,,,,,,,,,,,,,,,,,,,,,,,,,,,,,,,,,,,,,,,,,2554.6336962,2554.649343099999,2554.649343099999,2555.1491049999995,2555.1491049999995,2557.649078399999,2557.649078399999,2557.6331208,None,1.0,,,,,,,,,,,,,,,,,,,,,,,,,,nback20,1.0,2023-12-11_18h21.31.407,untitled,2023.2.3,60.02231629691494,2023-12-11 18h21.41.810688 -0500,
9.0,"[0.2, -0.1]",None,,,,,0.0,7.0,7.0,7.0,,,,,2557.649078399999,,,,,,,,,,,,,,,,,,,,,,,,,,,,,,,,,,,,,,,,,,,,,,,2557.633668899999,2557.649078399999,2557.649078399999,2558.1491942,2558.1491942,2560.6491541999994,2560.6491541999994,2560.63367,None,1.0,,,,,,,,,,,,,,,,,,,,,,,,,,nback20,1.0,2023-12-11_18h21.31.407,untitled,2023.2.3,60.02231629691494,2023-12-11 18h21.41.810688 -0500,
9.0,"[0.2, -0.1]",space,,,,,0.0,8.0,8.0,8.0,,,,,2560.6491541999994,,,,,,,,,,,,,,,,,,,,,,,,,,,,,,,,,,,,,,,,,,,,,,,2560.634451499999,2560.6491541999994,2560.6491541999994,2561.149126199999,2561.149126199999,2563.649000999999,2563.649000999999,2563.6331416000003,space,1.0,0.5100927000003139,None,,,,,,,,,,,,,,,,,,,,,,,,nback20,1.0,2023-12-11_18h21.31.407,untitled,2023.2.3,60.02231629691494,2023-12-11 18h21.41.810688 -0500,
6.0,"[-0.3, 0]",None,,,,,0.0,9.0,9.0,9.0,,,,,2563.649000999999,,,,,,,,,,,,,,,,,,,,,,,,,,,,,,,,,,,,,,,,,,,,,,,2563.6338515,2563.649000999999,2563.649000999999,2564.1489871999997,2564.1489871999997,2566.6490398,2566.6490398,2566.6334548000004,None,1.0,,,,,,,,,,,,,,,,,,,,,,,,,,nback20,1.0,2023-12-11_18h21.31.407,untitled,2023.2.3,60.02231629691494,2023-12-11 18h21.41.810688 -0500,
11.0,"[-0.64, -0.4]",None,,,,,0.0,10.0,10.0,10.0,,,,,2566.6490398,,,,,,,,,,,,,,,,,,,,,,,,,,,,,,,,,,,,,,,,,,,,,,,2566.634298599999,2566.6490398,2566.6490398,2567.149064,2567.149064,2569.6489565,2569.6489565,2569.633170099999,None,1.0,,,,,,,,,,,,,,,,,,,,,,,,,,nback20,1.0,2023-12-11_18h21.31.407,untitled,2023.2.3,60.02231629691494,2023-12-11 18h21.41.810688 -0500,
11.0,"[-0.64, -0.4]",space,,,,,0.0,11.0,11.0,11.0,,,,,2569.6489565,,,,,,,,,,,,,,,,,,,,,,,,,,,,,,,,,,,,,,,,,,,,,,,2569.6338618,2569.6489565,2569.6489565,2570.148930799999,2570.148930799999,2572.6488401,2572.6488401,2572.6333033,space,1.0,0.3912232000002404,None,,,,,,,,,,,,,,,,,,,,,,,,nback20,1.0,2023-12-11_18h21.31.407,untitled,2023.2.3,60.02231629691494,2023-12-11 18h21.41.810688 -0500,
4.0,"[-0.2, 0.1]",None,,,,,0.0,12.0,12.0,12.0,,,,,2572.6488401,,,,,,,,,,,,,,,,,,,,,,,,,,,,,,,,,,,,,,,,,,,,,,,2572.6342608999994,2572.6488401,2572.6488401,2573.1487678999997,2573.1487678999997,2575.6488574999994,2575.6488574999994,2575.6327599999995,None,1.0,,,,,,,,,,,,,,,,,,,,,,,,,,nback20,1.0,2023-12-11_18h21.31.407,untitled,2023.2.3,60.02231629691494,2023-12-11 18h21.41.810688 -0500,
3.0,"[0, 0.2]",None,,,,,0.0,13.0,13.0,13.0,,,,,2575.6488574999994,,,,,,,,,,,,,,,,,,,,,,,,,,,,,,,,,,,,,,,,,,,,,,,2575.633360499999,2575.6488574999994,2575.6488574999994,2576.1488010000003,2576.1488010000003,2578.64874,2578.64874,2578.6330530000005,None,1.0,,,,,,,,,,,,,,,,,,,,,,,,,,nback20,1.0,2023-12-11_18h21.31.407,untitled,2023.2.3,60.02231629691494,2023-12-11 18h21.41.810688 -0500,
3.0,"[0, 0.2]",space,,,,,0.0,14.0,14.0,14.0,,,,,2578.64874,,,,,,,,,,,,,,,,,,,,,,,,,,,,,,,,,,,,,,,,,,,,,,,2578.6338148999994,2578.64874,2578.64874,2579.1489826000006,2579.1489826000006,2581.6487745000004,2581.6487745000004,2581.6332022,space,1.0,0.3869099000003189,None,,,,,,,,,,,,,,,,,,,,,,,,nback20,1.0,2023-12-11_18h21.31.407,untitled,2023.2.3,60.02231629691494,2023-12-11 18h21.41.810688 -0500,
8.0,"[-0.2, -0.1]",None,,,,,0.0,15.0,15.0,15.0,,,,,2581.6487745000004,,,,,,,,,,,,,,,,,,,,,,,,,,,,,,,,,,,,,,,,,,,,,,,2581.634142599999,2581.6487745000004,2581.6487745000004,2582.148947999999,2582.148947999999,2584.6487332999995,2584.6487332999995,2584.6330319,None,1.0,,,,,,,,,,,,,,,,,,,,,,,,,,nback20,1.0,2023-12-11_18h21.31.407,untitled,2023.2.3,60.02231629691494,2023-12-11 18h21.41.810688 -0500,
1.0,"[-0.64, 0.4]",None,,,,,0.0,16.0,16.0,16.0,,,,,2584.6487332999995,,,,,,,,,,,,,,,,,,,,,,,,,,,,,,,,,,,,,,,,,,,,,,,2584.6337732,2584.6487332999995,2584.6487332999995,2585.1486531,2585.1486531,2587.6485870999995,2587.6485870999995,2587.632751099999,None,1.0,,,,,,,,,,,,,,,,,,,,,,,,,,nback20,1.0,2023-12-11_18h21.31.407,untitled,2023.2.3,60.02231629691494,2023-12-11 18h21.41.810688 -0500,
2.0,"[0.64, 0.4]",None,,,,,0.0,17.0,17.0,17.0,,,,,2587.6485870999995,,,,,,,,,,,,,,,,,,,,,,,,,,,,,,,,,,,,,,,,,,,,,,,2587.6333962,2587.6485870999995,2587.6485870999995,2588.1486792000005,2588.1486792000005,2590.6484938000003,2590.6484938000003,2590.632785499999,None,1.0,,,,,,,,,,,,,,,,,,,,,,,,,,nback20,1.0,2023-12-11_18h21.31.407,untitled,2023.2.3,60.02231629691494,2023-12-11 18h21.41.810688 -0500,
4.0,"[-0.2, 0.1]",None,,,,,0.0,18.0,18.0,18.0,,,,,2590.6484938000003,,,,,,,,,,,,,,,,,,,,,,,,,,,,,,,,,,,,,,,,,,,,,,,2590.6334089,2590.6484938000003,2590.6484938000003,2591.1485754,2591.1485754,2593.6485076,2593.6485076,2593.6328315,None,1.0,,,,,,,,,,,,,,,,,,,,,,,,,,nback20,1.0,2023-12-11_18h21.31.407,untitled,2023.2.3,60.02231629691494,2023-12-11 18h21.41.810688 -0500,
4.0,"[-0.2, 0.1]",space,,,,,0.0,19.0,19.0,19.0,,,,,2593.6485076,,,,,,,,,,,,,,,,,,,,,,,,,,,,,,,,,,,,,,,,,,,,,,,2593.6335441,2593.6485076,2593.6485076,2594.1485418,2594.1485418,2596.6484209,2596.6484209,2596.6328229,space,1.0,0.4084685000016179,None,,,,,,,,,,,,,,,,,,,,,,,,nback20,1.0,2023-12-11_18h21.31.407,untitled,2023.2.3,60.02231629691494,2023-12-11 18h21.41.810688 -0500,
8.0,"[-0.2, -0.1]",None,,,,,0.0,20.0,20.0,20.0,,,,,2596.6484209,,,,,,,,,,,,,,,,,,,,,,,,,,,,,,,,,,,,,,,,,,,,,,,2596.633865499999,2596.6484209,2596.6484209,2597.148266699999,2597.148266699999,2599.6483741,2599.6483741,2599.6323934,None,1.0,,,,,,,,,,,,,,,,,,,,,,,,,,nback20,1.0,2023-12-11_18h21.31.407,untitled,2023.2.3,60.02231629691494,2023-12-11 18h21.41.810688 -0500,
5.0,"[0.2, 0.1]",None,,,,,0.0,21.0,21.0,21.0,,,,,2599.6483741,,,,,,,,,,,,,,,,,,,,,,,,,,,,,,,,,,,,,,,,,,,,,,,2599.6330374,2599.6483741,2599.6483741,2600.148500799999,2600.148500799999,2602.6483660999997,2602.6483660999997,2602.632876499999,None,1.0,,,,,,,,,,,,,,,,,,,,,,,,,,nback20,1.0,2023-12-11_18h21.31.407,untitled,2023.2.3,60.02231629691494,2023-12-11 18h21.41.810688 -0500,
5.0,"[0.2, 0.1]",space,,,,,0.0,22.0,22.0,22.0,,,,,2602.6483660999997,,,,,,,,,,,,,,,,,,,,,,,,,,,,,,,,,,,,,,,,,,,,,,,2602.6336894000005,2602.6483660999997,2602.6483660999997,2603.148628800001,2603.148628800001,2605.648367999999,2605.648367999999,2605.6323649,space,1.0,0.7316295000000537,None,,,,,,,,,,,,,,,,,,,,,,,,nback20,1.0,2023-12-11_18h21.31.407,untitled,2023.2.3,60.02231629691494,2023-12-11 18h21.41.810688 -0500,
1.0,"[-0.64, 0.4]",None,,,,,0.0,23.0,23.0,23.0,,,,,2605.648367999999,,,,,,,,,,,,,,,,,,,,,,,,,,,,,,,,,,,,,,,,,,,,,,,2605.6330093000006,2605.648367999999,2605.648367999999,2606.148357699999,2606.148357699999,2608.6483083,2608.6483083,2608.632624499999,None,1.0,,,,,,,,,,,,,,,,,,,,,,,,,,nback20,1.0,2023-12-11_18h21.31.407,untitled,2023.2.3,60.02231629691494,2023-12-11 18h21.41.810688 -0500,
3.0,"[0, 0.2]",None,,,,,0.0,24.0,24.0,24.0,,,,,2608.6483083,,,,,,,,,,,,,,,,,,,,,,,,,,,,,,,,,,,,,,,,,,,,,,,2608.633439799999,2608.6483083,2608.6483083,2609.148376300001,2609.148376300001,2611.6482499000003,2611.6482499000003,2611.6323757,None,1.0,,,,,,,,,,,,,,,,,,,,,,,,,,nback20,1.0,2023-12-11_18h21.31.407,untitled,2023.2.3,60.02231629691494,2023-12-11 18h21.41.810688 -0500,
6.0,"[-0.3, 0]",None,,,,,0.0,25.0,25.0,25.0,,,,,2611.6482499000003,,,,,,,,,,,,,,,,,,,,,,,,,,,,,,,,,,,,,,,,,,,,,,,2611.633087199999,2611.6482499000003,2611.6482499000003,2612.1482157,2612.1482157,2614.648172,2614.648172,2614.6321586999998,None,1.0,,,,,,,,,,,,,,,,,,,,,,,,,,nback20,1.0,2023-12-11_18h21.31.407,untitled,2023.2.3,60.02231629691494,2023-12-11 18h21.41.810688 -0500,
1.0,"[-0.64, 0.4]",None,,,,,0.0,26.0,26.0,26.0,,,,,2614.648172,,,,,,,,,,,,,,,,,,,,,,,,,,,,,,,,,,,,,,,,,,,,,,,2614.6327228,2614.648172,2614.648172,2615.1479675,2615.1479675,2617.6481514,2617.6481514,2617.6322059999998,None,1.0,,,,,,,,,,,,,,,,,,,,,,,,,,nback20,1.0,2023-12-11_18h21.31.407,untitled,2023.2.3,60.02231629691494,2023-12-11 18h21.41.810688 -0500,
1.0,"[-0.64, 0.4]",space,,,,,0.0,27.0,27.0,27.0,,,,,2617.6481514,,,,,,,,,,,,,,,,,,,,,,,,,,,,,,,,,,,,,,,,,,,,,,,2617.6328988,2617.6481514,2617.6481514,2618.1479059000003,2618.1479059000003,2620.6480318999998,2620.6480318999998,2620.6321309999994,space,1.0,0.4269063000010646,None,,,,,,,,,,,,,,,,,,,,,,,,nback20,1.0,2023-12-11_18h21.31.407,untitled,2023.2.3,60.02231629691494,2023-12-11 18h21.41.810688 -0500,
1.0,"[-0.64, 0.4]",space,,,,,0.0,28.0,28.0,28.0,,,,,2620.6480318999998,,,,,,,,,,,,,,,,,,,,,,,,,,,,,,,,,,,,,,,,,,,,,,,2620.632781400001,2620.6480318999998,2620.6480318999998,2621.1477736000006,2621.1477736000006,2623.6481828000005,2623.6481828000005,2623.632323499999,None,0.0,,,,,,,,,,,,,,,,,,,,,,,,,,nback20,1.0,2023-12-11_18h21.31.407,untitled,2023.2.3,60.02231629691494,2023-12-11 18h21.41.810688 -0500,
3.0,"[0, 0.2]",None,,,,,0.0,29.0,29.0,29.0,,,,,2623.6481828000005,,,,,,,,,,,,,,,,,,,,,,,,,,,,,,,,,,,,,,,,,,,,,,,2623.633051100001,2623.6481828000005,2623.6481828000005,2624.147686699999,2624.147686699999,2626.6479075,2626.6479075,2626.632327299999,None,1.0,,,,,,,,,,,,,,,,,,,,,,,,,,nback20,1.0,2023-12-11_18h21.31.407,untitled,2023.2.3,60.02231629691494,2023-12-11 18h21.41.810688 -0500,
12.0,"[0.64, -0.4]",None,,,,,0.0,30.0,30.0,30.0,,,,,2626.6479075,,,,,,,,,,,,,,,,,,,,,,,,,,,,,,,,,,,,,,,,,,,,,,,2626.6331034999994,2626.6479075,2626.6479075,2627.1477967,2627.1477967,2629.6479553,2629.6479553,2629.6319075,None,1.0,,,,,,,,,,,,,,,,,,,,,,,,,,nback20,1.0,2023-12-11_18h21.31.407,untitled,2023.2.3,60.02231629691494,2023-12-11 18h21.41.810688 -0500,
12.0,"[0.64, -0.4]",space,,,,,0.0,31.0,31.0,31.0,,,,,2629.6479553,,,,,,,,,,,,,,,,,,,,,,,,,,,,,,,,,,,,,,,,,,,,,,,2629.6325776000003,2629.6479553,2629.6479553,2630.1476883999994,2630.1476883999994,2632.6479474,2632.6479474,2632.6321999,space,1.0,0.3635334999999031,None,,,,,,,,,,,,,,,,,,,,,,,,nback20,1.0,2023-12-11_18h21.31.407,untitled,2023.2.3,60.02231629691494,2023-12-11 18h21.41.810688 -0500,
2.0,"[0.64, 0.4]",None,,,,,0.0,32.0,32.0,32.0,,,,,2632.6479474,,,,,,,,,,,,,,,,,,,,,,,,,,,,,,,,,,,,,,,,,,,,,,,2632.6331397999998,2632.6479474,2632.6479474,2633.1476489000006,2633.1476489000006,2635.6479422,2635.6479422,2635.632209799999,None,1.0,,,,,,,,,,,,,,,,,,,,,,,,,,nback20,1.0,2023-12-11_18h21.31.407,untitled,2023.2.3,60.02231629691494,2023-12-11 18h21.41.810688 -0500,
1.0,"[-0.64, 0.4]",None,,,,,0.0,33.0,33.0,33.0,,,,,2635.6479422,,,,,,,,,,,,,,,,,,,,,,,,,,,,,,,,,,,,,,,,,,,,,,,2635.6330904,2635.6479422,2635.6479422,2636.1475728,2636.1475728,2638.6478431999994,2638.6478431999994,2638.6319951,None,1.0,,,,,,,,,,,,,,,,,,,,,,,,,,nback20,1.0,2023-12-11_18h21.31.407,untitled,2023.2.3,60.02231629691494,2023-12-11 18h21.41.810688 -0500,
7.0,"[0.3, 0]",None,,,,,0.0,34.0,34.0,34.0,,,,,2638.6478431999994,,,,,,,,,,,,,,,,,,,,,,,,,,,,,,,,,,,,,,,,,,,,,,,2638.6327071000005,2638.6478431999994,2638.6478431999994,2639.1474756,2639.1474756,2641.6478032999994,2641.6478032999994,2641.632069299999,None,1.0,,,,,,,,,,,,,,,,,,,,,,,,,,nback20,1.0,2023-12-11_18h21.31.407,untitled,2023.2.3,60.02231629691494,2023-12-11 18h21.41.810688 -0500,
7.0,"[0.3, 0]",space,,,,,0.0,35.0,35.0,35.0,,,,,2641.6478032999994,,,,,,,,,,,,,,,,,,,,,,,,,,,,,,,,,,,,,,,,,,,,,,,2641.6328523,2641.6478032999994,2641.6478032999994,2642.1477124000003,2642.1477124000003,2644.6475562000005,2644.6475562000005,2644.6320303,space,1.0,0.626322699999946,None,,,,,,,,,,,,,,,,,,,,,,,,nback20,1.0,2023-12-11_18h21.31.407,untitled,2023.2.3,60.02231629691494,2023-12-11 18h21.41.810688 -0500,
11.0,"[-0.64, -0.4]",None,,,,,0.0,36.0,36.0,36.0,,,,,2644.6475562000005,,,,,,,,,,,,,,,,,,,,,,,,,,,,,,,,,,,,,,,,,,,,,,,2644.6330644,2644.6475562000005,2644.6475562000005,2645.147512299999,2645.147512299999,2647.6476811,2647.6476811,2647.631725,None,1.0,,,,,,,,,,,,,,,,,,,,,,,,,,nback20,1.0,2023-12-11_18h21.31.407,untitled,2023.2.3,60.02231629691494,2023-12-11 18h21.41.810688 -0500,
2.0,"[0.64, 0.4]",None,,,,,0.0,37.0,37.0,37.0,,,,,2647.6476811,,,,,,,,,,,,,,,,,,,,,,,,,,,,,,,,,,,,,,,,,,,,,,,2647.6324171999995,2647.6476811,2647.6476811,2648.147372999999,2648.147372999999,2650.6476012,2650.6476012,2650.6318650999992,None,1.0,,,,,,,,,,,,,,,,,,,,,,,,,,nback20,1.0,2023-12-11_18h21.31.407,untitled,2023.2.3,60.02231629691494,2023-12-11 18h21.41.810688 -0500,
6.0,"[-0.3, 0]",None,,,,,0.0,38.0,38.0,38.0,,,,,2650.6476012,,,,,,,,,,,,,,,,,,,,,,,,,,,,,,,,,,,,,,,,,,,,,,,2650.6325891000006,2650.6476012,2650.6476012,2651.1474578000007,2651.1474578000007,2653.6475717999992,2653.6475717999992,2653.6317413000006,None,1.0,,,,,,,,,,,,,,,,,,,,,,,,,,nback20,1.0,2023-12-11_18h21.31.407,untitled,2023.2.3,60.02231629691494,2023-12-11 18h21.41.810688 -0500,
10.0,"[0, -0.2]",None,,,,,0.0,39.0,39.0,39.0,,,,,2653.6475717999992,,,,,,,,,,,,,,,,,,,,,,,,,,,,,,,,,,,,,,,,,,,,,,,2653.632527499999,2653.6475717999992,2653.6475717999992,2654.1475187000005,2654.1475187000005,2656.6477171,2656.6477171,2656.631970199999,None,1.0,,,,,,,,,,,,,,,,,,,,,,,,,,nback20,1.0,2023-12-11_18h21.31.407,untitled,2023.2.3,60.02231629691494,2023-12-11 18h21.41.810688 -0500,
,,,,,,,,,,,,,,,,,,,,,,,,,,,,,,,,,,,,,,,,,,,,,,,,,,,,,,,,,,,,,,,,,,,,,,,,,,2656.6325011,2656.6477171,2656.6477171,2675.5157231999992,space,18.863679000000047,None,,,,,,,,,,,,,,,,,nback20,1.0,2023-12-11_18h21.31.407,untitled,2023.2.3,60.02231629691494,2023-12-11 18h21.41.810688 -0500,
,"[0.2, 0.1]",None,,,,,,,,,0.0,0.0,0.0,0.0,2676.5305691000003,,,,,,,,,,,,,,,,,,,,,,,,2675.5157666999994,2675.5307059,2676.5305691000003,2676.514546199999,,,,,,,,,,,,,,,,,,,,,,,,,,,,,,,,,,,,,,,2676.5260021000004,2676.5305691000003,2676.5305691000003,2677.0305739999994,2677.0305739999994,2679.5305112,2679.5305112,2679.514881599999,None,1.0,,,,,,,nback20,1.0,2023-12-11_18h21.31.407,untitled,2023.2.3,60.02231629691494,2023-12-11 18h21.41.810688 -0500,
,"[0.64, 0.4]",None,,,,,,,,,0.0,1.0,1.0,1.0,2679.5305112,,,,,,,,,,,,,,,,,,,,,,,,,,,,,,,,,,,,,,,,,,,,,,,,,,,,,,,,,,,,,,,,,,2679.515793,2679.5305112,2679.5305112,2680.0304224,2680.0304224,2682.530270799999,2682.530270799999,2682.5145427,None,1.0,,,,,,,nback20,1.0,2023-12-11_18h21.31.407,untitled,2023.2.3,60.02231629691494,2023-12-11 18h21.41.810688 -0500,
,"[-0.3, 0]",None,,,,,,,,,0.0,2.0,2.0,2.0,2682.530270799999,,,,,,,,,,,,,,,,,,,,,,,,,,,,,,,,,,,,,,,,,,,,,,,,,,,,,,,,,,,,,,,,,,2682.5151765,2682.530270799999,2682.530270799999,2683.030469299999,2683.030469299999,2685.5301807000005,2685.5301807000005,2685.5145110000003,None,1.0,,,,,,,nback20,1.0,2023-12-11_18h21.31.407,untitled,2023.2.3,60.02231629691494,2023-12-11 18h21.41.810688 -0500,
,"[0.2, -0.1]",None,,,,,,,,,0.0,3.0,3.0,3.0,2685.5301807000005,,,,,,,,,,,,,,,,,,,,,,,,,,,,,,,,,,,,,,,,,,,,,,,,,,,,,,,,,,,,,,,,,,2685.5152243,2685.5301807000005,2685.5301807000005,2686.030194,2686.030194,2688.5302495000005,2688.5302495000005,2688.5142754,None,1.0,,,,,,,nback20,1.0,2023-12-11_18h21.31.407,untitled,2023.2.3,60.02231629691494,2023-12-11 18h21.41.810688 -0500,
,"[0, 0.2]",None,,,,,,,,,0.0,4.0,4.0,4.0,2688.5302495000005,,,,,,,,,,,,,,,,,,,,,,,,,,,,,,,,,,,,,,,,,,,,,,,,,,,,,,,,,,,,,,,,,,2688.5148251,2688.5302495000005,2688.5302495000005,2689.0303183999995,2689.0303183999995,2691.530150399999,2691.530150399999,2691.514451599999,None,1.0,,,,,,,nback20,1.0,2023-12-11_18h21.31.407,untitled,2023.2.3,60.02231629691494,2023-12-11 18h21.41.810688 -0500,
,"[0.2, -0.1]",space,,,,,,,,,0.0,5.0,5.0,5.0,2691.530150399999,,,,,,,,,,,,,,,,,,,,,,,,,,,,,,,,,,,,,,,,,,,,,,,,,,,,,,,,,,,,,,,,,,2691.5150975999995,2691.530150399999,2691.530150399999,2692.030138199999,2692.030138199999,2694.530092599999,2694.530092599999,2694.514492400001,None,0.0,,,,,,,nback20,1.0,2023-12-11_18h21.31.407,untitled,2023.2.3,60.02231629691494,2023-12-11 18h21.41.810688 -0500,
,"[0, -0.2]",None,,,,,,,,,0.0,6.0,6.0,6.0,2694.530092599999,,,,,,,,,,,,,,,,,,,,,,,,,,,,,,,,,,,,,,,,,,,,,,,,,,,,,,,,,,,,,,,,,,2694.515299,2694.530092599999,2694.530092599999,2695.0301967000005,2695.0301967000005,2697.5301248999995,2697.5301248999995,2697.5140676,None,1.0,,,,,,,nback20,1.0,2023-12-11_18h21.31.407,untitled,2023.2.3,60.02231629691494,2023-12-11 18h21.41.810688 -0500,
,"[0.64, -0.4]",None,,,,,,,,,0.0,7.0,7.0,7.0,2697.5301248999995,,,,,,,,,,,,,,,,,,,,,,,,,,,,,,,,,,,,,,,,,,,,,,,,,,,,,,,,,,,,,,,,,,2697.5147382000005,2697.5301248999995,2697.5301248999995,2698.0302053000005,2698.0302053000005,2700.5301477000003,2700.5301477000003,2700.5141711999995,None,1.0,,,,,,,nback20,1.0,2023-12-11_18h21.31.407,untitled,2023.2.3,60.02231629691494,2023-12-11 18h21.41.810688 -0500,
,"[0.3, 0]",None,,,,,,,,,0.0,8.0,8.0,8.0,2700.5301477000003,,,,,,,,,,,,,,,,,,,,,,,,,,,,,,,,,,,,,,,,,,,,,,,,,,,,,,,,,,,,,,,,,,2700.5147654,2700.5301477000003,2700.5301477000003,2701.030136799999,2701.030136799999,2703.5299270000005,2703.5299270000005,2703.5140134000003,None,1.0,,,,,,,nback20,1.0,2023-12-11_18h21.31.407,untitled,2023.2.3,60.02231629691494,2023-12-11 18h21.41.810688 -0500,
,"[0.64, -0.4]",space,,,,,,,,,0.0,9.0,9.0,9.0,2703.5299270000005,,,,,,,,,,,,,,,,,,,,,,,,,,,,,,,,,,,,,,,,,,,,,,,,,,,,,,,,,,,,,,,,,,2703.5145884000003,2703.5299270000005,2703.5299270000005,2704.0301100000006,2704.0301100000006,2706.5298708,2706.5298708,2706.5140624999995,None,0.0,,,,,,,nback20,1.0,2023-12-11_18h21.31.407,untitled,2023.2.3,60.02231629691494,2023-12-11 18h21.41.810688 -0500,
,"[-0.64, 0.4]",None,,,,,,,,,0.0,10.0,10.0,10.0,2706.5298708,,,,,,,,,,,,,,,,,,,,,,,,,,,,,,,,,,,,,,,,,,,,,,,,,,,,,,,,,,,,,,,,,,2706.5146368,2706.5298708,2706.5298708,2707.0299171,2707.0299171,2709.530053899999,2709.530053899999,2709.5140697,None,1.0,,,,,,,nback20,1.0,2023-12-11_18h21.31.407,untitled,2023.2.3,60.02231629691494,2023-12-11 18h21.41.810688 -0500,
,"[0.2, 0.1]",None,,,,,,,,,0.0,11.0,11.0,11.0,2709.530053899999,,,,,,,,,,,,,,,,,,,,,,,,,,,,,,,,,,,,,,,,,,,,,,,,,,,,,,,,,,,,,,,,,,2709.5147487000004,2709.530053899999,2709.530053899999,2710.030074899999,2710.030074899999,2712.5297466,2712.5297466,2712.51373,None,1.0,,,,,,,nback20,1.0,2023-12-11_18h21.31.407,untitled,2023.2.3,60.02231629691494,2023-12-11 18h21.41.810688 -0500,
,"[0.3, 0]",None,,,,,,,,,0.0,12.0,12.0,12.0,2712.5297466,,,,,,,,,,,,,,,,,,,,,,,,,,,,,,,,,,,,,,,,,,,,,,,,,,,,,,,,,,,,,,,,,,2712.514229199999,2712.5297466,2712.5297466,2713.029805199999,2713.029805199999,2715.5299552000006,2715.5299552000006,2715.5141094,None,1.0,,,,,,,nback20,1.0,2023-12-11_18h21.31.407,untitled,2023.2.3,60.02231629691494,2023-12-11 18h21.41.810688 -0500,
,"[0.2, 0.1]",space,,,,,,,,,0.0,13.0,13.0,13.0,2715.5299552000006,,,,,,,,,,,,,,,,,,,,,,,,,,,,,,,,,,,,,,,,,,,,,,,,,,,,,,,,,,,,,,,,,,2715.5147394000005,2715.5299552000006,2715.5299552000006,2716.0298758,2716.0298758,2718.529662099999,2718.529662099999,2718.5132745,None,0.0,,,,,,,nback20,1.0,2023-12-11_18h21.31.407,untitled,2023.2.3,60.02231629691494,2023-12-11 18h21.41.810688 -0500,
,"[-0.3, 0]",None,,,,,,,,,0.0,14.0,14.0,14.0,2718.529662099999,,,,,,,,,,,,,,,,,,,,,,,,,,,,,,,,,,,,,,,,,,,,,,,,,,,,,,,,,,,,,,,,,,2718.5135932000003,2718.529662099999,2718.529662099999,2719.0298183999994,2719.0298183999994,2721.529783699999,2721.529783699999,2721.5140632,None,1.0,,,,,,,nback20,1.0,2023-12-11_18h21.31.407,untitled,2023.2.3,60.02231629691494,2023-12-11 18h21.41.810688 -0500,
,"[0, 0.2]",None,,,,,,,,,0.0,15.0,15.0,15.0,2721.529783699999,,,,,,,,,,,,,,,,,,,,,,,,,,,,,,,,,,,,,,,,,,,,,,,,,,,,,,,,,,,,,,,,,,2721.514749499999,2721.529783699999,2721.529783699999,2722.0297803999997,2722.0297803999997,2724.5294712999994,2724.5294712999994,2724.5138782000004,None,1.0,,,,,,,nback20,1.0,2023-12-11_18h21.31.407,untitled,2023.2.3,60.02231629691494,2023-12-11 18h21.41.810688 -0500,
,"[-0.3, 0]",space,,,,,,,,,0.0,16.0,16.0,16.0,2724.5294712999994,,,,,,,,,,,,,,,,,,,,,,,,,,,,,,,,,,,,,,,,,,,,,,,,,,,,,,,,,,,,,,,,,,2724.514419599999,2724.5294712999994,2724.5294712999994,2725.029701799999,2725.029701799999,2727.529755299999,2727.529755299999,2727.514108799999,None,0.0,,,,,,,nback20,1.0,2023-12-11_18h21.31.407,untitled,2023.2.3,60.02231629691494,2023-12-11 18h21.41.810688 -0500,
,"[-0.64, -0.4]",None,,,,,,,,,0.0,17.0,17.0,17.0,2727.529755299999,,,,,,,,,,,,,,,,,,,,,,,,,,,,,,,,,,,,,,,,,,,,,,,,,,,,,,,,,,,,,,,,,,2727.5147996000005,2727.529755299999,2727.529755299999,2728.0296788999995,2728.0296788999995,2730.5294122000005,2730.5294122000005,2730.5139408999994,None,1.0,,,,,,,nback20,1.0,2023-12-11_18h21.31.407,untitled,2023.2.3,60.02231629691494,2023-12-11 18h21.41.810688 -0500,
,"[-0.2, -0.1]",None,,,,,,,,,0.0,18.0,18.0,18.0,2730.5294122000005,,,,,,,,,,,,,,,,,,,,,,,,,,,,,,,,,,,,,,,,,,,,,,,,,,,,,,,,,,,,,,,,,,2730.5145814,2730.5294122000005,2730.5294122000005,2731.0297500999995,2731.0297500999995,2733.5296788000005,2733.5296788000005,2733.5137478000006,None,1.0,,,,,,,nback20,1.0,2023-12-11_18h21.31.407,untitled,2023.2.3,60.02231629691494,2023-12-11 18h21.41.810688 -0500,
,"[0.2, -0.1]",None,,,,,,,,,0.0,19.0,19.0,19.0,2733.5296788000005,,,,,,,,,,,,,,,,,,,,,,,,,,,,,,,,,,,,,,,,,,,,,,,,,,,,,,,,,,,,,,,,,,2733.514365,2733.5296788000005,2733.5296788000005,2734.029443299999,2734.029443299999,2736.5295209000005,2736.5295209000005,2736.5139831000006,None,1.0,,,,,,,nback20,1.0,2023-12-11_18h21.31.407,untitled,2023.2.3,60.02231629691494,2023-12-11 18h21.41.810688 -0500,
,"[0.2, -0.1]",None,,,,,,,,,0.0,20.0,20.0,20.0,2736.5295209000005,,,,,,,,,,,,,,,,,,,,,,,,,,,,,,,,,,,,,,,,,,,,,,,,,,,,,,,,,,,,,,,,,,2736.5147661,2736.5295209000005,2736.5295209000005,2737.0295514,2737.0295514,2739.5293797000004,2739.5293797000004,2739.5139677,space,0.0,1.3769506999997247,None,,,,,nback20,1.0,2023-12-11_18h21.31.407,untitled,2023.2.3,60.02231629691494,2023-12-11 18h21.41.810688 -0500,
,"[-0.64, 0.4]",None,,,,,,,,,0.0,21.0,21.0,21.0,2739.5293797000004,,,,,,,,,,,,,,,,,,,,,,,,,,,,,,,,,,,,,,,,,,,,,,,,,,,,,,,,,,,,,,,,,,2739.515212400001,2739.5293797000004,2739.5293797000004,2740.029324799999,2740.029324799999,2742.5292394,2742.5292394,2742.5136749999992,None,1.0,,,,,,,nback20,1.0,2023-12-11_18h21.31.407,untitled,2023.2.3,60.02231629691494,2023-12-11 18h21.41.810688 -0500,
,"[0, 0.2]",None,,,,,,,,,0.0,22.0,22.0,22.0,2742.5292394,,,,,,,,,,,,,,,,,,,,,,,,,,,,,,,,,,,,,,,,,,,,,,,,,,,,,,,,,,,,,,,,,,2742.5145045,2742.5292394,2742.5292394,2743.0294883,2743.0294883,2745.529336499999,2745.529336499999,2745.5134594,None,1.0,,,,,,,nback20,1.0,2023-12-11_18h21.31.407,untitled,2023.2.3,60.02231629691494,2023-12-11 18h21.41.810688 -0500,
,"[0.64, -0.4]",None,,,,,,,,,0.0,23.0,23.0,23.0,2745.529336499999,,,,,,,,,,,,,,,,,,,,,,,,,,,,,,,,,,,,,,,,,,,,,,,,,,,,,,,,,,,,,,,,,,2745.514027,2745.529336499999,2745.529336499999,2746.029250299999,2746.029250299999,2748.5292982,2748.5292982,2748.5136369,None,1.0,,,,,,,nback20,1.0,2023-12-11_18h21.31.407,untitled,2023.2.3,60.02231629691494,2023-12-11 18h21.41.810688 -0500,
,"[0, 0.2]",space,,,,,,,,,0.0,24.0,24.0,24.0,2748.5292982,,,,,,,,,,,,,,,,,,,,,,,,,,,,,,,,,,,,,,,,,,,,,,,,,,,,,,,,,,,,,,,,,,2748.5142664999994,2748.5292982,2748.5292982,2749.0293639,2749.0293639,2751.529146599999,2751.529146599999,2751.5133555,space,1.0,1.372636499998407,None,,,,,nback20,1.0,2023-12-11_18h21.31.407,untitled,2023.2.3,60.02231629691494,2023-12-11 18h21.41.810688 -0500,
,"[-0.2, 0.1]",None,,,,,,,,,0.0,25.0,25.0,25.0,2751.529146599999,,,,,,,,,,,,,,,,,,,,,,,,,,,,,,,,,,,,,,,,,,,,,,,,,,,,,,,,,,,,,,,,,,2751.514062199999,2751.529146599999,2751.529146599999,2752.0293049,2752.0293049,2754.5291604999998,2754.5291604999998,2754.5134947,None,1.0,,,,,,,nback20,1.0,2023-12-11_18h21.31.407,untitled,2023.2.3,60.02231629691494,2023-12-11 18h21.41.810688 -0500,
,"[0.3, 0]",None,,,,,,,,,0.0,26.0,26.0,26.0,2754.5291604999998,,,,,,,,,,,,,,,,,,,,,,,,,,,,,,,,,,,,,,,,,,,,,,,,,,,,,,,,,,,,,,,,,,2754.514138899999,2754.5291604999998,2754.5291604999998,2755.029276099999,2755.029276099999,2757.529202999999,2757.529202999999,2757.5132208000005,None,1.0,,,,,,,nback20,1.0,2023-12-11_18h21.31.407,untitled,2023.2.3,60.02231629691494,2023-12-11 18h21.41.810688 -0500,
,"[-0.2, 0.1]",space,,,,,,,,,0.0,27.0,27.0,27.0,2757.529202999999,,,,,,,,,,,,,,,,,,,,,,,,,,,,,,,,,,,,,,,,,,,,,,,,,,,,,,,,,,,,,,,,,,2757.5139038000007,2757.529202999999,2757.529202999999,2758.0291186000004,2758.0291186000004,2760.5290069,2760.5290069,2760.5132971,space,1.0,0.548650999999154,None,,,,,nback20,1.0,2023-12-11_18h21.31.407,untitled,2023.2.3,60.02231629691494,2023-12-11 18h21.41.810688 -0500,
,"[-0.2, 0.1]",None,,,,,,,,,0.0,28.0,28.0,28.0,2760.5290069,,,,,,,,,,,,,,,,,,,,,,,,,,,,,,,,,,,,,,,,,,,,,,,,,,,,,,,,,,,,,,,,,,2760.5141512,2760.5290069,2760.5290069,2761.0289582,2761.0289582,2763.5291393,2763.5291393,2763.5132817000003,None,1.0,,,,,,,nback20,1.0,2023-12-11_18h21.31.407,untitled,2023.2.3,60.02231629691494,2023-12-11 18h21.41.810688 -0500,
,"[0.2, 0.1]",None,,,,,,,,,0.0,29.0,29.0,29.0,2763.5291393,,,,,,,,,,,,,,,,,,,,,,,,,,,,,,,,,,,,,,,,,,,,,,,,,,,,,,,,,,,,,,,,,,2763.513928199999,2763.5291393,2763.5291393,2764.029144699999,2764.029144699999,2766.5291086000007,2766.5291086000007,2766.5133303,None,1.0,,,,,,,nback20,1.0,2023-12-11_18h21.31.407,untitled,2023.2.3,60.02231629691494,2023-12-11 18h21.41.810688 -0500,
,"[-0.64, -0.4]",None,,,,,,,,,0.0,30.0,30.0,30.0,2766.5291086000007,,,,,,,,,,,,,,,,,,,,,,,,,,,,,,,,,,,,,,,,,,,,,,,,,,,,,,,,,,,,,,,,,,2766.5140403,2766.5291086000007,2766.5291086000007,2767.0289882000006,2767.0289882000006,2769.5290261,2769.5290261,2769.5132594,None,1.0,,,,,,,nback20,1.0,2023-12-11_18h21.31.407,untitled,2023.2.3,60.02231629691494,2023-12-11 18h21.41.810688 -0500,
,"[0, -0.2]",None,,,,,,,,,0.0,31.0,31.0,31.0,2769.5290261,,,,,,,,,,,,,,,,,,,,,,,,,,,,,,,,,,,,,,,,,,,,,,,,,,,,,,,,,,,,,,,,,,2769.5139914,2769.5290261,2769.5290261,2770.028877399999,2770.028877399999,2772.5289834000005,2772.5289834000005,2772.5133457,None,1.0,,,,,,,nback20,1.0,2023-12-11_18h21.31.407,untitled,2023.2.3,60.02231629691494,2023-12-11 18h21.41.810688 -0500,
,"[-0.64, -0.4]",space,,,,,,,,,0.0,32.0,32.0,32.0,2772.5289834000005,,,,,,,,,,,,,,,,,,,,,,,,,,,,,,,,,,,,,,,,,,,,,,,,,,,,,,,,,,,,,,,,,,2772.5141090000006,2772.5289834000005,2772.5289834000005,2773.0286726000004,2773.0286726000004,2775.5288324000003,2775.5288324000003,2775.5131591,space,1.0,1.1518174999982875,None,,,,,nback20,1.0,2023-12-11_18h21.31.407,untitled,2023.2.3,60.02231629691494,2023-12-11 18h21.41.810688 -0500,
,"[0.64, 0.4]",None,,,,,,,,,0.0,33.0,33.0,33.0,2775.5288324000003,,,,,,,,,,,,,,,,,,,,,,,,,,,,,,,,,,,,,,,,,,,,,,,,,,,,,,,,,,,,,,,,,,2775.514073899999,2775.5288324000003,2775.5288324000003,2776.0288047000004,2776.0288047000004,2778.5286792,2778.5286792,2778.5128264000004,None,1.0,,,,,,,nback20,1.0,2023-12-11_18h21.31.407,untitled,2023.2.3,60.02231629691494,2023-12-11 18h21.41.810688 -0500,
,"[-0.3, 0]",None,,,,,,,,,0.0,34.0,34.0,34.0,2778.5286792,,,,,,,,,,,,,,,,,,,,,,,,,,,,,,,,,,,,,,,,,,,,,,,,,,,,,,,,,,,,,,,,,,2778.5133201,2778.5286792,2778.5286792,2779.0288840999992,2779.0288840999992,2781.5287275,2781.5287275,2781.513124599999,None,1.0,,,,,,,nback20,1.0,2023-12-11_18h21.31.407,untitled,2023.2.3,60.02231629691494,2023-12-11 18h21.41.810688 -0500,
,"[0.3, 0]",None,,,,,,,,,0.0,35.0,35.0,35.0,2781.5287275,,,,,,,,,,,,,,,,,,,,,,,,,,,,,,,,,,,,,,,,,,,,,,,,,,,,,,,,,,,,,,,,,,2781.5139317000003,2781.5287275,2781.5287275,2782.028819799999,2782.028819799999,2784.5286542999997,2784.5286542999997,2784.5127076,None,1.0,,,,,,,nback20,1.0,2023-12-11_18h21.31.407,untitled,2023.2.3,60.02231629691494,2023-12-11 18h21.41.810688 -0500,
,"[-0.3, 0]",space,,,,,,,,,0.0,36.0,36.0,36.0,2784.5286542999997,,,,,,,,,,,,,,,,,,,,,,,,,,,,,,,,,,,,,,,,,,,,,,,,,,,,,,,,,,,,,,,,,,2784.5132025,2784.5286542999997,2784.5286542999997,2785.0288613,2785.0288613,2787.5286265000004,2787.5286265000004,2787.5126978,space,1.0,0.4567000999995798,None,,,,,nback20,1.0,2023-12-11_18h21.31.407,untitled,2023.2.3,60.02231629691494,2023-12-11 18h21.41.810688 -0500,
,"[0, -0.2]",None,,,,,,,,,0.0,37.0,37.0,37.0,2787.5286265000004,,,,,,,,,,,,,,,,,,,,,,,,,,,,,,,,,,,,,,,,,,,,,,,,,,,,,,,,,,,,,,,,,,2787.5135445000005,2787.5286265000004,2787.5286265000004,2788.028532899999,2788.028532899999,2790.5287734999997,2790.5287734999997,2790.5128959000003,None,1.0,,,,,,,nback20,1.0,2023-12-11_18h21.31.407,untitled,2023.2.3,60.02231629691494,2023-12-11 18h21.41.810688 -0500,
,"[0.3, 0]",None,,,,,,,,,0.0,38.0,38.0,38.0,2790.5287734999997,,,,,,,,,,,,,,,,,,,,,,,,,,,,,,,,,,,,,,,,,,,,,,,,,,,,,,,,,,,,,,,,,,2790.513686199999,2790.5287734999997,2790.5287734999997,2791.0286596,2791.0286596,2793.5284528,2793.5284528,2793.5127239999997,None,1.0,,,,,,,nback20,1.0,2023-12-11_18h21.31.407,untitled,2023.2.3,60.02231629691494,2023-12-11 18h21.41.810688 -0500,
,"[0.2, 0.1]",None,,,,,,,,,0.0,39.0,39.0,39.0,2793.5284528,,,,,,,,,,,,,,,,,,,,,,,,,,,,,,,,,,,,,,,,,,,,,,,,,,,,,,,,,,,,,,,,,,2793.5133326000005,2793.5284528,2793.5284528,2794.0287032999995,2794.0287032999995,2796.5285882,2796.5285882,2796.5127107,None,1.0,,,,,,,nback20,1.0,2023-12-11_18h21.31.407,untitled,2023.2.3,60.02231629691494,2023-12-11 18h21.41.810688 -0500,
,,,,,,,,,,,,,,,,,,,,,,,,,,,,,,,,,,,,,,,,,,,,,,,,,,,,,,,,,,,,,,,,,,,,,,,,,,,,,,,,,,,,,,,,,,,,,2796.5131787,2796.5285882,2799.528588799999,2799.512752899999,,,,,,,,
