square,location,corrAns,trials_0.thisRepN,trials_0.thisTrialN,trials_0.thisN,trials_0.thisIndex,trials_1.thisRepN,trials_1.thisTrialN,trials_1.thisN,trials_1.thisIndex,trials_2.thisRepN,trials_2.thisTrialN,trials_2.thisN,trials_2.thisIndex,thisRow.t,notes,Instructions.started,instructions.started,key_resp.started,inst_sq11.started,Instructions.stopped,key_resp.keys,key_resp.rt,key_resp.duration,All.started,sq_1.started,sq_2.started,sq_3.started,sq_4.started,sq_5.started,sq_6.started,sq_7.started,sq_8.started,sq_9.started,sq_10.started,sq_11.started,sq_12.started,All.stopped,Fixation.started,fixation_3.started,fixation_3.stopped,Fixation.stopped,N_back_0_Trial.started,target_square_0.started,response_0.started,fixation_0.started,target_square_0.stopped,fixation_0.stopped,N_back_0_Trial.stopped,response_0.keys,response_0.corr,Instructions_1.started,instructions_1.started,key_resp_1.started,Instructions_1.stopped,key_resp_1.keys,key_resp_1.rt,key_resp_1.duration,N_back_1_Trial.started,target_square_1.started,response_1.started,target_square_1.stopped,fixation_1.started,fixation_1.stopped,response_1.stopped,N_back_1_Trial.stopped,response_1.keys,response_1.corr,response_1.rt,response_1.duration,Instructions_2.started,instructions_2.started,key_resp_2.started,Instructions_2.stopped,key_resp_2.keys,key_resp_2.rt,key_resp_2.duration,N_back_2_trials.started,target_square_2.started,response_2.started,fixation_2.started,target_square_2.stopped,fixation_2.stopped,response_2.stopped,N_back_2_trials.stopped,response_2.keys,response_2.corr,response_2.rt,response_2.duration,End.started,thank_you.started,thank_you.stopped,End.stopped,participant,session,date,expName,psychopyVersion,frameRate,expStart,
,,,,,,,,,,,,,,,,,0.001617199999600416,0.004816000000573695,0.004816000000573695,0.004816000000573695,1451.4921885000003,space,1451.4852564000012,None,,,,,,,,,,,,,,,,,,,,,,,,,,,,,,,,,,,,,,,,,,,,,,,,,,,,,,,,,,,,,,,,,,,,,,nback59,001,2024-01-16_13h01.08.606,untitled,2023.2.3,59.988722119915295,2024-01-16 13h19.28.915536 -0500,
6,"[-0.3, 0]",None,0,0,0,0,,,,,,,,,1453.5093414000003,,,,,,,,,,1451.4922294000007,1451.5073685999996,1451.5073685999996,1451.5073685999996,1451.5073685999996,1451.5073685999996,1451.5073685999996,1451.5073685999996,1451.5073685999996,1451.5073685999996,1451.5073685999996,1451.5073685999996,1451.5073685999996,1452.4915665999997,1452.4915892000008,1452.5075562000002,1453.5093414000003,1453.4917134999996,1453.5075089000002,1453.5093414000003,1453.5093414000003,1453.9906623999996,1454.0239972,1456.4908004000008,1456.5076762000008,None,1,,,,,,,,,,,,,,,,,,,,,,,,,,,,,,,,,,,,,,,,,,,nback59,001,2024-01-16_13h01.08.606,untitled,2023.2.3,59.988722119915295,2024-01-16 13h19.28.915536 -0500,
10,"[0, -0.2]",None,0,1,1,1,,,,,,,,,1456.5241638999996,,,,,,,,,,,,,,,,,,,,,,,,,,,,1456.5087543000009,1456.5241638999996,1456.5241638999996,1456.9906843000008,1457.0240058,1459.4906437000009,1459.5075643,None,1,,,,,,,,,,,,,,,,,,,,,,,,,,,,,,,,,,,,,,,,,,,nback59,001,2024-01-16_13h01.08.606,untitled,2023.2.3,59.988722119915295,2024-01-16 13h19.28.915536 -0500,
11,"[-0.64, -0.4]",space,0,2,2,2,,,,,,,,,1459.5239758000007,,,,,,,,,,,,,,,,,,,,,,,,,,,,1459.5084207,1459.5239758000007,1459.5239758000007,1459.9905044999996,1460.0240360000007,1462.4905799999997,1462.5075663999996,None,0,,,,,,,,,,,,,,,,,,,,,,,,,,,,,,,,,,,,,,,,,,,nback59,001,2024-01-16_13h01.08.606,untitled,2023.2.3,59.988722119915295,2024-01-16 13h19.28.915536 -0500,
12,"[0.64, -0.4]",None,0,3,3,3,,,,,,,,,1462.5239328999996,,,,,,,,,,,,,,,,,,,,,,,,,,,,1462.5083355000006,1462.5239328999996,1462.5239328999996,1462.9905918000004,1463.0239313000002,1465.4906707999999,1465.5075405999996,None,1,,,,,,,,,,,,,,,,,,,,,,,,,,,,,,,,,,,,,,,,,,,nback59,001,2024-01-16_13h01.08.606,untitled,2023.2.3,59.988722119915295,2024-01-16 13h19.28.915536 -0500,
1,"[-0.64, 0.4]",None,0,4,4,4,,,,,,,,,1465.5238814000004,,,,,,,,,,,,,,,,,,,,,,,,,,,,1465.5083058,1465.5238814000004,1465.5238814000004,1466.0073766999994,1466.0239922,1468.5072275999992,1468.5074186000002,None,1,,,,,,,,,,,,,,,,,,,,,,,,,,,,,,,,,,,,,,,,,,,nback59,001,2024-01-16_13h01.08.606,untitled,2023.2.3,59.988722119915295,2024-01-16 13h19.28.915536 -0500,
1,"[-0.64, 0.4]",None,0,5,5,5,,,,,,,,,1468.5238857000004,,,,,,,,,,,,,,,,,,,,,,,,,,,,1468.5081692000003,1468.5238857000004,1468.5238857000004,1468.9904774000006,1469.0239466999992,1471.4903343000005,1471.5069820000008,None,1,,,,,,,,,,,,,,,,,,,,,,,,,,,,,,,,,,,,,,,,,,,nback59,001,2024-01-16_13h01.08.606,untitled,2023.2.3,59.988722119915295,2024-01-16 13h19.28.915536 -0500,
4,"[-0.2, 0.1]",None,0,6,6,6,,,,,,,,,1471.5234922,,,,,,,,,,,,,,,,,,,,,,,,,,,,1471.5073312000004,1471.5234922,1471.5234922,1472.0071403000002,1472.0237815,1474.5071430999997,1474.5073436999992,None,1,,,,,,,,,,,,,,,,,,,,,,,,,,,,,,,,,,,,,,,,,,,nback59,001,2024-01-16_13h01.08.606,untitled,2023.2.3,59.988722119915295,2024-01-16 13h19.28.915536 -0500,
5,"[0.2, 0.1]",None,0,7,7,7,,,,,,,,,1474.5238788000006,,,,,,,,,,,,,,,,,,,,,,,,,,,,1474.5081334999995,1474.5238788000006,1474.5238788000006,1475.0070023999997,1475.0237679000002,1477.5070739000003,1477.5072858000003,None,1,,,,,,,,,,,,,,,,,,,,,,,,,,,,,,,,,,,,,,,,,,,nback59,001,2024-01-16_13h01.08.606,untitled,2023.2.3,59.988722119915295,2024-01-16 13h19.28.915536 -0500,
11,"[-0.64, -0.4]",space,0,8,8,8,,,,,,,,,1477.5235611999997,,,,,,,,,,,,,,,,,,,,,,,,,,,,1477.5080013999996,1477.5235611999997,1477.5235611999997,1478.0070512000002,1478.0236722000009,1480.5069636000007,1480.5071783000003,None,0,,,,,,,,,,,,,,,,,,,,,,,,,,,,,,,,,,,,,,,,,,,nback59,001,2024-01-16_13h01.08.606,untitled,2023.2.3,59.988722119915295,2024-01-16 13h19.28.915536 -0500,
9,"[0.2, -0.1]",None,0,9,9,9,,,,,,,,,1480.5236045000001,,,,,,,,,,,,,,,,,,,,,,,,,,,,1480.5080254999993,1480.5236045000001,1480.5236045000001,1481.0068821999994,1481.0235931999996,1483.5068845000005,1483.5070541000005,None,1,,,,,,,,,,,,,,,,,,,,,,,,,,,,,,,,,,,,,,,,,,,nback59,001,2024-01-16_13h01.08.606,untitled,2023.2.3,59.988722119915295,2024-01-16 13h19.28.915536 -0500,
8,"[-0.2, -0.1]",None,0,10,10,10,,,,,,,,,1483.5236655000008,,,,,,,,,,,,,,,,,,,,,,,,,,,,1483.5078326999992,1483.5236655000008,1483.5236655000008,1484.0067660999994,1484.0236163999998,1486.5066828,1486.5067911000006,None,1,,,,,,,,,,,,,,,,,,,,,,,,,,,,,,,,,,,,,,,,,,,nback59,001,2024-01-16_13h01.08.606,untitled,2023.2.3,59.988722119915295,2024-01-16 13h19.28.915536 -0500,
9,"[0.2, -0.1]",None,0,11,11,11,,,,,,,,,1486.5234892000008,,,,,,,,,,,,,,,,,,,,,,,,,,,,1486.5071382999995,1486.5234892000008,1486.5234892000008,1487.0068628999998,1487.0234882999994,1489.5067873999997,1489.5069798000004,None,1,,,,,,,,,,,,,,,,,,,,,,,,,,,,,,,,,,,,,,,,,,,nback59,001,2024-01-16_13h01.08.606,untitled,2023.2.3,59.988722119915295,2024-01-16 13h19.28.915536 -0500,
6,"[-0.3, 0]",None,0,12,12,12,,,,,,,,,1489.5234022999994,,,,,,,,,,,,,,,,,,,,,,,,,,,,1489.5077256999994,1489.5234022999994,1489.5234022999994,1490.0068752999996,1490.0235481,1492.5067003999993,1492.5069007000002,None,1,,,,,,,,,,,,,,,,,,,,,,,,,,,,,,,,,,,,,,,,,,,nback59,001,2024-01-16_13h01.08.606,untitled,2023.2.3,59.988722119915295,2024-01-16 13h19.28.915536 -0500,
9,"[0.2, -0.1]",None,0,13,13,13,,,,,,,,,1492.5235434999995,,,,,,,,,,,,,,,,,,,,,,,,,,,,1492.5077753999994,1492.5235434999995,1492.5235434999995,1493.0066547000006,1493.0233867000006,1495.5067562999993,1495.5069346,None,1,,,,,,,,,,,,,,,,,,,,,,,,,,,,,,,,,,,,,,,,,,,nback59,001,2024-01-16_13h01.08.606,untitled,2023.2.3,59.988722119915295,2024-01-16 13h19.28.915536 -0500,
7,"[0.3, 0]",None,0,14,14,14,,,,,,,,,1495.5233781999996,,,,,,,,,,,,,,,,,,,,,,,,,,,,1495.5076253000007,1495.5233781999996,1495.5233781999996,1496.0064825999998,1496.0233439000003,1498.5066418999995,1498.5068293999993,None,1,,,,,,,,,,,,,,,,,,,,,,,,,,,,,,,,,,,,,,,,,,,nback59,001,2024-01-16_13h01.08.606,untitled,2023.2.3,59.988722119915295,2024-01-16 13h19.28.915536 -0500,
2,"[0.64, 0.4]",None,0,15,15,15,,,,,,,,,1498.5233587000002,,,,,,,,,,,,,,,,,,,,,,,,,,,,1498.5075593000001,1498.5233587000002,1498.5233587000002,1499.0067061000009,1499.0234182000004,1501.5063859000002,1501.5064949999996,None,1,,,,,,,,,,,,,,,,,,,,,,,,,,,,,,,,,,,,,,,,,,,nback59,001,2024-01-16_13h01.08.606,untitled,2023.2.3,59.988722119915295,2024-01-16 13h19.28.915536 -0500,
2,"[0.64, 0.4]",None,0,16,16,16,,,,,,,,,1501.5233332999996,,,,,,,,,,,,,,,,,,,,,,,,,,,,1501.506985600001,1501.5233332999996,1501.5233332999996,1502.006583800001,1502.0230929000008,1504.5064913999995,1504.5066635000003,None,1,,,,,,,,,,,,,,,,,,,,,,,,,,,,,,,,,,,,,,,,,,,nback59,001,2024-01-16_13h01.08.606,untitled,2023.2.3,59.988722119915295,2024-01-16 13h19.28.915536 -0500,
11,"[-0.64, -0.4]",space,0,17,17,17,,,,,,,,,1504.5232379999998,,,,,,,,,,,,,,,,,,,,,,,,,,,,1504.5073135000002,1504.5232379999998,1504.5232379999998,1505.0064985000008,1505.0231657000004,1507.5064619000004,1507.5066693000008,None,0,,,,,,,,,,,,,,,,,,,,,,,,,,,,,,,,,,,,,,,,,,,nback59,001,2024-01-16_13h01.08.606,untitled,2023.2.3,59.988722119915295,2024-01-16 13h19.28.915536 -0500,
11,"[-0.64, -0.4]",space,0,18,18,18,,,,,,,,,1507.5230014000008,,,,,,,,,,,,,,,,,,,,,,,,,,,,1507.50749,1507.5230014000008,1507.5230014000008,1508.0065885000004,1508.0232008999992,1510.5064705000004,1510.5066717999998,None,0,,,,,,,,,,,,,,,,,,,,,,,,,,,,,,,,,,,,,,,,,,,nback59,001,2024-01-16_13h01.08.606,untitled,2023.2.3,59.988722119915295,2024-01-16 13h19.28.915536 -0500,
7,"[0.3, 0]",None,0,19,19,19,,,,,,,,,1510.5231920000006,,,,,,,,,,,,,,,,,,,,,,,,,,,,1510.5074542000002,1510.5231920000006,1510.5231920000006,1511.0062218000003,1511.0229426000005,1513.5064067999992,1513.506586900001,None,1,,,,,,,,,,,,,,,,,,,,,,,,,,,,,,,,,,,,,,,,,,,nback59,001,2024-01-16_13h01.08.606,untitled,2023.2.3,59.988722119915295,2024-01-16 13h19.28.915536 -0500,
3,"[0, 0.2]",None,0,20,20,20,,,,,,,,,1513.5229622000006,,,,,,,,,,,,,,,,,,,,,,,,,,,,1513.5074141000005,1513.5229622000006,1513.5229622000006,1514.0063033000006,1514.0230510000001,1516.5063592000006,1516.5065651999994,None,1,,,,,,,,,,,,,,,,,,,,,,,,,,,,,,,,,,,,,,,,,,,nback59,001,2024-01-16_13h01.08.606,untitled,2023.2.3,59.988722119915295,2024-01-16 13h19.28.915536 -0500,
10,"[0, -0.2]",None,0,21,21,21,,,,,,,,,1516.5230890999992,,,,,,,,,,,,,,,,,,,,,,,,,,,,1516.5073212000007,1516.5230890999992,1516.5230890999992,1517.0064213000005,1517.0228766,1519.5062954000005,1519.5064965000001,None,1,,,,,,,,,,,,,,,,,,,,,,,,,,,,,,,,,,,,,,,,,,,nback59,001,2024-01-16_13h01.08.606,untitled,2023.2.3,59.988722119915295,2024-01-16 13h19.28.915536 -0500,
1,"[-0.64, 0.4]",None,0,22,22,22,,,,,,,,,1519.5229454,,,,,,,,,,,,,,,,,,,,,,,,,,,,1519.5072629999995,1519.5229454,1519.5229454,1520.0062101000003,1520.0231112000001,1522.5063040000005,1522.5064798999992,None,1,,,,,,,,,,,,,,,,,,,,,,,,,,,,,,,,,,,,,,,,,,,nback59,001,2024-01-16_13h01.08.606,untitled,2023.2.3,59.988722119915295,2024-01-16 13h19.28.915536 -0500,
2,"[0.64, 0.4]",None,0,23,23,23,,,,,,,,,1522.5228843000004,,,,,,,,,,,,,,,,,,,,,,,,,,,,1522.5071525999992,1522.5228843000004,1522.5228843000004,1523.0062139000001,1523.022825600001,1525.506217,1525.5064342999995,None,1,,,,,,,,,,,,,,,,,,,,,,,,,,,,,,,,,,,,,,,,,,,nback59,001,2024-01-16_13h01.08.606,untitled,2023.2.3,59.988722119915295,2024-01-16 13h19.28.915536 -0500,
6,"[-0.3, 0]",None,0,24,24,24,,,,,,,,,1525.5227603999992,,,,,,,,,,,,,,,,,,,,,,,,,,,,1525.5072619000002,1525.5227603999992,1525.5227603999992,1526.0062601000009,1526.0228731000007,1528.5059880000008,1528.5061361999997,None,1,,,,,,,,,,,,,,,,,,,,,,,,,,,,,,,,,,,,,,,,,,,nback59,001,2024-01-16_13h01.08.606,untitled,2023.2.3,59.988722119915295,2024-01-16 13h19.28.915536 -0500,
3,"[0, 0.2]",None,0,25,25,25,,,,,,,,,1528.5228160999995,,,,,,,,,,,,,,,,,,,,,,,,,,,,1528.5066943000002,1528.5228160999995,1528.5228160999995,1529.0060314000002,1529.0227071000008,1531.5059722000005,1531.5061313999995,None,1,,,,,,,,,,,,,,,,,,,,,,,,,,,,,,,,,,,,,,,,,,,nback59,001,2024-01-16_13h01.08.606,untitled,2023.2.3,59.988722119915295,2024-01-16 13h19.28.915536 -0500,
11,"[-0.64, -0.4]",space,0,26,26,26,,,,,,,,,1531.5225979999996,,,,,,,,,,,,,,,,,,,,,,,,,,,,1531.5066227000007,1531.5225979999996,1531.5225979999996,1532.0059586999996,1532.022735300001,1534.5060028000007,1534.5062199999993,None,0,,,,,,,,,,,,,,,,,,,,,,,,,,,,,,,,,,,,,,,,,,,nback59,001,2024-01-16_13h01.08.606,untitled,2023.2.3,59.988722119915295,2024-01-16 13h19.28.915536 -0500,
1,"[-0.64, 0.4]",None,0,27,27,27,,,,,,,,,1534.5228506000003,,,,,,,,,,,,,,,,,,,,,,,,,,,,1534.5070462999993,1534.5228506000003,1534.5228506000003,1535.0060185000002,1535.0226364999999,1537.5058945,1537.5060630000007,None,1,,,,,,,,,,,,,,,,,,,,,,,,,,,,,,,,,,,,,,,,,,,nback59,001,2024-01-16_13h01.08.606,untitled,2023.2.3,59.988722119915295,2024-01-16 13h19.28.915536 -0500,
3,"[0, 0.2]",None,0,28,28,28,,,,,,,,,1537.5226442999992,,,,,,,,,,,,,,,,,,,,,,,,,,,,1537.5068377999996,1537.5226442999992,1537.5226442999992,1538.0059185999999,1538.0226586999997,1540.5058709000004,1540.5060685999997,None,1,,,,,,,,,,,,,,,,,,,,,,,,,,,,,,,,,,,,,,,,,,,nback59,001,2024-01-16_13h01.08.606,untitled,2023.2.3,59.988722119915295,2024-01-16 13h19.28.915536 -0500,
9,"[0.2, -0.1]",None,0,29,29,29,,,,,,,,,1540.5224933999998,,,,,,,,,,,,,,,,,,,,,,,,,,,,1540.5068391000004,1540.5224933999998,1540.5224933999998,1541.0059903000001,1541.0225766000003,1543.5059339,1543.5061313000006,None,1,,,,,,,,,,,,,,,,,,,,,,,,,,,,,,,,,,,,,,,,,,,nback59,001,2024-01-16_13h01.08.606,untitled,2023.2.3,59.988722119915295,2024-01-16 13h19.28.915536 -0500,
8,"[-0.2, -0.1]",None,0,30,30,30,,,,,,,,,1543.5224818000006,,,,,,,,,,,,,,,,,,,,,,,,,,,,1543.5069339000001,1543.5224818000006,1543.5224818000006,1544.0057938999998,1544.0225762999999,1546.5058258999998,1546.5060321,None,1,,,,,,,,,,,,,,,,,,,,,,,,,,,,,,,,,,,,,,,,,,,nback59,001,2024-01-16_13h01.08.606,untitled,2023.2.3,59.988722119915295,2024-01-16 13h19.28.915536 -0500,
12,"[0.64, -0.4]",None,0,31,31,31,,,,,,,,,1546.5224784000002,,,,,,,,,,,,,,,,,,,,,,,,,,,,1546.5068226000003,1546.5224784000002,1546.5224784000002,1547.0059366999994,1547.0225291000006,1549.5057572000005,1549.5059743000002,None,1,,,,,,,,,,,,,,,,,,,,,,,,,,,,,,,,,,,,,,,,,,,nback59,001,2024-01-16_13h01.08.606,untitled,2023.2.3,59.988722119915295,2024-01-16 13h19.28.915536 -0500,
9,"[0.2, -0.1]",None,0,32,32,32,,,,,,,,,1549.522435500001,,,,,,,,,,,,,,,,,,,,,,,,,,,,1549.5066884999997,1549.522435500001,1549.522435500001,1550.0059098000002,1550.0223975000008,1552.5057770000003,1552.5059882999994,None,1,,,,,,,,,,,,,,,,,,,,,,,,,,,,,,,,,,,,,,,,,,,nback59,001,2024-01-16_13h01.08.606,untitled,2023.2.3,59.988722119915295,2024-01-16 13h19.28.915536 -0500,
11,"[-0.64, -0.4]",space,0,33,33,33,,,,,,,,,1552.5223535999994,,,,,,,,,,,,,,,,,,,,,,,,,,,,1552.5067094999995,1552.5223535999994,1552.5223535999994,1553.0057216999994,1553.0223540000006,1555.5057097999997,1555.5059361999993,None,0,,,,,,,,,,,,,,,,,,,,,,,,,,,,,,,,,,,,,,,,,,,nback59,001,2024-01-16_13h01.08.606,untitled,2023.2.3,59.988722119915295,2024-01-16 13h19.28.915536 -0500,
7,"[0.3, 0]",None,0,34,34,34,,,,,,,,,1555.5223366999999,,,,,,,,,,,,,,,,,,,,,,,,,,,,1555.5066994000008,1555.5223366999999,1555.5223366999999,1556.0056224,1556.0223588000008,1558.5056898999992,1558.5058704999992,None,1,,,,,,,,,,,,,,,,,,,,,,,,,,,,,,,,,,,,,,,,,,,nback59,001,2024-01-16_13h01.08.606,untitled,2023.2.3,59.988722119915295,2024-01-16 13h19.28.915536 -0500,
11,"[-0.64, -0.4]",space,0,35,35,35,,,,,,,,,1558.5223105000005,,,,,,,,,,,,,,,,,,,,,,,,,,,,1558.5065907999997,1558.5223105000005,1558.5223105000005,1559.0055426,1559.0221332,1561.5055768000002,1561.5057498000006,None,0,,,,,,,,,,,,,,,,,,,,,,,,,,,,,,,,,,,,,,,,,,,nback59,001,2024-01-16_13h01.08.606,untitled,2023.2.3,59.988722119915295,2024-01-16 13h19.28.915536 -0500,
4,"[-0.2, 0.1]",None,0,36,36,36,,,,,,,,,1561.5222472000005,,,,,,,,,,,,,,,,,,,,,,,,,,,,1561.5064454999992,1561.5222472000005,1561.5222472000005,1562.0054462000007,1562.0220929999996,1564.5054768999998,1564.5056848000004,None,1,,,,,,,,,,,,,,,,,,,,,,,,,,,,,,,,,,,,,,,,,,,nback59,001,2024-01-16_13h01.08.606,untitled,2023.2.3,59.988722119915295,2024-01-16 13h19.28.915536 -0500,
5,"[0.2, 0.1]",None,0,37,37,37,,,,,,,,,1564.5221524999997,,,,,,,,,,,,,,,,,,,,,,,,,,,,1564.5064457000008,1564.5221524999997,1564.5221524999997,1565.0054056999998,1565.0220957000001,1567.5054736000002,1567.5056167999992,None,1,,,,,,,,,,,,,,,,,,,,,,,,,,,,,,,,,,,,,,,,,,,nback59,001,2024-01-16_13h01.08.606,untitled,2023.2.3,59.988722119915295,2024-01-16 13h19.28.915536 -0500,
6,"[-0.3, 0]",None,0,38,38,38,,,,,,,,,1567.5221884000002,,,,,,,,,,,,,,,,,,,,,,,,,,,,1567.5062032999995,1567.5221884000002,1567.5221884000002,1568.0056382999992,1568.022165800001,1570.5053585000005,1570.5055217999998,None,1,,,,,,,,,,,,,,,,,,,,,,,,,,,,,,,,,,,,,,,,,,,nback59,001,2024-01-16_13h01.08.606,untitled,2023.2.3,59.988722119915295,2024-01-16 13h19.28.915536 -0500,
11,"[-0.64, -0.4]",space,0,39,39,39,,,,,,,,,1570.5219971999995,,,,,,,,,,,,,,,,,,,,,,,,,,,,1570.5061394999993,1570.5219971999995,1570.5219971999995,1571.005397500001,1571.0220690000006,1573.5053659999994,1573.5055374999993,None,0,,,,,,,,,,,,,,,,,,,,,,,,,,,,,,,,,,,,,,,,,,,nback59,001,2024-01-16_13h01.08.606,untitled,2023.2.3,59.988722119915295,2024-01-16 13h19.28.915536 -0500,
,,,,,,,,,,,,,,,,,,,,,,,,,,,,,,,,,,,,,,,,,,,,,,,,,,,,1573.5060242,1573.5221447999993,1573.5221447999993,1588.6065091,space,15.070980800001053,None,,,,,,,,,,,,,,,,,,,,,,,,,,,,,,,,,,,,nback59,001,2024-01-16_13h01.08.606,untitled,2023.2.3,59.988722119915295,2024-01-16 13h19.28.915536 -0500,
10,"[0, -0.2]",None,,,,,0,0,0,0,,,,,1589.6215143999998,,,,,,,,,,,,,,,,,,,,,,,,1588.6065517000006,1588.6218054,1589.6215143999998,1589.6059735,,,,,,,,,,,,,,,,,1589.6162289000004,1589.6215143999998,1589.6215143999998,1590.1218681999999,1590.1218681999999,1592.6217283999995,1592.6217283999995,1592.6058229999999,None,1,,,,,,,,,,,,,,,,,,,,,,,,,,nback59,001,2024-01-16_13h01.08.606,untitled,2023.2.3,59.988722119915295,2024-01-16 13h19.28.915536 -0500,
5,"[0.2, 0.1]",None,,,,,0,1,1,1,,,,,1592.6217283999995,,,,,,,,,,,,,,,,,,,,,,,,,,,,,,,,,,,,,,,,,,,,1592.6068312000007,1592.6217283999995,1592.6217283999995,1593.1217524999993,1593.1217524999993,1595.6215475000008,1595.6215475000008,1595.6057997000007,space,0,1.030852199999572,None,,,,,,,,,,,,,,,,,,,,,,,,nback59,001,2024-01-16_13h01.08.606,untitled,2023.2.3,59.988722119915295,2024-01-16 13h19.28.915536 -0500,
6,"[-0.3, 0]",None,,,,,0,2,2,2,,,,,1595.6215475000008,,,,,,,,,,,,,,,,,,,,,,,,,,,,,,,,,,,,,,,,,,,,1595.6068412999994,1595.6215475000008,1595.6215475000008,1596.1215646,1596.1215646,1598.6217049000006,1598.6217049000006,1598.6058912000008,space,0,0.7219482000000426,None,,,,,,,,,,,,,,,,,,,,,,,,nback59,001,2024-01-16_13h01.08.606,untitled,2023.2.3,59.988722119915295,2024-01-16 13h19.28.915536 -0500,
6,"[-0.3, 0]",space,,,,,0,3,3,3,,,,,1598.6217049000006,,,,,,,,,,,,,,,,,,,,,,,,,,,,,,,,,,,,,,,,,,,,1598.6068319999995,1598.6217049000006,1598.6217049000006,1599.1216583000005,1599.1216583000005,1601.6215137,1601.6215137,1601.6055732000004,space,1,0.7400466000017332,None,,,,,,,,,,,,,,,,,,,,,,,,nback59,001,2024-01-16_13h01.08.606,untitled,2023.2.3,59.988722119915295,2024-01-16 13h19.28.915536 -0500,
12,"[0.64, -0.4]",None,,,,,0,4,4,4,,,,,1601.6215137,,,,,,,,,,,,,,,,,,,,,,,,,,,,,,,,,,,,,,,,,,,,1601.6064105000005,1601.6215137,1601.6215137,1602.1215276999992,1602.1215276999992,1604.6214072999992,1604.6214072999992,1604.6057304999995,space,0,0.682064900000114,None,,,,,,,,,,,,,,,,,,,,,,,,nback59,001,2024-01-16_13h01.08.606,untitled,2023.2.3,59.988722119915295,2024-01-16 13h19.28.915536 -0500,
10,"[0, -0.2]",None,,,,,0,5,5,5,,,,,1604.6214072999992,,,,,,,,,,,,,,,,,,,,,,,,,,,,,,,,,,,,,,,,,,,,1604.6065481999995,1604.6214072999992,1604.6214072999992,1605.1214999999993,1605.1214999999993,1607.6213527,1607.6213527,1607.605527400001,space,0,0.7355929000004835,None,,,,,,,,,,,,,,,,,,,,,,,,nback59,001,2024-01-16_13h01.08.606,untitled,2023.2.3,59.988722119915295,2024-01-16 13h19.28.915536 -0500,
2,"[0.64, 0.4]",None,,,,,0,6,6,6,,,,,1607.6213527,,,,,,,,,,,,,,,,,,,,,,,,,,,,,,,,,,,,,,,,,,,,1607.6062356000002,1607.6213527,1607.6213527,1608.1214820999994,1608.1214820999994,1610.6214268999993,1610.6214268999993,1610.6054922000003,space,0,0.6673683000008168,None,,,,,,,,,,,,,,,,,,,,,,,,nback59,001,2024-01-16_13h01.08.606,untitled,2023.2.3,59.988722119915295,2024-01-16 13h19.28.915536 -0500,
9,"[0.2, -0.1]",None,,,,,0,7,7,7,,,,,1610.6214268999993,,,,,,,,,,,,,,,,,,,,,,,,,,,,,,,,,,,,,,,,,,,,1610.6064251999996,1610.6214268999993,1610.6214268999993,1611.1214638000001,1611.1214638000001,1613.6212276000006,1613.6212276000006,1613.605147100001,space,0,0.8273561999994854,None,,,,,,,,,,,,,,,,,,,,,,,,nback59,001,2024-01-16_13h01.08.606,untitled,2023.2.3,59.988722119915295,2024-01-16 13h19.28.915536 -0500,
9,"[0.2, -0.1]",space,,,,,0,8,8,8,,,,,1613.6212276000006,,,,,,,,,,,,,,,,,,,,,,,,,,,,,,,,,,,,,,,,,,,,1613.605874500001,1613.6212276000006,1613.6212276000006,1614.1213406999996,1614.1213406999996,1616.6211898000001,1616.6211898000001,1616.6052825000006,space,1,0.9903911000001244,None,,,,,,,,,,,,,,,,,,,,,,,,nback59,001,2024-01-16_13h01.08.606,untitled,2023.2.3,59.988722119915295,2024-01-16 13h19.28.915536 -0500,
6,"[-0.3, 0]",None,,,,,0,9,9,9,,,,,1616.6211898000001,,,,,,,,,,,,,,,,,,,,,,,,,,,,,,,,,,,,,,,,,,,,1616.6059535999993,1616.6211898000001,1616.6211898000001,1617.1211915999993,1617.1211915999993,1619.6211865000005,1619.6211865000005,1619.6053135000002,space,0,0.9129295000002458,None,,,,,,,,,,,,,,,,,,,,,,,,nback59,001,2024-01-16_13h01.08.606,untitled,2023.2.3,59.988722119915295,2024-01-16 13h19.28.915536 -0500,
11,"[-0.64, -0.4]",None,,,,,0,10,10,10,,,,,1619.6211865000005,,,,,,,,,,,,,,,,,,,,,,,,,,,,,,,,,,,,,,,,,,,,1619.6059449999993,1619.6211865000005,1619.6211865000005,1620.1211523000002,1620.1211523000002,1622.6212207999997,1622.6212207999997,1622.6051864,space,0,0.8789946999986569,None,,,,,,,,,,,,,,,,,,,,,,,,nback59,001,2024-01-16_13h01.08.606,untitled,2023.2.3,59.988722119915295,2024-01-16 13h19.28.915536 -0500,
11,"[-0.64, -0.4]",space,,,,,0,11,11,11,,,,,1622.6212207999997,,,,,,,,,,,,,,,,,,,,,,,,,,,,,,,,,,,,,,,,,,,,1622.6059624999998,1622.6212207999997,1622.6212207999997,1623.1211184000003,1623.1211184000003,1625.6210437000009,1625.6210437000009,1625.6052588999992,space,1,0.8967044000000897,None,,,,,,,,,,,,,,,,,,,,,,,,nback59,001,2024-01-16_13h01.08.606,untitled,2023.2.3,59.988722119915295,2024-01-16 13h19.28.915536 -0500,
4,"[-0.2, 0.1]",None,,,,,0,12,12,12,,,,,1625.6210437000009,,,,,,,,,,,,,,,,,,,,,,,,,,,,,,,,,,,,,,,,,,,,1625.606098100001,1625.6210437000009,1625.6210437000009,1626.1210929999997,1626.1210929999997,1628.6209720000006,1628.6209720000006,1628.6051881000003,space,0,1.1264786000010645,None,,,,,,,,,,,,,,,,,,,,,,,,nback59,001,2024-01-16_13h01.08.606,untitled,2023.2.3,59.988722119915295,2024-01-16 13h19.28.915536 -0500,
3,"[0, 0.2]",None,,,,,0,13,13,13,,,,,1628.6209720000006,,,,,,,,,,,,,,,,,,,,,,,,,,,,,,,,,,,,,,,,,,,,1628.6060208,1628.6209720000006,1628.6209720000006,1629.1208924000002,1629.1208924000002,1631.6211091000005,1631.6211091000005,1631.6053740000007,space,0,1.1396476999998413,None,,,,,,,,,,,,,,,,,,,,,,,,nback59,001,2024-01-16_13h01.08.606,untitled,2023.2.3,59.988722119915295,2024-01-16 13h19.28.915536 -0500,
3,"[0, 0.2]",space,,,,,0,14,14,14,,,,,1631.6211091000005,,,,,,,,,,,,,,,,,,,,,,,,,,,,,,,,,,,,,,,,,,,,1631.6064532,1631.6211091000005,1631.6211091000005,1632.1209942000005,1632.1209942000005,1634.6208815999998,1634.6208815999998,1634.6052192999996,space,1,0.841226700000334,None,,,,,,,,,,,,,,,,,,,,,,,,nback59,001,2024-01-16_13h01.08.606,untitled,2023.2.3,59.988722119915295,2024-01-16 13h19.28.915536 -0500,
8,"[-0.2, -0.1]",None,,,,,0,15,15,15,,,,,1634.6208815999998,,,,,,,,,,,,,,,,,,,,,,,,,,,,,,,,,,,,,,,,,,,,1634.6060484000009,1634.6208815999998,1634.6208815999998,1635.1210523999998,1635.1210523999998,1637.6207795999999,1637.6207795999999,1637.6048355000003,space,0,0.8193157999994582,None,,,,,,,,,,,,,,,,,,,,,,,,nback59,001,2024-01-16_13h01.08.606,untitled,2023.2.3,59.988722119915295,2024-01-16 13h19.28.915536 -0500,
1,"[-0.64, 0.4]",None,,,,,0,16,16,16,,,,,1637.6207795999999,,,,,,,,,,,,,,,,,,,,,,,,,,,,,,,,,,,,,,,,,,,,1637.6056530999995,1637.6207795999999,1637.6207795999999,1638.1210522000001,1638.1210522000001,1640.6208743999996,1640.6208743999996,1640.605275,space,0,0.7636276999983238,None,,,,,,,,,,,,,,,,,,,,,,,,nback59,001,2024-01-16_13h01.08.606,untitled,2023.2.3,59.988722119915295,2024-01-16 13h19.28.915536 -0500,
2,"[0.64, 0.4]",None,,,,,0,17,17,17,,,,,1640.6208743999996,,,,,,,,,,,,,,,,,,,,,,,,,,,,,,,,,,,,,,,,,,,,1640.6062954000008,1640.6208743999996,1640.6208743999996,1641.1208613,1641.1208613,1643.620847100001,1643.620847100001,1643.604860200001,space,0,0.9754618999995728,None,,,,,,,,,,,,,,,,,,,,,,,,nback59,001,2024-01-16_13h01.08.606,untitled,2023.2.3,59.988722119915295,2024-01-16 13h19.28.915536 -0500,
4,"[-0.2, 0.1]",None,,,,,0,18,18,18,,,,,1643.620847100001,,,,,,,,,,,,,,,,,,,,,,,,,,,,,,,,,,,,,,,,,,,,1643.6056924999993,1643.620847100001,1643.620847100001,1644.1209001000007,1644.1209001000007,1646.6206736999993,1646.6206736999993,1646.6050895000008,None,1,,,,,,,,,,,,,,,,,,,,,,,,,,nback59,001,2024-01-16_13h01.08.606,untitled,2023.2.3,59.988722119915295,2024-01-16 13h19.28.915536 -0500,
4,"[-0.2, 0.1]",space,,,,,0,19,19,19,,,,,1646.6206736999993,,,,,,,,,,,,,,,,,,,,,,,,,,,,,,,,,,,,,,,,,,,,1646.6058353999997,1646.6206736999993,1646.6206736999993,1647.1207876999997,1647.1207876999997,1649.6206708999998,1649.6206708999998,1649.6048166,None,0,,,,,,,,,,,,,,,,,,,,,,,,,,nback59,001,2024-01-16_13h01.08.606,untitled,2023.2.3,59.988722119915295,2024-01-16 13h19.28.915536 -0500,
8,"[-0.2, -0.1]",None,,,,,0,20,20,20,,,,,1649.6206708999998,,,,,,,,,,,,,,,,,,,,,,,,,,,,,,,,,,,,,,,,,,,,1649.605442600001,1649.6206708999998,1649.6206708999998,1650.1205627,1650.1205627,1652.6206963000004,1652.6206963000004,1652.6048912000006,space,0,1.0524200999989262,None,,,,,,,,,,,,,,,,,,,,,,,,nback59,001,2024-01-16_13h01.08.606,untitled,2023.2.3,59.988722119915295,2024-01-16 13h19.28.915536 -0500,
5,"[0.2, 0.1]",None,,,,,0,21,21,21,,,,,1652.6206963000004,,,,,,,,,,,,,,,,,,,,,,,,,,,,,,,,,,,,,,,,,,,,1652.6058943000007,1652.6206963000004,1652.6206963000004,1653.1205697000005,1653.1205697000005,1655.6204395000004,1655.6204395000004,1655.6045119999999,None,1,,,,,,,,,,,,,,,,,,,,,,,,,,nback59,001,2024-01-16_13h01.08.606,untitled,2023.2.3,59.988722119915295,2024-01-16 13h19.28.915536 -0500,
5,"[0.2, 0.1]",space,,,,,0,22,22,22,,,,,1655.6204395000004,,,,,,,,,,,,,,,,,,,,,,,,,,,,,,,,,,,,,,,,,,,,1655.6051078,1655.6204395000004,1655.6204395000004,1656.1203186999992,1656.1203186999992,1658.6206217,1658.6206217,1658.6049752,None,0,,,,,,,,,,,,,,,,,,,,,,,,,,nback59,001,2024-01-16_13h01.08.606,untitled,2023.2.3,59.988722119915295,2024-01-16 13h19.28.915536 -0500,
1,"[-0.64, 0.4]",None,,,,,0,23,23,23,,,,,1658.6206217,,,,,,,,,,,,,,,,,,,,,,,,,,,,,,,,,,,,,,,,,,,,1658.6058248999998,1658.6206217,1658.6206217,1659.1205007999997,1659.1205007999997,1661.6203805000005,1661.6203805000005,1661.6042987,space,0,1.4093917000009242,None,,,,,,,,,,,,,,,,,,,,,,,,nback59,001,2024-01-16_13h01.08.606,untitled,2023.2.3,59.988722119915295,2024-01-16 13h19.28.915536 -0500,
3,"[0, 0.2]",None,,,,,0,24,24,24,,,,,1661.6203805000005,,,,,,,,,,,,,,,,,,,,,,,,,,,,,,,,,,,,,,,,,,,,1661.6048207999993,1661.6203805000005,1661.6203805000005,1662.1204455000006,1662.1204455000006,1664.6204092000007,1664.6204092000007,1664.6043869000005,None,1,,,,,,,,,,,,,,,,,,,,,,,,,,nback59,001,2024-01-16_13h01.08.606,untitled,2023.2.3,59.988722119915295,2024-01-16 13h19.28.915536 -0500,
6,"[-0.3, 0]",None,,,,,0,25,25,25,,,,,1664.6204092000007,,,,,,,,,,,,,,,,,,,,,,,,,,,,,,,,,,,,,,,,,,,,1664.6050047999997,1664.6204092000007,1664.6204092000007,1665.120455100001,1665.120455100001,1667.6204254000004,1667.6204254000004,1667.6043623000005,space,0,0.8601725999997143,None,,,,,,,,,,,,,,,,,,,,,,,,nback59,001,2024-01-16_13h01.08.606,untitled,2023.2.3,59.988722119915295,2024-01-16 13h19.28.915536 -0500,
1,"[-0.64, 0.4]",None,,,,,0,26,26,26,,,,,1667.6204254000004,,,,,,,,,,,,,,,,,,,,,,,,,,,,,,,,,,,,,,,,,,,,1667.6051415000002,1667.6204254000004,1667.6204254000004,1668.1203984000003,1668.1203984000003,1670.6202933999994,1670.6202933999994,1670.6044748000004,space,0,1.1604547999995702,None,,,,,,,,,,,,,,,,,,,,,,,,nback59,001,2024-01-16_13h01.08.606,untitled,2023.2.3,59.988722119915295,2024-01-16 13h19.28.915536 -0500,
1,"[-0.64, 0.4]",space,,,,,0,27,27,27,,,,,1670.6202933999994,,,,,,,,,,,,,,,,,,,,,,,,,,,,,,,,,,,,,,,,,,,,1670.6053145000005,1670.6202933999994,1670.6202933999994,1671.120347,1671.120347,1673.6204202999998,1673.6204202999998,1673.6045276999994,space,1,1.0851428000005399,None,,,,,,,,,,,,,,,,,,,,,,,,nback59,001,2024-01-16_13h01.08.606,untitled,2023.2.3,59.988722119915295,2024-01-16 13h19.28.915536 -0500,
1,"[-0.64, 0.4]",space,,,,,0,28,28,28,,,,,1673.6204202999998,,,,,,,,,,,,,,,,,,,,,,,,,,,,,,,,,,,,,,,,,,,,1673.6055403999999,1673.6204202999998,1673.6204202999998,1674.1203145,1674.1203145,1676.6202506999998,1676.6202506999998,1676.6045866000004,space,1,0.8279387000002316,None,,,,,,,,,,,,,,,,,,,,,,,,nback59,001,2024-01-16_13h01.08.606,untitled,2023.2.3,59.988722119915295,2024-01-16 13h19.28.915536 -0500,
3,"[0, 0.2]",None,,,,,0,29,29,29,,,,,1676.6202506999998,,,,,,,,,,,,,,,,,,,,,,,,,,,,,,,,,,,,,,,,,,,,1676.6055636,1676.6202506999998,1676.6202506999998,1677.1202611999997,1677.1202611999997,1679.6202162999998,1679.6202162999998,1679.6043761,None,1,,,,,,,,,,,,,,,,,,,,,,,,,,nback59,001,2024-01-16_13h01.08.606,untitled,2023.2.3,59.988722119915295,2024-01-16 13h19.28.915536 -0500,
12,"[0.64, -0.4]",None,,,,,0,30,30,30,,,,,1679.6202162999998,,,,,,,,,,,,,,,,,,,,,,,,,,,,,,,,,,,,,,,,,,,,1679.6051064999992,1679.6202162999998,1679.6202162999998,1680.1201865999992,1680.1201865999992,1682.6200360999992,1682.6200360999992,1682.6041925999998,space,0,1.1838212000002386,None,,,,,,,,,,,,,,,,,,,,,,,,nback59,001,2024-01-16_13h01.08.606,untitled,2023.2.3,59.988722119915295,2024-01-16 13h19.28.915536 -0500,
12,"[0.64, -0.4]",space,,,,,0,31,31,31,,,,,1682.6200360999992,,,,,,,,,,,,,,,,,,,,,,,,,,,,,,,,,,,,,,,,,,,,1682.6049072000005,1682.6200360999992,1682.6200360999992,1683.1200874000006,1683.1200874000006,1685.6201105,1685.6201105,1685.6043735999992,space,1,0.9734912000003533,None,,,,,,,,,,,,,,,,,,,,,,,,nback59,001,2024-01-16_13h01.08.606,untitled,2023.2.3,59.988722119915295,2024-01-16 13h19.28.915536 -0500,
2,"[0.64, 0.4]",None,,,,,0,32,32,32,,,,,1685.6201105,,,,,,,,,,,,,,,,,,,,,,,,,,,,,,,,,,,,,,,,,,,,1685.6053186000008,1685.6201105,1685.6201105,1686.1200532000003,1686.1200532000003,1688.6199515999997,1688.6199515999997,1688.6043573000006,space,0,1.540961900000184,None,,,,,,,,,,,,,,,,,,,,,,,,nback59,001,2024-01-16_13h01.08.606,untitled,2023.2.3,59.988722119915295,2024-01-16 13h19.28.915536 -0500,
1,"[-0.64, 0.4]",None,,,,,0,33,33,33,,,,,1688.6199515999997,,,,,,,,,,,,,,,,,,,,,,,,,,,,,,,,,,,,,,,,,,,,1688.6052995999999,1688.6199515999997,1688.6199515999997,1689.1200528999998,1689.1200528999998,1691.6198081000002,1691.6198081000002,1691.6043338,space,0,1.002436900000248,None,,,,,,,,,,,,,,,,,,,,,,,,nback59,001,2024-01-16_13h01.08.606,untitled,2023.2.3,59.988722119915295,2024-01-16 13h19.28.915536 -0500,
7,"[0.3, 0]",None,,,,,0,34,34,34,,,,,1691.6198081000002,,,,,,,,,,,,,,,,,,,,,,,,,,,,,,,,,,,,,,,,,,,,1691.6052473,1691.6198081000002,1691.6198081000002,1692.1199453000008,1692.1199453000008,1694.6199699999997,1694.6199699999997,1694.6043227999999,space,0,1.0297275000011723,None,,,,,,,,,,,,,,,,,,,,,,,,nback59,001,2024-01-16_13h01.08.606,untitled,2023.2.3,59.988722119915295,2024-01-16 13h19.28.915536 -0500,
7,"[0.3, 0]",space,,,,,0,35,35,35,,,,,1694.6199699999997,,,,,,,,,,,,,,,,,,,,,,,,,,,,,,,,,,,,,,,,,,,,1694.6053319000002,1694.6199699999997,1694.6199699999997,1695.1199149000004,1695.1199149000004,1697.6200365000004,1697.6200365000004,1697.6043236999994,space,1,0.86779530000058,None,,,,,,,,,,,,,,,,,,,,,,,,nback59,001,2024-01-16_13h01.08.606,untitled,2023.2.3,59.988722119915295,2024-01-16 13h19.28.915536 -0500,
11,"[-0.64, -0.4]",None,,,,,0,36,36,36,,,,,1697.6200365000004,,,,,,,,,,,,,,,,,,,,,,,,,,,,,,,,,,,,,,,,,,,,1697.6053271,1697.6200365000004,1697.6200365000004,1698.1198256999996,1698.1198256999996,1700.6198158999996,1700.6198158999996,1700.6040778999995,space,0,0.984699599999658,None,,,,,,,,,,,,,,,,,,,,,,,,nback59,001,2024-01-16_13h01.08.606,untitled,2023.2.3,59.988722119915295,2024-01-16 13h19.28.915536 -0500,
2,"[0.64, 0.4]",None,,,,,0,37,37,37,,,,,1700.6198158999996,,,,,,,,,,,,,,,,,,,,,,,,,,,,,,,,,,,,,,,,,,,,1700.6049261999997,1700.6198158999996,1700.6198158999996,1701.1200059999992,1701.1200059999992,1703.6198157,1703.6198157,1703.6040035999995,space,0,1.2592894999997952,None,,,,,,,,,,,,,,,,,,,,,,,,nback59,001,2024-01-16_13h01.08.606,untitled,2023.2.3,59.988722119915295,2024-01-16 13h19.28.915536 -0500,
6,"[-0.3, 0]",None,,,,,0,38,38,38,,,,,1703.6198157,,,,,,,,,,,,,,,,,,,,,,,,,,,,,,,,,,,,,,,,,,,,1703.6049832999997,1703.6198157,1703.6198157,1704.1198695000003,1704.1198695000003,1706.6195919000002,1706.6195919000002,1706.6037803,space,0,1.168944900000497,None,,,,,,,,,,,,,,,,,,,,,,,,nback59,001,2024-01-16_13h01.08.606,untitled,2023.2.3,59.988722119915295,2024-01-16 13h19.28.915536 -0500,
10,"[0, -0.2]",None,,,,,0,39,39,39,,,,,1706.6195919000002,,,,,,,,,,,,,,,,,,,,,,,,,,,,,,,,,,,,,,,,,,,,1706.604619400001,1706.6195919000002,1706.6195919000002,1707.1196593999994,1707.1196593999994,1709.6198227999994,1709.6198227999994,1709.6041342999997,space,0,1.0796239000010246,None,,,,,,,,,,,,,,,,,,,,,,,,nback59,001,2024-01-16_13h01.08.606,untitled,2023.2.3,59.988722119915295,2024-01-16 13h19.28.915536 -0500,
,,,,,,,,,,,,,,,,,,,,,,,,,,,,,,,,,,,,,,,,,,,,,,,,,,,,,,,,,,,,,,,,,,,,,,,1709.6050273,1709.6198227999994,1709.6198227999994,1743.6536206,space,34.01670000000013,None,,,,,,,,,,,,,,,,,nback59,001,2024-01-16_13h01.08.606,untitled,2023.2.3,59.988722119915295,2024-01-16 13h19.28.915536 -0500,
,"[0.2, 0.1]",None,,,,,,,,,0,0,0,0,1744.6689272999993,,,,,,,,,,,,,,,,,,,,,,,,1743.6536620999996,1743.6690244000001,1744.6689272999993,1744.6534401000008,,,,,,,,,,,,,,,,,,,,,,,,,,,,,,,,,,,,1744.6632119000005,1744.6689272999993,1744.6689272999993,1745.1522609999993,1745.1691136999998,1747.6522889999997,1747.6688443000003,1747.6531108,None,1,,,,,,,nback59,001,2024-01-16_13h01.08.606,untitled,2023.2.3,59.988722119915295,2024-01-16 13h19.28.915536 -0500,
,"[0.64, 0.4]",None,,,,,,,,,0,1,1,1,1747.6688443000003,,,,,,,,,,,,,,,,,,,,,,,,,,,,,,,,,,,,,,,,,,,,,,,,,,,,,,,,,,,,,,,1747.6541295999996,1747.6688443000003,1747.6688443000003,1748.1689944999998,1748.1689944999998,1750.6689898999994,1750.6689898999994,1750.6534910999999,None,1,,,,,,,nback59,001,2024-01-16_13h01.08.606,untitled,2023.2.3,59.988722119915295,2024-01-16 13h19.28.915536 -0500,
,"[-0.3, 0]",None,,,,,,,,,0,2,2,2,1750.6689898999994,,,,,,,,,,,,,,,,,,,,,,,,,,,,,,,,,,,,,,,,,,,,,,,,,,,,,,,,,,,,,,,1750.6542637000002,1750.6689898999994,1750.6689898999994,1751.1689079999996,1751.1689079999996,1753.6689473999995,1753.6689473999995,1753.6530096999995,None,1,,,,,,,nback59,001,2024-01-16_13h01.08.606,untitled,2023.2.3,59.988722119915295,2024-01-16 13h19.28.915536 -0500,
,"[0.2, -0.1]",None,,,,,,,,,0,3,3,3,1753.6689473999995,,,,,,,,,,,,,,,,,,,,,,,,,,,,,,,,,,,,,,,,,,,,,,,,,,,,,,,,,,,,,,,1753.6536374000007,1753.6689473999995,1753.6689473999995,1754.1689387000006,1754.1689387000006,1756.6687230999996,1756.6687230999996,1756.6527962,None,1,,,,,,,nback59,001,2024-01-16_13h01.08.606,untitled,2023.2.3,59.988722119915295,2024-01-16 13h19.28.915536 -0500,
,"[0, 0.2]",None,,,,,,,,,0,4,4,4,1756.6687230999996,,,,,,,,,,,,,,,,,,,,,,,,,,,,,,,,,,,,,,,,,,,,,,,,,,,,,,,,,,,,,,,1756.6534083000006,1756.6687230999996,1756.6687230999996,1757.1687956000005,1757.1687956000005,1759.6687487,1759.6687487,1759.6529090999993,None,1,,,,,,,nback59,001,2024-01-16_13h01.08.606,untitled,2023.2.3,59.988722119915295,2024-01-16 13h19.28.915536 -0500,
,"[0.2, -0.1]",space,,,,,,,,,0,5,5,5,1759.6687487,,,,,,,,,,,,,,,,,,,,,,,,,,,,,,,,,,,,,,,,,,,,,,,,,,,,,,,,,,,,,,,1759.6534969000004,1759.6687487,1759.6687487,1760.1687309999998,1760.1687309999998,1762.6687755000003,1762.6687755000003,1762.6529217999996,space,1,0.8909636999997019,None,,,,,nback59,001,2024-01-16_13h01.08.606,untitled,2023.2.3,59.988722119915295,2024-01-16 13h19.28.915536 -0500,
,"[0, -0.2]",None,,,,,,,,,0,6,6,6,1762.6687755000003,,,,,,,,,,,,,,,,,,,,,,,,,,,,,,,,,,,,,,,,,,,,,,,,,,,,,,,,,,,,,,,1762.6541362999997,1762.6687755000003,1762.6687755000003,1763.1685947999995,1763.1685947999995,1765.6686542000007,1765.6686542000007,1765.6529167000008,None,1,,,,,,,nback59,001,2024-01-16_13h01.08.606,untitled,2023.2.3,59.988722119915295,2024-01-16 13h19.28.915536 -0500,
,"[0.64, -0.4]",None,,,,,,,,,0,7,7,7,1765.6686542000007,,,,,,,,,,,,,,,,,,,,,,,,,,,,,,,,,,,,,,,,,,,,,,,,,,,,,,,,,,,,,,,1765.6536665000003,1765.6686542000007,1765.6686542000007,1766.168744300001,1766.168744300001,1768.6687655000005,1768.6687655000005,1768.6529804000002,None,1,,,,,,,nback59,001,2024-01-16_13h01.08.606,untitled,2023.2.3,59.988722119915295,2024-01-16 13h19.28.915536 -0500,
,"[0.3, 0]",None,,,,,,,,,0,8,8,8,1768.6687655000005,,,,,,,,,,,,,,,,,,,,,,,,,,,,,,,,,,,,,,,,,,,,,,,,,,,,,,,,,,,,,,,1768.6538812,1768.6687655000005,1768.6687655000005,1769.1686685000004,1769.1686685000004,1771.6684891000004,1771.6684891000004,1771.6529513000005,None,1,,,,,,,nback59,001,2024-01-16_13h01.08.606,untitled,2023.2.3,59.988722119915295,2024-01-16 13h19.28.915536 -0500,
,"[0.64, -0.4]",space,,,,,,,,,0,9,9,9,1771.6684891000004,,,,,,,,,,,,,,,,,,,,,,,,,,,,,,,,,,,,,,,,,,,,,,,,,,,,,,,,,,,,,,,1771.6537277000007,1771.6684891000004,1771.6684891000004,1772.1685388000005,1772.1685388000005,1774.6683620999993,1774.6683620999993,1774.6526176000007,space,1,0.7061756999992213,None,,,,,nback59,001,2024-01-16_13h01.08.606,untitled,2023.2.3,59.988722119915295,2024-01-16 13h19.28.915536 -0500,
,"[-0.64, 0.4]",None,,,,,,,,,0,10,10,10,1774.6683620999993,,,,,,,,,,,,,,,,,,,,,,,,,,,,,,,,,,,,,,,,,,,,,,,,,,,,,,,,,,,,,,,1774.6534546999992,1774.6683620999993,1774.6683620999993,1775.1685278999994,1775.1685278999994,1777.6685084,1777.6685084,1777.6525462999998,None,1,,,,,,,nback59,001,2024-01-16_13h01.08.606,untitled,2023.2.3,59.988722119915295,2024-01-16 13h19.28.915536 -0500,
,"[0.2, 0.1]",None,,,,,,,,,0,11,11,11,1777.6685084,,,,,,,,,,,,,,,,,,,,,,,,,,,,,,,,,,,,,,,,,,,,,,,,,,,,,,,,,,,,,,,1777.6532869999992,1777.6685084,1777.6685084,1778.168494900001,1778.168494900001,1780.6683513999997,1780.6683513999997,1780.6525996,space,0,0.5741524999993999,None,,,,,nback59,001,2024-01-16_13h01.08.606,untitled,2023.2.3,59.988722119915295,2024-01-16 13h19.28.915536 -0500,
,"[0.3, 0]",None,,,,,,,,,0,12,12,12,1780.6683513999997,,,,,,,,,,,,,,,,,,,,,,,,,,,,,,,,,,,,,,,,,,,,,,,,,,,,,,,,,,,,,,,1780.6535120999997,1780.6683513999997,1780.6683513999997,1781.1684222999993,1781.1684222999993,1783.6681864000002,1783.6681864000002,1783.6523622000004,None,1,,,,,,,nback59,001,2024-01-16_13h01.08.606,untitled,2023.2.3,59.988722119915295,2024-01-16 13h19.28.915536 -0500,
,"[0.2, 0.1]",space,,,,,,,,,0,13,13,13,1783.6681864000002,,,,,,,,,,,,,,,,,,,,,,,,,,,,,,,,,,,,,,,,,,,,,,,,,,,,,,,,,,,,,,,1783.6531219000008,1783.6681864000002,1783.6681864000002,1784.1682829000001,1784.1682829000001,1786.6681473000008,1786.6681473000008,1786.6522074999993,space,1,0.7010604000006424,None,,,,,nback59,001,2024-01-16_13h01.08.606,untitled,2023.2.3,59.988722119915295,2024-01-16 13h19.28.915536 -0500,
,"[-0.3, 0]",None,,,,,,,,,0,14,14,14,1786.6681473000008,,,,,,,,,,,,,,,,,,,,,,,,,,,,,,,,,,,,,,,,,,,,,,,,,,,,,,,,,,,,,,,1786.6529429000002,1786.6681473000008,1786.6681473000008,1787.1682915000001,1787.1682915000001,1789.6681898000006,1789.6681898000006,1789.6524835,None,1,,,,,,,nback59,001,2024-01-16_13h01.08.606,untitled,2023.2.3,59.988722119915295,2024-01-16 13h19.28.915536 -0500,
,"[0, 0.2]",None,,,,,,,,,0,15,15,15,1789.6681898000006,,,,,,,,,,,,,,,,,,,,,,,,,,,,,,,,,,,,,,,,,,,,,,,,,,,,,,,,,,,,,,,1789.6532943000002,1789.6681898000006,1789.6681898000006,1790.1682416999993,1790.1682416999993,1792.6683666000008,1792.6683666000008,1792.6526040999997,space,0,1.5179262000001472,None,,,,,nback59,001,2024-01-16_13h01.08.606,untitled,2023.2.3,59.988722119915295,2024-01-16 13h19.28.915536 -0500,
,"[-0.3, 0]",space,,,,,,,,,0,16,16,16,1792.6683666000008,,,,,,,,,,,,,,,,,,,,,,,,,,,,,,,,,,,,,,,,,,,,,,,,,,,,,,,,,,,,,,,1792.6536261,1792.6683666000008,1792.6683666000008,1793.1681090000002,1793.1681090000002,1795.6681601,1795.6681601,1795.6525390999996,space,1,0.9709092000011879,None,,,,,nback59,001,2024-01-16_13h01.08.606,untitled,2023.2.3,59.988722119915295,2024-01-16 13h19.28.915536 -0500,
,"[-0.64, -0.4]",None,,,,,,,,,0,17,17,17,1795.6681601,,,,,,,,,,,,,,,,,,,,,,,,,,,,,,,,,,,,,,,,,,,,,,,,,,,,,,,,,,,,,,,1795.6534780000002,1795.6681601,1795.6681601,1796.1681845999992,1796.1681845999992,1798.6681117000007,1798.6681117000007,1798.652264800001,None,1,,,,,,,nback59,001,2024-01-16_13h01.08.606,untitled,2023.2.3,59.988722119915295,2024-01-16 13h19.28.915536 -0500,
,"[-0.2, -0.1]",None,,,,,,,,,0,18,18,18,1798.6681117000007,,,,,,,,,,,,,,,,,,,,,,,,,,,,,,,,,,,,,,,,,,,,,,,,,,,,,,,,,,,,,,,1798.6529551000003,1798.6681117000007,1798.6681117000007,1799.1681527,1799.1681527,1801.6679979,1801.6679979,1801.6521670000002,None,1,,,,,,,nback59,001,2024-01-16_13h01.08.606,untitled,2023.2.3,59.988722119915295,2024-01-16 13h19.28.915536 -0500,
,"[0.2, -0.1]",None,,,,,,,,,0,19,19,19,1801.6679979,,,,,,,,,,,,,,,,,,,,,,,,,,,,,,,,,,,,,,,,,,,,,,,,,,,,,,,,,,,,,,,1801.6528567999994,1801.6679979,1801.6679979,1802.1680051000003,1802.1680051000003,1804.6679213999996,1804.6679213999996,1804.6520196000001,space,0,0.8579728000004252,None,,,,,nback59,001,2024-01-16_13h01.08.606,untitled,2023.2.3,59.988722119915295,2024-01-16 13h19.28.915536 -0500,
,"[0.2, -0.1]",None,,,,,,,,,0,20,20,20,1804.6679213999996,,,,,,,,,,,,,,,,,,,,,,,,,,,,,,,,,,,,,,,,,,,,,,,,,,,,,,,,,,,,,,,1804.6528471000001,1804.6679213999996,1804.6679213999996,1805.1679339000002,1805.1679339000002,1807.6678575000005,1807.6678575000005,1807.6518082999992,space,0,0.8134207000002789,None,,,,,nback59,001,2024-01-16_13h01.08.606,untitled,2023.2.3,59.988722119915295,2024-01-16 13h19.28.915536 -0500,
,"[-0.64, 0.4]",None,,,,,,,,,0,21,21,21,1807.6678575000005,,,,,,,,,,,,,,,,,,,,,,,,,,,,,,,,,,,,,,,,,,,,,,,,,,,,,,,,,,,,,,,1807.6525280000005,1807.6678575000005,1807.6678575000005,1808.1679098999994,1808.1679098999994,1810.6680563999998,1810.6680563999998,1810.6522420000001,space,0,0.8638721999996051,None,,,,,nback59,001,2024-01-16_13h01.08.606,untitled,2023.2.3,59.988722119915295,2024-01-16 13h19.28.915536 -0500,
,"[0, 0.2]",None,,,,,,,,,0,22,22,22,1810.6680563999998,,,,,,,,,,,,,,,,,,,,,,,,,,,,,,,,,,,,,,,,,,,,,,,,,,,,,,,,,,,,,,,1810.6533421000004,1810.6680563999998,1810.6680563999998,1811.167842500001,1811.167842500001,1813.6676654999992,1813.6676654999992,1813.6519110999998,space,0,0.814139600000999,None,,,,,nback59,001,2024-01-16_13h01.08.606,untitled,2023.2.3,59.988722119915295,2024-01-16 13h19.28.915536 -0500,
,"[0.64, -0.4]",None,,,,,,,,,0,23,23,23,1813.6676654999992,,,,,,,,,,,,,,,,,,,,,,,,,,,,,,,,,,,,,,,,,,,,,,,,,,,,,,,,,,,,,,,1813.6528209000007,1813.6676654999992,1813.6676654999992,1814.1678468999999,1814.1678468999999,1816.6677913999993,1816.6677913999993,1816.651927500001,space,0,0.779056600000331,None,,,,,nback59,001,2024-01-16_13h01.08.606,untitled,2023.2.3,59.988722119915295,2024-01-16 13h19.28.915536 -0500,
,"[0, 0.2]",space,,,,,,,,,0,24,24,24,1816.6677913999993,,,,,,,,,,,,,,,,,,,,,,,,,,,,,,,,,,,,,,,,,,,,,,,,,,,,,,,,,,,,,,,1816.6529126000005,1816.6677913999993,1816.6677913999993,1817.1677113999995,1817.1677113999995,1819.6676855000005,1819.6676855000005,1819.6518376000004,space,1,0.5695687999996153,None,,,,,nback59,001,2024-01-16_13h01.08.606,untitled,2023.2.3,59.988722119915295,2024-01-16 13h19.28.915536 -0500,
,"[-0.2, 0.1]",None,,,,,,,,,0,25,25,25,1819.6676855000005,,,,,,,,,,,,,,,,,,,,,,,,,,,,,,,,,,,,,,,,,,,,,,,,,,,,,,,,,,,,,,,1819.6526771000008,1819.6676855000005,1819.6676855000005,1820.1676989999996,1820.1676989999996,1822.6677674999992,1822.6677674999992,1822.6519688000008,space,0,0.7730372000005445,None,,,,,nback59,001,2024-01-16_13h01.08.606,untitled,2023.2.3,59.988722119915295,2024-01-16 13h19.28.915536 -0500,
,"[0.3, 0]",None,,,,,,,,,0,26,26,26,1822.6677674999992,,,,,,,,,,,,,,,,,,,,,,,,,,,,,,,,,,,,,,,,,,,,,,,,,,,,,,,,,,,,,,,1822.6528827000002,1822.6677674999992,1822.6677674999992,1823.1677803000002,1823.1677803000002,1825.6675254000002,1825.6675254000002,1825.651880200001,space,0,0.9094122999995307,None,,,,,nback59,001,2024-01-16_13h01.08.606,untitled,2023.2.3,59.988722119915295,2024-01-16 13h19.28.915536 -0500,
,"[-0.2, 0.1]",space,,,,,,,,,0,27,27,27,1825.6675254000002,,,,,,,,,,,,,,,,,,,,,,,,,,,,,,,,,,,,,,,,,,,,,,,,,,,,,,,,,,,,,,,1825.6526450000001,1825.6675254000002,1825.6675254000002,1826.1674418999992,1826.1674418999992,1828.6674261999997,1828.6674261999997,1828.6516900999995,space,1,0.9204169000004185,None,,,,,nback59,001,2024-01-16_13h01.08.606,untitled,2023.2.3,59.988722119915295,2024-01-16 13h19.28.915536 -0500,
,"[-0.2, 0.1]",None,,,,,,,,,0,28,28,28,1828.6674261999997,,,,,,,,,,,,,,,,,,,,,,,,,,,,,,,,,,,,,,,,,,,,,,,,,,,,,,,,,,,,,,,1828.6526228000002,1828.6674261999997,1828.6674261999997,1829.1674865000005,1829.1674865000005,1831.6674777000007,1831.6674777000007,1831.6514406000006,space,0,0.865754399999787,None,,,,,nback59,001,2024-01-16_13h01.08.606,untitled,2023.2.3,59.988722119915295,2024-01-16 13h19.28.915536 -0500,
,"[0.2, 0.1]",None,,,,,,,,,0,29,29,29,1831.6674777000007,,,,,,,,,,,,,,,,,,,,,,,,,,,,,,,,,,,,,,,,,,,,,,,,,,,,,,,,,,,,,,,1831.6521525999997,1831.6674777000007,1831.6674777000007,1832.1674340000009,1832.1674340000009,1834.6673910000009,1834.6673910000009,1834.6517337000005,space,0,1.3836428999984491,None,,,,,nback59,001,2024-01-16_13h01.08.606,untitled,2023.2.3,59.988722119915295,2024-01-16 13h19.28.915536 -0500,
,"[-0.64, -0.4]",None,,,,,,,,,0,30,30,30,1834.6673910000009,,,,,,,,,,,,,,,,,,,,,,,,,,,,,,,,,,,,,,,,,,,,,,,,,,,,,,,,,,,,,,,1834.6527332999995,1834.6673910000009,1834.6673910000009,1835.1674954999999,1835.1674954999999,1837.6672722000003,1837.6672722000003,1837.6518345999993,space,0,1.0646113000002515,None,,,,,nback59,001,2024-01-16_13h01.08.606,untitled,2023.2.3,59.988722119915295,2024-01-16 13h19.28.915536 -0500,
,"[0, -0.2]",None,,,,,,,,,0,31,31,31,1837.6672722000003,,,,,,,,,,,,,,,,,,,,,,,,,,,,,,,,,,,,,,,,,,,,,,,,,,,,,,,,,,,,,,,1837.6528756999996,1837.6672722000003,1837.6672722000003,1838.1674758000008,1838.1674758000008,1840.6672954000005,1840.6672954000005,1840.6515736000001,space,0,1.1941108999999415,None,,,,,nback59,001,2024-01-16_13h01.08.606,untitled,2023.2.3,59.988722119915295,2024-01-16 13h19.28.915536 -0500,
,"[-0.64, -0.4]",space,,,,,,,,,0,32,32,32,1840.6672954000005,,,,,,,,,,,,,,,,,,,,,,,,,,,,,,,,,,,,,,,,,,,,,,,,,,,,,,,,,,,,,,,1840.6523983999996,1840.6672954000005,1840.6672954000005,1841.1673123,1841.1673123,1843.6673443,1843.6673443,1843.6516379000004,space,1,1.4865666000005149,None,,,,,nback59,001,2024-01-16_13h01.08.606,untitled,2023.2.3,59.988722119915295,2024-01-16 13h19.28.915536 -0500,
,"[0.64, 0.4]",None,,,,,,,,,0,33,33,33,1843.6673443,,,,,,,,,,,,,,,,,,,,,,,,,,,,,,,,,,,,,,,,,,,,,,,,,,,,,,,,,,,,,,,1843.6526336999996,1843.6673443,1843.6673443,1844.1673730000002,1844.1673730000002,1846.6673260999996,1846.6673260999996,1846.6515839000003,space,0,1.095774800000072,None,,,,,nback59,001,2024-01-16_13h01.08.606,untitled,2023.2.3,59.988722119915295,2024-01-16 13h19.28.915536 -0500,
,"[-0.3, 0]",None,,,,,,,,,0,34,34,34,1846.6673260999996,,,,,,,,,,,,,,,,,,,,,,,,,,,,,,,,,,,,,,,,,,,,,,,,,,,,,,,,,,,,,,,1846.6525392000003,1846.6673260999996,1846.6673260999996,1847.1671982000007,1847.1671982000007,1849.6672337,1849.6672337,1849.6514399999996,space,0,0.9884345999998914,None,,,,,nback59,001,2024-01-16_13h01.08.606,untitled,2023.2.3,59.988722119915295,2024-01-16 13h19.28.915536 -0500,
,"[0.3, 0]",None,,,,,,,,,0,35,35,35,1849.6672337,,,,,,,,,,,,,,,,,,,,,,,,,,,,,,,,,,,,,,,,,,,,,,,,,,,,,,,,,,,,,,,1849.6523856000003,1849.6672337,1849.6672337,1850.167248400001,1850.167248400001,1852.6671351000005,1852.6671351000005,1852.6515474000007,space,0,0.7221872999998595,None,,,,,nback59,001,2024-01-16_13h01.08.606,untitled,2023.2.3,59.988722119915295,2024-01-16 13h19.28.915536 -0500,
,"[-0.3, 0]",space,,,,,,,,,0,36,36,36,1852.6671351000005,,,,,,,,,,,,,,,,,,,,,,,,,,,,,,,,,,,,,,,,,,,,,,,,,,,,,,,,,,,,,,,1852.6526059000007,1852.6671351000005,1852.6671351000005,1853.1669696000008,1853.1669696000008,1855.6671172000006,1855.6671172000006,1855.6515553999998,space,1,0.6400195999995049,None,,,,,nback59,001,2024-01-16_13h01.08.606,untitled,2023.2.3,59.988722119915295,2024-01-16 13h19.28.915536 -0500,
,"[0, -0.2]",None,,,,,,,,,0,37,37,37,1855.6671172000006,,,,,,,,,,,,,,,,,,,,,,,,,,,,,,,,,,,,,,,,,,,,,,,,,,,,,,,,,,,,,,,1855.6524372000003,1855.6671172000006,1855.6671172000006,1856.1670833999997,1856.1670833999997,1858.6671107000002,1858.6671107000002,1858.6512533999994,space,0,0.8296390000014071,None,,,,,nback59,001,2024-01-16_13h01.08.606,untitled,2023.2.3,59.988722119915295,2024-01-16 13h19.28.915536 -0500,
,"[0.3, 0]",None,,,,,,,,,0,38,38,38,1858.6671107000002,,,,,,,,,,,,,,,,,,,,,,,,,,,,,,,,,,,,,,,,,,,,,,,,,,,,,,,,,,,,,,,1858.6522139999997,1858.6671107000002,1858.6671107000002,1859.1668731000009,1859.1668731000009,1861.6669669000003,1861.6669669000003,1861.6511952,space,0,0.9433000999997603,None,,,,,nback59,001,2024-01-16_13h01.08.606,untitled,2023.2.3,59.988722119915295,2024-01-16 13h19.28.915536 -0500,
,"[0.2, 0.1]",None,,,,,,,,,0,39,39,39,1861.6669669000003,,,,,,,,,,,,,,,,,,,,,,,,,,,,,,,,,,,,,,,,,,,,,,,,,,,,,,,,,,,,,,,1861.6519344000008,1861.6669669000003,1861.6669669000003,1862.1671184999996,1862.1671184999996,1864.6669409999995,1864.6669409999995,1864.6512285999997,space,0,0.8693136000001687,None,,,,,nback59,001,2024-01-16_13h01.08.606,untitled,2023.2.3,59.988722119915295,2024-01-16 13h19.28.915536 -0500,
,,,,,,,,,,,,,,,,,,,,,,,,,,,,,,,,,,,,,,,,,,,,,,,,,,,,,,,,,,,,,,,,,,,,,,,,,,,,,,,,,,,,,,,,,,1864.6519002000005,1864.6669409999995,1867.666950500001,1867.650760300001,,,,,,,,
