square,location,corrAns,trials_0.thisRepN,trials_0.thisTrialN,trials_0.thisN,trials_0.thisIndex,trials_1.thisRepN,trials_1.thisTrialN,trials_1.thisN,trials_1.thisIndex,trials_2.thisRepN,trials_2.thisTrialN,trials_2.thisN,trials_2.thisIndex,thisRow.t,notes,Instructions.started,instructions.started,key_resp.started,inst_sq11.started,Instructions.stopped,key_resp.keys,key_resp.rt,key_resp.duration,All.started,sq_1.started,sq_2.started,sq_3.started,sq_4.started,sq_5.started,sq_6.started,sq_7.started,sq_8.started,sq_9.started,sq_10.started,sq_11.started,sq_12.started,All.stopped,Fixation.started,fixation_3.started,fixation_3.stopped,Fixation.stopped,N_back_0_Trial.started,target_square_0.started,response_0.started,fixation_0.started,target_square_0.stopped,fixation_0.stopped,N_back_0_Trial.stopped,response_0.keys,response_0.corr,response_0.rt,response_0.duration,Instructions_1.started,instructions_1.started,key_resp_1.started,Instructions_1.stopped,key_resp_1.keys,key_resp_1.rt,key_resp_1.duration,N_back_1_Trial.started,target_square_1.started,response_1.started,fixation_1.started,target_square_1.stopped,fixation_1.stopped,N_back_1_Trial.stopped,response_1.keys,response_1.corr,response_1.rt,response_1.duration,Instructions_2.started,instructions_2.started,key_resp_2.started,Instructions_2.stopped,key_resp_2.keys,key_resp_2.rt,key_resp_2.duration,N_back_2_trials.started,target_square_2.started,response_2.started,fixation_2.started,target_square_2.stopped,fixation_2.stopped,N_back_2_trials.stopped,response_2.keys,response_2.corr,response_2.rt,response_2.duration,End.started,thank_you.started,End.stopped,participant,session,date,expName,psychopyVersion,frameRate,expStart,Unnamed: 100
,,,,,,,,,,,,,,,,,0.0013990000006742,0.0040942000050563,0.0040942000050563,0.0040942000050563,25.170930899999803,space,25.162651499995263,None,,,,,,,,,,,,,,,,,,,,,,,,,,,,,,,,,,,,,,,,,,,,,,,,,,,,,,,,,,,,,,,,,,,,,nback29,1.0,2023-12-15_09h57.44.101,untitled,2023.2.3,60.05555138504795,2023-12-15 10h51.13.575999 -0500,
6.0,"[-0.3, 0]",None,0.0,0.0,0.0,0.0,,,,,,,,,27.188902099995172,,,,,,,,,,25.17096540000057,25.185972600011155,25.185972600011155,25.185972600011155,25.185972600011155,25.185972600011155,25.185972600011155,25.185972600011155,25.185972600011155,25.185972600011155,25.185972600011155,25.185972600011155,25.185972600011155,26.17004110000562,26.170062199991666,26.185977000015555,27.188902099995172,27.169939499988686,27.1869069999957,27.188902099995172,27.188902099995172,27.66937990000588,27.70290350000141,30.169269100006204,30.186221700016176,None,1.0,,,,,,,,,,,,,,,,,,,,,,,,,,,,,,,,,,,,,,,,,,nback29,1.0,2023-12-15_09h57.44.101,untitled,2023.2.3,60.05555138504795,2023-12-15 10h51.13.575999 -0500,
10.0,"[0, -0.2]",None,0.0,1.0,1.0,1.0,,,,,,,,,30.202528099995103,,,,,,,,,,,,,,,,,,,,,,,,,,,,30.187192999990657,30.202528099995103,30.202528099995103,30.669202599994605,30.702530600014143,33.16926739999326,33.18608519999543,None,1.0,,,,,,,,,,,,,,,,,,,,,,,,,,,,,,,,,,,,,,,,,,nback29,1.0,2023-12-15_09h57.44.101,untitled,2023.2.3,60.05555138504795,2023-12-15 10h51.13.575999 -0500,
11.0,"[-0.64, -0.4]",space,0.0,2.0,2.0,2.0,,,,,,,,,33.20252540000365,,,,,,,,,,,,,,,,,,,,,,,,,,,,33.18679820001125,33.20252540000365,33.20252540000365,33.6693620000151,33.7026404000062,36.16913719999138,36.18614700000035,space,1.0,0.4354932999995071,None,,,,,,,,,,,,,,,,,,,,,,,,,,,,,,,,,,,,,,,,nback29,1.0,2023-12-15_09h57.44.101,untitled,2023.2.3,60.05555138504795,2023-12-15 10h51.13.575999 -0500,
12.0,"[0.64, -0.4]",None,0.0,3.0,3.0,3.0,,,,,,,,,36.20248899998842,,,,,,,,,,,,,,,,,,,,,,,,,,,,36.18724639998982,36.20248899998842,36.20248899998842,36.669188500003656,36.7025588999968,39.16906780001591,39.18593900001724,None,1.0,,,,,,,,,,,,,,,,,,,,,,,,,,,,,,,,,,,,,,,,,,nback29,1.0,2023-12-15_09h57.44.101,untitled,2023.2.3,60.05555138504795,2023-12-15 10h51.13.575999 -0500,
1.0,"[-0.64, 0.4]",None,0.0,4.0,4.0,4.0,,,,,,,,,39.2024029000022,,,,,,,,,,,,,,,,,,,,,,,,,,,,39.18665920000058,39.2024029000022,39.2024029000022,39.668980999995256,39.70255129999714,42.1692122000095,42.18605049999314,None,1.0,,,,,,,,,,,,,,,,,,,,,,,,,,,,,,,,,,,,,,,,,,nback29,1.0,2023-12-15_09h57.44.101,untitled,2023.2.3,60.05555138504795,2023-12-15 10h51.13.575999 -0500,
1.0,"[-0.64, 0.4]",None,0.0,5.0,5.0,5.0,,,,,,,,,42.20242600000347,,,,,,,,,,,,,,,,,,,,,,,,,,,,42.18679209999391,42.20242600000347,42.20242600000347,42.66907400000491,42.70239489999949,45.16903310001362,45.18600529999821,None,1.0,,,,,,,,,,,,,,,,,,,,,,,,,,,,,,,,,,,,,,,,,,nback29,1.0,2023-12-15_09h57.44.101,untitled,2023.2.3,60.05555138504795,2023-12-15 10h51.13.575999 -0500,
4.0,"[-0.2, 0.1]",None,0.0,6.0,6.0,6.0,,,,,,,,,45.20249910000712,,,,,,,,,,,,,,,,,,,,,,,,,,,,45.18677609998849,45.20249910000712,45.20249910000712,45.66899289999856,45.70223689998966,48.169114299991634,48.18582559999777,None,1.0,,,,,,,,,,,,,,,,,,,,,,,,,,,,,,,,,,,,,,,,,,nback29,1.0,2023-12-15_09h57.44.101,untitled,2023.2.3,60.05555138504795,2023-12-15 10h51.13.575999 -0500,
5.0,"[0.2, 0.1]",None,0.0,7.0,7.0,7.0,,,,,,,,,48.202371499995934,,,,,,,,,,,,,,,,,,,,,,,,,,,,48.18662530000438,48.202371499995934,48.202371499995934,48.68573490000563,48.70223699999042,51.18561990000308,51.18581699999049,None,1.0,,,,,,,,,,,,,,,,,,,,,,,,,,,,,,,,,,,,,,,,,,nback29,1.0,2023-12-15_09h57.44.101,untitled,2023.2.3,60.05555138504795,2023-12-15 10h51.13.575999 -0500,
11.0,"[-0.64, -0.4]",space,0.0,8.0,8.0,8.0,,,,,,,,,51.20216760001495,,,,,,,,,,,,,,,,,,,,,,,,,,,,51.18659009999829,51.20216760001495,51.20216760001495,51.68555870000273,51.70223670001724,54.18558530000155,54.18579950000276,space,1.0,0.4060120999929495,None,,,,,,,,,,,,,,,,,,,,,,,,,,,,,,,,,,,,,,,,nback29,1.0,2023-12-15_09h57.44.101,untitled,2023.2.3,60.05555138504795,2023-12-15 10h51.13.575999 -0500,
9.0,"[0.2, -0.1]",None,0.0,9.0,9.0,9.0,,,,,,,,,54.20224240000243,,,,,,,,,,,,,,,,,,,,,,,,,,,,54.18672319999314,54.20224240000243,54.20224240000243,54.6855416999897,54.70223429999896,57.18559280000045,57.185778300015954,None,1.0,,,,,,,,,,,,,,,,,,,,,,,,,,,,,,,,,,,,,,,,,,nback29,1.0,2023-12-15_09h57.44.101,untitled,2023.2.3,60.05555138504795,2023-12-15 10h51.13.575999 -0500,
8.0,"[-0.2, -0.1]",None,0.0,10.0,10.0,10.0,,,,,,,,,57.20212070000707,,,,,,,,,,,,,,,,,,,,,,,,,,,,57.1865020999976,57.20212070000707,57.20212070000707,57.68554130001576,57.70229610000388,60.18551489998936,60.185665099998005,None,1.0,,,,,,,,,,,,,,,,,,,,,,,,,,,,,,,,,,,,,,,,,,nback29,1.0,2023-12-15_09h57.44.101,untitled,2023.2.3,60.05555138504795,2023-12-15 10h51.13.575999 -0500,
9.0,"[0.2, -0.1]",None,0.0,11.0,11.0,11.0,,,,,,,,,60.20195680001052,,,,,,,,,,,,,,,,,,,,,,,,,,,,60.18621990000247,60.20195680001052,60.20195680001052,60.68540519999806,60.70221290001064,63.18542900000466,63.18561099999352,None,1.0,,,,,,,,,,,,,,,,,,,,,,,,,,,,,,,,,,,,,,,,,,nback29,1.0,2023-12-15_09h57.44.101,untitled,2023.2.3,60.05555138504795,2023-12-15 10h51.13.575999 -0500,
6.0,"[-0.3, 0]",None,0.0,12.0,12.0,12.0,,,,,,,,,63.20199070000672,,,,,,,,,,,,,,,,,,,,,,,,,,,,63.18630669999402,63.20199070000672,63.20199070000672,63.68534379999619,63.70220689999405,66.18536780000431,66.18559340000502,None,1.0,,,,,,,,,,,,,,,,,,,,,,,,,,,,,,,,,,,,,,,,,,nback29,1.0,2023-12-15_09h57.44.101,untitled,2023.2.3,60.05555138504795,2023-12-15 10h51.13.575999 -0500,
9.0,"[0.2, -0.1]",None,0.0,13.0,13.0,13.0,,,,,,,,,66.20204599999124,,,,,,,,,,,,,,,,,,,,,,,,,,,,66.18637119999039,66.20204599999124,66.20204599999124,66.68544460000703,66.70203980000224,69.18532970000524,69.18549730000086,None,1.0,,,,,,,,,,,,,,,,,,,,,,,,,,,,,,,,,,,,,,,,,,nback29,1.0,2023-12-15_09h57.44.101,untitled,2023.2.3,60.05555138504795,2023-12-15 10h51.13.575999 -0500,
7.0,"[0.3, 0]",None,0.0,14.0,14.0,14.0,,,,,,,,,69.20191790000536,,,,,,,,,,,,,,,,,,,,,,,,,,,,69.18616119999206,69.20191790000536,69.20191790000536,69.6852596999961,69.70198820001679,72.18543230000068,72.1856301999942,None,1.0,,,,,,,,,,,,,,,,,,,,,,,,,,,,,,,,,,,,,,,,,,nback29,1.0,2023-12-15_09h57.44.101,untitled,2023.2.3,60.05555138504795,2023-12-15 10h51.13.575999 -0500,
2.0,"[0.64, 0.4]",None,0.0,15.0,15.0,15.0,,,,,,,,,72.20198519999394,,,,,,,,,,,,,,,,,,,,,,,,,,,,72.18639560000156,72.20198519999394,72.20198519999394,72.68523579998873,72.70195680001052,75.18528460001107,75.18546350000543,None,1.0,,,,,,,,,,,,,,,,,,,,,,,,,,,,,,,,,,,,,,,,,,nback29,1.0,2023-12-15_09h57.44.101,untitled,2023.2.3,60.05555138504795,2023-12-15 10h51.13.575999 -0500,
2.0,"[0.64, 0.4]",None,0.0,16.0,16.0,16.0,,,,,,,,,75.2019716000068,,,,,,,,,,,,,,,,,,,,,,,,,,,,75.1862650999974,75.2019716000068,75.2019716000068,75.68539900000906,75.70190519999596,78.18529819999821,78.18548650000594,None,1.0,,,,,,,,,,,,,,,,,,,,,,,,,,,,,,,,,,,,,,,,,,nback29,1.0,2023-12-15_09h57.44.101,untitled,2023.2.3,60.05555138504795,2023-12-15 10h51.13.575999 -0500,
11.0,"[-0.64, -0.4]",space,0.0,17.0,17.0,17.0,,,,,,,,,78.20186719999765,,,,,,,,,,,,,,,,,,,,,,,,,,,,78.1862364000117,78.20186719999765,78.20186719999765,78.68509370001266,78.7017002000066,81.18509730001097,81.18526709999423,space,1.0,0.3870268999889958,None,,,,,,,,,,,,,,,,,,,,,,,,,,,,,,,,,,,,,,,,nback29,1.0,2023-12-15_09h57.44.101,untitled,2023.2.3,60.05555138504795,2023-12-15 10h51.13.575999 -0500,
11.0,"[-0.64, -0.4]",space,0.0,18.0,18.0,18.0,,,,,,,,,81.20185499999207,,,,,,,,,,,,,,,,,,,,,,,,,,,,81.18622930001584,81.20185499999207,81.20185499999207,81.68509030001587,81.70173359999899,84.18508470000234,84.18530209999881,space,1.0,0.3628278000105638,None,,,,,,,,,,,,,,,,,,,,,,,,,,,,,,,,,,,,,,,,nback29,1.0,2023-12-15_09h57.44.101,untitled,2023.2.3,60.05555138504795,2023-12-15 10h51.13.575999 -0500,
7.0,"[0.3, 0]",None,0.0,19.0,19.0,19.0,,,,,,,,,84.20165380000253,,,,,,,,,,,,,,,,,,,,,,,,,,,,84.18629119999241,84.20165380000253,84.20165380000253,84.6850364000129,84.70168220001506,87.18502239999361,87.18522290000692,None,1.0,,,,,,,,,,,,,,,,,,,,,,,,,,,,,,,,,,,,,,,,,,nback29,1.0,2023-12-15_09h57.44.101,untitled,2023.2.3,60.05555138504795,2023-12-15 10h51.13.575999 -0500,
3.0,"[0, 0.2]",None,0.0,20.0,20.0,20.0,,,,,,,,,87.20164640000439,,,,,,,,,,,,,,,,,,,,,,,,,,,,87.1860130999994,87.20164640000439,87.20164640000439,87.68508339999244,87.70157830000971,90.18495290001738,90.18515189999016,None,1.0,,,,,,,,,,,,,,,,,,,,,,,,,,,,,,,,,,,,,,,,,,nback29,1.0,2023-12-15_09h57.44.101,untitled,2023.2.3,60.05555138504795,2023-12-15 10h51.13.575999 -0500,
10.0,"[0, -0.2]",None,0.0,21.0,21.0,21.0,,,,,,,,,90.20148449999397,,,,,,,,,,,,,,,,,,,,,,,,,,,,90.18595790001564,90.20148449999397,90.20148449999397,90.68492329999572,90.7016738000093,93.18492649999098,93.1851272000058,None,1.0,,,,,,,,,,,,,,,,,,,,,,,,,,,,,,,,,,,,,,,,,,nback29,1.0,2023-12-15_09h57.44.101,untitled,2023.2.3,60.05555138504795,2023-12-15 10h51.13.575999 -0500,
1.0,"[-0.64, 0.4]",None,0.0,22.0,22.0,22.0,,,,,,,,,93.20171950000804,,,,,,,,,,,,,,,,,,,,,,,,,,,,93.18589120000252,93.20171950000804,93.20171950000804,93.6849567000172,93.701458800002,96.18487140000798,96.18505510000978,None,1.0,,,,,,,,,,,,,,,,,,,,,,,,,,,,,,,,,,,,,,,,,,nback29,1.0,2023-12-15_09h57.44.101,untitled,2023.2.3,60.05555138504795,2023-12-15 10h51.13.575999 -0500,
2.0,"[0.64, 0.4]",None,0.0,23.0,23.0,23.0,,,,,,,,,96.20157400000608,,,,,,,,,,,,,,,,,,,,,,,,,,,,96.18584819999523,96.20157400000608,96.20157400000608,96.68485670001246,96.70135779998964,99.18475549999856,99.18494520001695,None,1.0,,,,,,,,,,,,,,,,,,,,,,,,,,,,,,,,,,,,,,,,,,nback29,1.0,2023-12-15_09h57.44.101,untitled,2023.2.3,60.05555138504795,2023-12-15 10h51.13.575999 -0500,
6.0,"[-0.3, 0]",None,0.0,24.0,24.0,24.0,,,,,,,,,99.201396199991,,,,,,,,,,,,,,,,,,,,,,,,,,,,99.1857517999888,99.201396199991,99.201396199991,99.68491460001678,99.70154440001352,102.18488010001602,102.1850812000048,None,1.0,,,,,,,,,,,,,,,,,,,,,,,,,,,,,,,,,,,,,,,,,,nback29,1.0,2023-12-15_09h57.44.101,untitled,2023.2.3,60.05555138504795,2023-12-15 10h51.13.575999 -0500,
3.0,"[0, 0.2]",None,0.0,25.0,25.0,25.0,,,,,,,,,102.20149589999346,,,,,,,,,,,,,,,,,,,,,,,,,,,,102.18587889999615,102.20149589999346,102.20149589999346,102.6848239999963,102.70132870000089,105.1847020999994,105.18488109999451,None,1.0,,,,,,,,,,,,,,,,,,,,,,,,,,,,,,,,,,,,,,,,,,nback29,1.0,2023-12-15_09h57.44.101,untitled,2023.2.3,60.05555138504795,2023-12-15 10h51.13.575999 -0500,
11.0,"[-0.64, -0.4]",space,0.0,26.0,26.0,26.0,,,,,,,,,105.20137819999944,,,,,,,,,,,,,,,,,,,,,,,,,,,,105.18556559999706,105.20137819999944,105.20137819999944,105.6845949999988,105.70134520001012,108.18472069999552,108.18488950000028,space,1.0,0.3285385000053793,None,,,,,,,,,,,,,,,,,,,,,,,,,,,,,,,,,,,,,,,,nback29,1.0,2023-12-15_09h57.44.101,untitled,2023.2.3,60.05555138504795,2023-12-15 10h51.13.575999 -0500,
1.0,"[-0.64, 0.4]",None,0.0,27.0,27.0,27.0,,,,,,,,,108.20123720000264,,,,,,,,,,,,,,,,,,,,,,,,,,,,108.18568260001484,108.20123720000264,108.20123720000264,108.6845059999905,108.70135250000747,111.18475889999536,111.18493129999842,None,1.0,,,,,,,,,,,,,,,,,,,,,,,,,,,,,,,,,,,,,,,,,,nback29,1.0,2023-12-15_09h57.44.101,untitled,2023.2.3,60.05555138504795,2023-12-15 10h51.13.575999 -0500,
3.0,"[0, 0.2]",None,0.0,28.0,28.0,28.0,,,,,,,,,111.20112959999824,,,,,,,,,,,,,,,,,,,,,,,,,,,,111.18562199998996,111.20112959999824,111.20112959999824,111.6846252999967,111.7012090999924,114.18459950000396,114.18479719999596,None,1.0,,,,,,,,,,,,,,,,,,,,,,,,,,,,,,,,,,,,,,,,,,nback29,1.0,2023-12-15_09h57.44.101,untitled,2023.2.3,60.05555138504795,2023-12-15 10h51.13.575999 -0500,
9.0,"[0.2, -0.1]",None,0.0,29.0,29.0,29.0,,,,,,,,,114.20120440001484,,,,,,,,,,,,,,,,,,,,,,,,,,,,114.18557760000112,114.20120440001484,114.20120440001484,114.6845222999982,114.70127429999413,117.18448100000388,117.18464409999432,None,1.0,,,,,,,,,,,,,,,,,,,,,,,,,,,,,,,,,,,,,,,,,,nback29,1.0,2023-12-15_09h57.44.101,untitled,2023.2.3,60.05555138504795,2023-12-15 10h51.13.575999 -0500,
8.0,"[-0.2, -0.1]",None,0.0,30.0,30.0,30.0,,,,,,,,,117.20130539999808,,,,,,,,,,,,,,,,,,,,,,,,,,,,117.1852552999917,117.20130539999808,117.20130539999808,117.68453180001234,117.70128169999224,120.18424229999071,120.18440679999183,None,1.0,,,,,,,,,,,,,,,,,,,,,,,,,,,,,,,,,,,,,,,,,,nback29,1.0,2023-12-15_09h57.44.101,untitled,2023.2.3,60.05555138504795,2023-12-15 10h51.13.575999 -0500,
12.0,"[0.64, -0.4]",None,0.0,31.0,31.0,31.0,,,,,,,,,120.20098449999932,,,,,,,,,,,,,,,,,,,,,,,,,,,,120.1850534999976,120.20098449999932,120.20098449999932,120.68433560000268,120.70109990000492,123.1844007000036,123.1846022999962,None,1.0,,,,,,,,,,,,,,,,,,,,,,,,,,,,,,,,,,,,,,,,,,nback29,1.0,2023-12-15_09h57.44.101,untitled,2023.2.3,60.05555138504795,2023-12-15 10h51.13.575999 -0500,
9.0,"[0.2, -0.1]",None,0.0,32.0,32.0,32.0,,,,,,,,,123.2014210000052,,,,,,,,,,,,,,,,,,,,,,,,,,,,123.18537540000398,123.2014210000052,123.2014210000052,123.68449149999653,123.70116299999064,126.18441819999134,126.18461769999703,None,1.0,,,,,,,,,,,,,,,,,,,,,,,,,,,,,,,,,,,,,,,,,,nback29,1.0,2023-12-15_09h57.44.101,untitled,2023.2.3,60.05555138504795,2023-12-15 10h51.13.575999 -0500,
11.0,"[-0.64, -0.4]",space,0.0,33.0,33.0,33.0,,,,,,,,,126.20105550001608,,,,,,,,,,,,,,,,,,,,,,,,,,,,126.1853909000056,126.20105550001608,126.20105550001608,126.684270800004,126.70103480000398,129.18439879998914,129.18459730001632,space,1.0,0.3938184999860823,None,,,,,,,,,,,,,,,,,,,,,,,,,,,,,,,,,,,,,,,,nback29,1.0,2023-12-15_09h57.44.101,untitled,2023.2.3,60.05555138504795,2023-12-15 10h51.13.575999 -0500,
7.0,"[0.3, 0]",None,0.0,34.0,34.0,34.0,,,,,,,,,129.20099400001345,,,,,,,,,,,,,,,,,,,,,,,,,,,,129.1855373000144,129.20099400001345,129.20099400001345,129.68425859999843,129.7010028999939,132.18437130001257,132.18454310001107,None,1.0,,,,,,,,,,,,,,,,,,,,,,,,,,,,,,,,,,,,,,,,,,nback29,1.0,2023-12-15_09h57.44.101,untitled,2023.2.3,60.05555138504795,2023-12-15 10h51.13.575999 -0500,
11.0,"[-0.64, -0.4]",space,0.0,35.0,35.0,35.0,,,,,,,,,132.20090550000896,,,,,,,,,,,,,,,,,,,,,,,,,,,,132.18518510001013,132.20090550000896,132.20090550000896,132.68426660000114,132.701012000005,135.18405750000966,135.1841653000156,space,1.0,0.3839283999986946,None,,,,,,,,,,,,,,,,,,,,,,,,,,,,,,,,,,,,,,,,nback29,1.0,2023-12-15_09h57.44.101,untitled,2023.2.3,60.05555138504795,2023-12-15 10h51.13.575999 -0500,
4.0,"[-0.2, 0.1]",None,0.0,36.0,36.0,36.0,,,,,,,,,135.2006970999937,,,,,,,,,,,,,,,,,,,,,,,,,,,,135.18463910001446,135.2006970999937,135.2006970999937,135.68413959999452,135.7009212000121,138.18409500000416,138.18427920000977,None,1.0,,,,,,,,,,,,,,,,,,,,,,,,,,,,,,,,,,,,,,,,,,nback29,1.0,2023-12-15_09h57.44.101,untitled,2023.2.3,60.05555138504795,2023-12-15 10h51.13.575999 -0500,
5.0,"[0.2, 0.1]",None,0.0,37.0,37.0,37.0,,,,,,,,,138.20089899998857,,,,,,,,,,,,,,,,,,,,,,,,,,,,138.1849987999885,138.20089899998857,138.20089899998857,138.6841329000017,138.70081159999245,141.18412910000188,141.18430829999852,None,1.0,,,,,,,,,,,,,,,,,,,,,,,,,,,,,,,,,,,,,,,,,,nback29,1.0,2023-12-15_09h57.44.101,untitled,2023.2.3,60.05555138504795,2023-12-15 10h51.13.575999 -0500,
6.0,"[-0.3, 0]",None,0.0,38.0,38.0,38.0,,,,,,,,,141.20079170001554,,,,,,,,,,,,,,,,,,,,,,,,,,,,141.18512840001495,141.20079170001554,141.20079170001554,141.68433099999675,141.7008148000168,144.1839971000154,144.18414339999435,None,1.0,,,,,,,,,,,,,,,,,,,,,,,,,,,,,,,,,,,,,,,,,,nback29,1.0,2023-12-15_09h57.44.101,untitled,2023.2.3,60.05555138504795,2023-12-15 10h51.13.575999 -0500,
11.0,"[-0.64, -0.4]",space,0.0,39.0,39.0,39.0,,,,,,,,,144.20067310001468,,,,,,,,,,,,,,,,,,,,,,,,,,,,144.18475970000145,144.20067310001468,144.20067310001468,144.68399879999924,144.70075230000657,147.1839767000056,147.1841706999985,space,1.0,0.3282301000144798,None,,,,,,,,,,,,,,,,,,,,,,,,,,,,,,,,,,,,,,,,nback29,1.0,2023-12-15_09h57.44.101,untitled,2023.2.3,60.05555138504795,2023-12-15 10h51.13.575999 -0500,
,,,,,,,,,,,,,,,,,,,,,,,,,,,,,,,,,,,,,,,,,,,,,,,,,,,,,,147.1848128999991,147.20078760001343,147.20078760001343,177.98521340001025,space,30.772153300000355,None,,,,,,,,,,,,,,,,,,,,,,,,,,,,,,,,,nback29,1.0,2023-12-15_09h57.44.101,untitled,2023.2.3,60.05555138504795,2023-12-15 10h51.13.575999 -0500,
10.0,"[0, -0.2]",None,,,,,0.0,0.0,0.0,0.0,,,,,179.0012284000113,,,,,,,,,,,,,,,,,,,,,,,,177.9852580000006,178.00005229999078,179.0012284000113,178.98444269999163,,,,,,,,,,,,,,,,,,,178.9992414000153,179.0012284000113,179.0012284000113,179.5002475999936,179.5168762000103,182.00022580000223,182.00041720000445,None,1.0,,,,,,,,,,,,,,,,,,,,,,,,nback29,1.0,2023-12-15_09h57.44.101,untitled,2023.2.3,60.05555138504795,2023-12-15 10h51.13.575999 -0500,
5.0,"[0.2, 0.1]",None,,,,,0.0,1.0,1.0,1.0,,,,,182.01672780001536,,,,,,,,,,,,,,,,,,,,,,,,,,,,,,,,,,,,,,,,,,,,,,182.001322600001,182.01672780001536,182.01672780001536,182.5002195000125,182.5169373000099,185.0000926000066,185.00029279998853,None,1.0,,,,,,,,,,,,,,,,,,,,,,,,nback29,1.0,2023-12-15_09h57.44.101,untitled,2023.2.3,60.05555138504795,2023-12-15 10h51.13.575999 -0500,
6.0,"[-0.3, 0]",None,,,,,0.0,2.0,2.0,2.0,,,,,185.01666900000416,,,,,,,,,,,,,,,,,,,,,,,,,,,,,,,,,,,,,,,,,,,,,,185.00105910000275,185.01666900000416,185.01666900000416,185.49996149999788,185.5165852000064,188.0000218999921,188.00022809999064,None,1.0,,,,,,,,,,,,,,,,,,,,,,,,nback29,1.0,2023-12-15_09h57.44.101,untitled,2023.2.3,60.05555138504795,2023-12-15 10h51.13.575999 -0500,
6.0,"[-0.3, 0]",space,,,,,0.0,3.0,3.0,3.0,,,,,188.01674339998863,,,,,,,,,,,,,,,,,,,,,,,,,,,,,,,,,,,,,,,,,,,,,,188.0010657999956,188.01674339998863,188.01674339998863,188.50013619998936,188.51662750000835,190.999945699994,191.000128100015,space,1.0,0.376412599987816,None,,,,,,,,,,,,,,,,,,,,,,nback29,1.0,2023-12-15_09h57.44.101,untitled,2023.2.3,60.05555138504795,2023-12-15 10h51.13.575999 -0500,
12.0,"[0.64, -0.4]",None,,,,,0.0,4.0,4.0,4.0,,,,,191.01670790000932,,,,,,,,,,,,,,,,,,,,,,,,,,,,,,,,,,,,,,,,,,,,,,191.0013270000054,191.01670790000932,191.01670790000932,191.4998346999928,191.5166870999965,193.99986740000892,194.0000564999937,None,1.0,,,,,,,,,,,,,,,,,,,,,,,,nback29,1.0,2023-12-15_09h57.44.101,untitled,2023.2.3,60.05555138504795,2023-12-15 10h51.13.575999 -0500,
10.0,"[0, -0.2]",None,,,,,0.0,5.0,5.0,5.0,,,,,194.01659230000223,,,,,,,,,,,,,,,,,,,,,,,,,,,,,,,,,,,,,,,,,,,,,,194.0007806000067,194.01659230000223,194.01659230000223,194.4996470999904,194.51622200000563,196.99983640000573,197.0000388000044,None,1.0,,,,,,,,,,,,,,,,,,,,,,,,nback29,1.0,2023-12-15_09h57.44.101,untitled,2023.2.3,60.05555138504795,2023-12-15 10h51.13.575999 -0500,
2.0,"[0.64, 0.4]",None,,,,,0.0,6.0,6.0,6.0,,,,,197.0165524999902,,,,,,,,,,,,,,,,,,,,,,,,,,,,,,,,,,,,,,,,,,,,,,197.0008252999978,197.0165524999902,197.0165524999902,197.4999631000101,197.5162728000141,199.9997633000021,199.99995719999424,None,1.0,,,,,,,,,,,,,,,,,,,,,,,,nback29,1.0,2023-12-15_09h57.44.101,untitled,2023.2.3,60.05555138504795,2023-12-15 10h51.13.575999 -0500,
9.0,"[0.2, -0.1]",None,,,,,0.0,7.0,7.0,7.0,,,,,200.01653540000552,,,,,,,,,,,,,,,,,,,,,,,,,,,,,,,,,,,,,,,,,,,,,,200.00073830000477,200.01653540000552,200.01653540000552,200.4997825000028,200.5163965999964,202.9999096000101,203.0001312000095,None,1.0,,,,,,,,,,,,,,,,,,,,,,,,nback29,1.0,2023-12-15_09h57.44.101,untitled,2023.2.3,60.05555138504795,2023-12-15 10h51.13.575999 -0500,
9.0,"[0.2, -0.1]",space,,,,,0.0,8.0,8.0,8.0,,,,,203.01650170001085,,,,,,,,,,,,,,,,,,,,,,,,,,,,,,,,,,,,,,,,,,,,,,203.00099470000717,203.01650170001085,203.01650170001085,203.4998664000013,203.51627029999509,205.999911299994,206.00012620000047,space,1.0,0.4985962000209838,None,,,,,,,,,,,,,,,,,,,,,,nback29,1.0,2023-12-15_09h57.44.101,untitled,2023.2.3,60.05555138504795,2023-12-15 10h51.13.575999 -0500,
6.0,"[-0.3, 0]",None,,,,,0.0,9.0,9.0,9.0,,,,,206.01636529999087,,,,,,,,,,,,,,,,,,,,,,,,,,,,,,,,,,,,,,,,,,,,,,206.0011344999948,206.01636529999087,206.01636529999087,206.499695800012,206.516232199996,208.99976080001213,208.99995820000183,None,1.0,,,,,,,,,,,,,,,,,,,,,,,,nback29,1.0,2023-12-15_09h57.44.101,untitled,2023.2.3,60.05555138504795,2023-12-15 10h51.13.575999 -0500,
11.0,"[-0.64, -0.4]",None,,,,,0.0,10.0,10.0,10.0,,,,,209.01637050000136,,,,,,,,,,,,,,,,,,,,,,,,,,,,,,,,,,,,,,,,,,,,,,209.00083639999505,209.01637050000136,209.01637050000136,209.49954290001187,209.51622069999576,211.99959530000345,211.99979279999388,None,1.0,,,,,,,,,,,,,,,,,,,,,,,,nback29,1.0,2023-12-15_09h57.44.101,untitled,2023.2.3,60.05555138504795,2023-12-15 10h51.13.575999 -0500,
11.0,"[-0.64, -0.4]",space,,,,,0.0,11.0,11.0,11.0,,,,,212.0160972000158,,,,,,,,,,,,,,,,,,,,,,,,,,,,,,,,,,,,,,,,,,,,,,212.0005935000081,212.0160972000158,212.0160972000158,212.49961800000165,212.51643260000856,214.9996597999998,214.99987850000616,space,1.0,0.4078168999985792,None,,,,,,,,,,,,,,,,,,,,,,nback29,1.0,2023-12-15_09h57.44.101,untitled,2023.2.3,60.05555138504795,2023-12-15 10h51.13.575999 -0500,
4.0,"[-0.2, 0.1]",None,,,,,0.0,12.0,12.0,12.0,,,,,215.01616410000133,,,,,,,,,,,,,,,,,,,,,,,,,,,,,,,,,,,,,,,,,,,,,,215.0008702999912,215.01616410000133,215.01616410000133,215.4996236000152,215.51623470001505,217.9994661000092,217.99966170001423,None,1.0,,,,,,,,,,,,,,,,,,,,,,,,nback29,1.0,2023-12-15_09h57.44.101,untitled,2023.2.3,60.05555138504795,2023-12-15 10h51.13.575999 -0500,
3.0,"[0, 0.2]",None,,,,,0.0,13.0,13.0,13.0,,,,,218.0161523999996,,,,,,,,,,,,,,,,,,,,,,,,,,,,,,,,,,,,,,,,,,,,,,218.0005513000069,218.0161523999996,218.0161523999996,218.4995848000108,218.516208200017,220.9994258999941,220.99964029999683,None,1.0,,,,,,,,,,,,,,,,,,,,,,,,nback29,1.0,2023-12-15_09h57.44.101,untitled,2023.2.3,60.05555138504795,2023-12-15 10h51.13.575999 -0500,
3.0,"[0, 0.2]",space,,,,,0.0,14.0,14.0,14.0,,,,,221.0161101999984,,,,,,,,,,,,,,,,,,,,,,,,,,,,,,,,,,,,,,,,,,,,,,221.00045880000107,221.0161101999984,221.0161101999984,221.49939139999333,221.5161505000142,223.99955659999975,223.99975620000623,space,1.0,0.4326851999794598,None,,,,,,,,,,,,,,,,,,,,,,nback29,1.0,2023-12-15_09h57.44.101,untitled,2023.2.3,60.05555138504795,2023-12-15 10h51.13.575999 -0500,
8.0,"[-0.2, -0.1]",None,,,,,0.0,15.0,15.0,15.0,,,,,224.0160812000104,,,,,,,,,,,,,,,,,,,,,,,,,,,,,,,,,,,,,,,,,,,,,,224.0007359000156,224.0160812000104,224.0160812000104,224.49933900000175,224.5159205000091,226.99950669999816,226.99969640001652,None,1.0,,,,,,,,,,,,,,,,,,,,,,,,nback29,1.0,2023-12-15_09h57.44.101,untitled,2023.2.3,60.05555138504795,2023-12-15 10h51.13.575999 -0500,
1.0,"[-0.64, 0.4]",None,,,,,0.0,16.0,16.0,16.0,,,,,227.0158924999996,,,,,,,,,,,,,,,,,,,,,,,,,,,,,,,,,,,,,,,,,,,,,,227.00046889999064,227.0158924999996,227.0158924999996,227.4993172000104,227.515942500002,229.99936760001583,229.9995659000124,None,1.0,,,,,,,,,,,,,,,,,,,,,,,,nback29,1.0,2023-12-15_09h57.44.101,untitled,2023.2.3,60.05555138504795,2023-12-15 10h51.13.575999 -0500,
2.0,"[0.64, 0.4]",None,,,,,0.0,17.0,17.0,17.0,,,,,230.0159413999936,,,,,,,,,,,,,,,,,,,,,,,,,,,,,,,,,,,,,,,,,,,,,,230.0003386999888,230.0159413999936,230.0159413999936,230.4992995999928,230.51594060001665,232.99932180001636,232.999510499998,None,1.0,,,,,,,,,,,,,,,,,,,,,,,,nback29,1.0,2023-12-15_09h57.44.101,untitled,2023.2.3,60.05555138504795,2023-12-15 10h51.13.575999 -0500,
4.0,"[-0.2, 0.1]",None,,,,,0.0,18.0,18.0,18.0,,,,,233.01595400000224,,,,,,,,,,,,,,,,,,,,,,,,,,,,,,,,,,,,,,,,,,,,,,233.00028840001323,233.01595400000224,233.01595400000224,233.4994258999941,233.5160188000009,235.9992260000145,235.99943429999985,None,1.0,,,,,,,,,,,,,,,,,,,,,,,,nback29,1.0,2023-12-15_09h57.44.101,untitled,2023.2.3,60.05555138504795,2023-12-15 10h51.13.575999 -0500,
4.0,"[-0.2, 0.1]",space,,,,,0.0,19.0,19.0,19.0,,,,,236.01587420000575,,,,,,,,,,,,,,,,,,,,,,,,,,,,,,,,,,,,,,,,,,,,,,236.0002514999942,236.01587420000575,236.01587420000575,236.4990034000075,236.51563850001548,238.99928270000964,238.99947100001737,space,1.0,0.3295558000099845,None,,,,,,,,,,,,,,,,,,,,,,nback29,1.0,2023-12-15_09h57.44.101,untitled,2023.2.3,60.05555138504795,2023-12-15 10h51.13.575999 -0500,
8.0,"[-0.2, -0.1]",None,,,,,0.0,20.0,20.0,20.0,,,,,239.0157079999917,,,,,,,,,,,,,,,,,,,,,,,,,,,,,,,,,,,,,,,,,,,,,,239.0003675000044,239.0157079999917,239.0157079999917,239.4991808999912,239.5157779000001,241.99915399999009,241.99936149999849,None,1.0,,,,,,,,,,,,,,,,,,,,,,,,nback29,1.0,2023-12-15_09h57.44.101,untitled,2023.2.3,60.05555138504795,2023-12-15 10h51.13.575999 -0500,
5.0,"[0.2, 0.1]",None,,,,,0.0,21.0,21.0,21.0,,,,,242.0158034999913,,,,,,,,,,,,,,,,,,,,,,,,,,,,,,,,,,,,,,,,,,,,,,242.000028200011,242.0158034999913,242.0158034999913,242.4991857999994,242.51574520001304,244.99910469999304,244.99929480001447,None,1.0,,,,,,,,,,,,,,,,,,,,,,,,nback29,1.0,2023-12-15_09h57.44.101,untitled,2023.2.3,60.05555138504795,2023-12-15 10h51.13.575999 -0500,
5.0,"[0.2, 0.1]",space,,,,,0.0,22.0,22.0,22.0,,,,,245.01564240001608,,,,,,,,,,,,,,,,,,,,,,,,,,,,,,,,,,,,,,,,,,,,,,244.9999755000172,245.01564240001608,245.01564240001608,245.4988857000135,245.5156139000028,247.99903500001528,247.99922210001387,space,1.0,0.4214193999941926,None,,,,,,,,,,,,,,,,,,,,,,nback29,1.0,2023-12-15_09h57.44.101,untitled,2023.2.3,60.05555138504795,2023-12-15 10h51.13.575999 -0500,
1.0,"[-0.64, 0.4]",None,,,,,0.0,23.0,23.0,23.0,,,,,248.01571770000737,,,,,,,,,,,,,,,,,,,,,,,,,,,,,,,,,,,,,,,,,,,,,,248.00012010001228,248.01571770000737,248.01571770000737,248.49883170000976,248.51561349999972,250.99900579999667,250.99920320001547,None,1.0,,,,,,,,,,,,,,,,,,,,,,,,nback29,1.0,2023-12-15_09h57.44.101,untitled,2023.2.3,60.05555138504795,2023-12-15 10h51.13.575999 -0500,
3.0,"[0, 0.2]",None,,,,,0.0,24.0,24.0,24.0,,,,,251.0156339000096,,,,,,,,,,,,,,,,,,,,,,,,,,,,,,,,,,,,,,,,,,,,,,251.00001519999927,251.0156339000096,251.0156339000096,251.4990947000042,251.51568109999064,253.9988849000074,253.9990987000056,None,1.0,,,,,,,,,,,,,,,,,,,,,,,,nback29,1.0,2023-12-15_09h57.44.101,untitled,2023.2.3,60.05555138504795,2023-12-15 10h51.13.575999 -0500,
6.0,"[-0.3, 0]",None,,,,,0.0,25.0,25.0,25.0,,,,,254.01553890001375,,,,,,,,,,,,,,,,,,,,,,,,,,,,,,,,,,,,,,,,,,,,,,253.99994320000403,254.01553890001375,254.01553890001375,254.49888430000283,254.5153140999901,256.99894039999344,256.99913240000024,None,1.0,,,,,,,,,,,,,,,,,,,,,,,,nback29,1.0,2023-12-15_09h57.44.101,untitled,2023.2.3,60.05555138504795,2023-12-15 10h51.13.575999 -0500,
1.0,"[-0.64, 0.4]",None,,,,,0.0,26.0,26.0,26.0,,,,,257.01554880000185,,,,,,,,,,,,,,,,,,,,,,,,,,,,,,,,,,,,,,,,,,,,,,256.9998942000093,257.01554880000185,257.01554880000185,257.4987933000084,257.51546140000573,259.9988685999997,259.9990495000093,None,1.0,,,,,,,,,,,,,,,,,,,,,,,,nback29,1.0,2023-12-15_09h57.44.101,untitled,2023.2.3,60.05555138504795,2023-12-15 10h51.13.575999 -0500,
1.0,"[-0.64, 0.4]",space,,,,,0.0,27.0,27.0,27.0,,,,,260.0153694000037,,,,,,,,,,,,,,,,,,,,,,,,,,,,,,,,,,,,,,,,,,,,,,259.9997687000141,260.0153694000037,260.0153694000037,260.4989423000079,260.5153913999966,262.99882660000003,262.9990366999991,space,1.0,0.3386504999944009,None,,,,,,,,,,,,,,,,,,,,,,nback29,1.0,2023-12-15_09h57.44.101,untitled,2023.2.3,60.05555138504795,2023-12-15 10h51.13.575999 -0500,
1.0,"[-0.64, 0.4]",space,,,,,0.0,28.0,28.0,28.0,,,,,263.0155298000027,,,,,,,,,,,,,,,,,,,,,,,,,,,,,,,,,,,,,,,,,,,,,,263.0000413999951,263.0155298000027,263.0155298000027,263.49873439999647,263.51532090001274,265.9987414999923,265.9989532000036,space,1.0,0.3822359000041615,None,,,,,,,,,,,,,,,,,,,,,,nback29,1.0,2023-12-15_09h57.44.101,untitled,2023.2.3,60.05555138504795,2023-12-15 10h51.13.575999 -0500,
3.0,"[0, 0.2]",None,,,,,0.0,29.0,29.0,29.0,,,,,266.0152476000076,,,,,,,,,,,,,,,,,,,,,,,,,,,,,,,,,,,,,,,,,,,,,,265.99999760001083,266.0152476000076,266.0152476000076,266.4987301999936,266.515330299997,268.9987572999962,268.9989673999953,None,1.0,,,,,,,,,,,,,,,,,,,,,,,,nback29,1.0,2023-12-15_09h57.44.101,untitled,2023.2.3,60.05555138504795,2023-12-15 10h51.13.575999 -0500,
12.0,"[0.64, -0.4]",None,,,,,0.0,30.0,30.0,30.0,,,,,269.01543440000387,,,,,,,,,,,,,,,,,,,,,,,,,,,,,,,,,,,,,,,,,,,,,,268.9998249000055,269.01543440000387,269.01543440000387,269.49859080000897,269.51515500000096,271.9985898000013,271.99877840001136,None,1.0,,,,,,,,,,,,,,,,,,,,,,,,nback29,1.0,2023-12-15_09h57.44.101,untitled,2023.2.3,60.05555138504795,2023-12-15 10h51.13.575999 -0500,
12.0,"[0.64, -0.4]",space,,,,,0.0,31.0,31.0,31.0,,,,,272.015224200004,,,,,,,,,,,,,,,,,,,,,,,,,,,,,,,,,,,,,,,,,,,,,,271.99950440000976,272.015224200004,272.015224200004,272.49847469999804,272.5152221000171,274.998410500004,274.99856599999475,None,0.0,,,,,,,,,,,,,,,,,,,,,,,,nback29,1.0,2023-12-15_09h57.44.101,untitled,2023.2.3,60.05555138504795,2023-12-15 10h51.13.575999 -0500,
2.0,"[0.64, 0.4]",None,,,,,0.0,32.0,32.0,32.0,,,,,275.0152475000068,,,,,,,,,,,,,,,,,,,,,,,,,,,,,,,,,,,,,,,,,,,,,,274.99916569999186,275.0152475000068,275.0152475000068,275.49863330001244,275.51523240000824,277.9984516999976,277.9986402000068,None,1.0,,,,,,,,,,,,,,,,,,,,,,,,nback29,1.0,2023-12-15_09h57.44.101,untitled,2023.2.3,60.05555138504795,2023-12-15 10h51.13.575999 -0500,
1.0,"[-0.64, 0.4]",None,,,,,0.0,33.0,33.0,33.0,,,,,278.01528359999065,,,,,,,,,,,,,,,,,,,,,,,,,,,,,,,,,,,,,,,,,,,,,,277.99937350000255,278.01528359999065,278.01528359999065,278.49830810001004,278.5149313000147,280.99844210001174,280.99862339999527,None,1.0,,,,,,,,,,,,,,,,,,,,,,,,nback29,1.0,2023-12-15_09h57.44.101,untitled,2023.2.3,60.05555138504795,2023-12-15 10h51.13.575999 -0500,
7.0,"[0.3, 0]",None,,,,,0.0,34.0,34.0,34.0,,,,,281.01515059999656,,,,,,,,,,,,,,,,,,,,,,,,,,,,,,,,,,,,,,,,,,,,,,280.99933809999493,281.01515059999656,281.01515059999656,281.4983790999977,281.51494260001346,283.9984519999998,283.9986471000011,None,1.0,,,,,,,,,,,,,,,,,,,,,,,,nback29,1.0,2023-12-15_09h57.44.101,untitled,2023.2.3,60.05555138504795,2023-12-15 10h51.13.575999 -0500,
7.0,"[0.3, 0]",space,,,,,0.0,35.0,35.0,35.0,,,,,284.01490979999653,,,,,,,,,,,,,,,,,,,,,,,,,,,,,,,,,,,,,,,,,,,,,,283.9994577000034,284.01490979999653,284.01490979999653,284.49840350000886,284.5150486000057,286.9983811000129,286.9985527000099,space,1.0,0.3743791000160854,None,,,,,,,,,,,,,,,,,,,,,,nback29,1.0,2023-12-15_09h57.44.101,untitled,2023.2.3,60.05555138504795,2023-12-15 10h51.13.575999 -0500,
11.0,"[-0.64, -0.4]",None,,,,,0.0,36.0,36.0,36.0,,,,,287.01501480001025,,,,,,,,,,,,,,,,,,,,,,,,,,,,,,,,,,,,,,,,,,,,,,286.9994274000055,287.01501480001025,287.01501480001025,287.49823279998964,287.5148509000137,289.9984173999983,289.99861539999256,None,1.0,,,,,,,,,,,,,,,,,,,,,,,,nback29,1.0,2023-12-15_09h57.44.101,untitled,2023.2.3,60.05555138504795,2023-12-15 10h51.13.575999 -0500,
2.0,"[0.64, 0.4]",None,,,,,0.0,37.0,37.0,37.0,,,,,290.01505509999697,,,,,,,,,,,,,,,,,,,,,,,,,,,,,,,,,,,,,,,,,,,,,,289.9993715000164,290.01505509999697,290.01505509999697,290.49829560000217,290.5149361999938,292.9982362000155,292.9984153000114,None,1.0,,,,,,,,,,,,,,,,,,,,,,,,nback29,1.0,2023-12-15_09h57.44.101,untitled,2023.2.3,60.05555138504795,2023-12-15 10h51.13.575999 -0500,
6.0,"[-0.3, 0]",None,,,,,0.0,38.0,38.0,38.0,,,,,293.01495549999527,,,,,,,,,,,,,,,,,,,,,,,,,,,,,,,,,,,,,,,,,,,,,,292.9990270000126,293.01495549999527,293.01495549999527,293.4981220999907,293.5147941999894,295.9982000000018,295.9984212999989,None,1.0,,,,,,,,,,,,,,,,,,,,,,,,nback29,1.0,2023-12-15_09h57.44.101,untitled,2023.2.3,60.05555138504795,2023-12-15 10h51.13.575999 -0500,
10.0,"[0, -0.2]",None,,,,,0.0,39.0,39.0,39.0,,,,,296.01492169999983,,,,,,,,,,,,,,,,,,,,,,,,,,,,,,,,,,,,,,,,,,,,,,295.9992964999983,296.01492169999983,296.01492169999983,296.49825939998846,296.5148036000028,298.9982633999898,298.9984448000032,None,1.0,,,,,,,,,,,,,,,,,,,,,,,,nback29,1.0,2023-12-15_09h57.44.101,untitled,2023.2.3,60.05555138504795,2023-12-15 10h51.13.575999 -0500,
,,,,,,,,,,,,,,,,,,,,,,,,,,,,,,,,,,,,,,,,,,,,,,,,,,,,,,,,,,,,,,,,,,,,,,,,298.99897069999133,299.0148496000038,299.0148496000038,325.2658930000034,space,26.233972899994114,None,,,,,,,,,,,,,,,nback29,1.0,2023-12-15_09h57.44.101,untitled,2023.2.3,60.05555138504795,2023-12-15 10h51.13.575999 -0500,
,"[0.2, 0.1]",None,,,,,,,,,0.0,0.0,0.0,0.0,326.28490669999155,,,,,,,,,,,,,,,,,,,,,,,,325.26594050001586,325.280937500007,326.28490669999155,326.2650743999984,,,,,,,,,,,,,,,,,,,,,,,,,,,,,,,,,,,,,326.2829583999992,326.28490669999155,326.28490669999155,326.7809866000025,326.79773700001533,329.2810499999905,329.28126540000085,None,1.0,,,,,,nback29,1.0,2023-12-15_09h57.44.101,untitled,2023.2.3,60.05555138504795,2023-12-15 10h51.13.575999 -0500,
,"[0.64, 0.4]",None,,,,,,,,,0.0,1.0,1.0,1.0,329.29767230001744,,,,,,,,,,,,,,,,,,,,,,,,,,,,,,,,,,,,,,,,,,,,,,,,,,,,,,,,,,,,,,,,329.28230700001586,329.29767230001744,329.29767230001744,329.78092670001206,329.7974939999985,332.28092469999683,332.28112850000616,None,1.0,,,,,,nback29,1.0,2023-12-15_09h57.44.101,untitled,2023.2.3,60.05555138504795,2023-12-15 10h51.13.575999 -0500,
,"[-0.3, 0]",None,,,,,,,,,0.0,2.0,2.0,2.0,332.29756000000634,,,,,,,,,,,,,,,,,,,,,,,,,,,,,,,,,,,,,,,,,,,,,,,,,,,,,,,,,,,,,,,,332.2819227,332.29756000000634,332.29756000000634,332.78087499999674,332.79768779998994,335.2809905000031,335.2811886999989,None,1.0,,,,,,nback29,1.0,2023-12-15_09h57.44.101,untitled,2023.2.3,60.05555138504795,2023-12-15 10h51.13.575999 -0500,
,"[0.2, -0.1]",None,,,,,,,,,0.0,3.0,3.0,3.0,335.29758589999983,,,,,,,,,,,,,,,,,,,,,,,,,,,,,,,,,,,,,,,,,,,,,,,,,,,,,,,,,,,,,,,,335.2819555000169,335.29758589999983,335.29758589999983,335.7807205000136,335.7975730999897,338.2807721999998,338.28093909999006,None,1.0,,,,,,nback29,1.0,2023-12-15_09h57.44.101,untitled,2023.2.3,60.05555138504795,2023-12-15 10h51.13.575999 -0500,
,"[0, 0.2]",None,,,,,,,,,0.0,4.0,4.0,4.0,338.29738070000894,,,,,,,,,,,,,,,,,,,,,,,,,,,,,,,,,,,,,,,,,,,,,,,,,,,,,,,,,,,,,,,,338.2816127999977,338.29738070000894,338.29738070000894,338.78102059999947,338.79751649999525,341.28084890000173,341.2810347999912,None,1.0,,,,,,nback29,1.0,2023-12-15_09h57.44.101,untitled,2023.2.3,60.05555138504795,2023-12-15 10h51.13.575999 -0500,
,"[0.2, -0.1]",space,,,,,,,,,0.0,5.0,5.0,5.0,341.29761589999544,,,,,,,,,,,,,,,,,,,,,,,,,,,,,,,,,,,,,,,,,,,,,,,,,,,,,,,,,,,,,,,,341.28184519999195,341.29761589999544,341.29761589999544,341.7808026999992,341.7973411999992,344.2807849000092,344.2809833000065,space,1.0,0.5670518999977503,None,,,,nback29,1.0,2023-12-15_09h57.44.101,untitled,2023.2.3,60.05555138504795,2023-12-15 10h51.13.575999 -0500,
,"[0, -0.2]",None,,,,,,,,,0.0,6.0,6.0,6.0,344.29744739999296,,,,,,,,,,,,,,,,,,,,,,,,,,,,,,,,,,,,,,,,,,,,,,,,,,,,,,,,,,,,,,,,344.2822477000009,344.29744739999296,344.29744739999296,344.78082919999724,344.7974327999982,347.2805941000115,347.2807243000134,None,1.0,,,,,,nback29,1.0,2023-12-15_09h57.44.101,untitled,2023.2.3,60.05555138504795,2023-12-15 10h51.13.575999 -0500,
,"[0.64, -0.4]",None,,,,,,,,,0.0,7.0,7.0,7.0,347.297370699991,,,,,,,,,,,,,,,,,,,,,,,,,,,,,,,,,,,,,,,,,,,,,,,,,,,,,,,,,,,,,,,,347.28119780001,347.297370699991,347.297370699991,347.7805129000044,347.7973008000117,350.28075730000273,350.2809554999985,None,1.0,,,,,,nback29,1.0,2023-12-15_09h57.44.101,untitled,2023.2.3,60.05555138504795,2023-12-15 10h51.13.575999 -0500,
,"[0.3, 0]",None,,,,,,,,,0.0,8.0,8.0,8.0,350.297336299991,,,,,,,,,,,,,,,,,,,,,,,,,,,,,,,,,,,,,,,,,,,,,,,,,,,,,,,,,,,,,,,,350.281744900014,350.297336299991,350.297336299991,350.78059320000466,350.79697419999866,353.2805922999978,353.2807918000035,None,1.0,,,,,,nback29,1.0,2023-12-15_09h57.44.101,untitled,2023.2.3,60.05555138504795,2023-12-15 10h51.13.575999 -0500,
,"[0.64, -0.4]",space,,,,,,,,,0.0,9.0,9.0,9.0,353.29742980000447,,,,,,,,,,,,,,,,,,,,,,,,,,,,,,,,,,,,,,,,,,,,,,,,,,,,,,,,,,,,,,,,353.2815738999925,353.29742980000447,353.29742980000447,353.78052719999687,353.7972182999947,356.2805561000132,356.28076680001686,space,1.0,0.4167022000183351,None,,,,nback29,1.0,2023-12-15_09h57.44.101,untitled,2023.2.3,60.05555138504795,2023-12-15 10h51.13.575999 -0500,
,"[-0.64, 0.4]",None,,,,,,,,,0.0,10.0,10.0,10.0,356.29716280000866,,,,,,,,,,,,,,,,,,,,,,,,,,,,,,,,,,,,,,,,,,,,,,,,,,,,,,,,,,,,,,,,356.28179350000573,356.29716280000866,356.29716280000866,356.7806172000128,356.79710620001424,359.28043569999863,359.280622899998,None,1.0,,,,,,nback29,1.0,2023-12-15_09h57.44.101,untitled,2023.2.3,60.05555138504795,2023-12-15 10h51.13.575999 -0500,
,"[0.2, 0.1]",None,,,,,,,,,0.0,11.0,11.0,11.0,359.2969993000152,,,,,,,,,,,,,,,,,,,,,,,,,,,,,,,,,,,,,,,,,,,,,,,,,,,,,,,,,,,,,,,,359.2814273000113,359.2969993000152,359.2969993000152,359.7805403000093,359.79733750000014,362.2804171000025,362.2805953999923,None,1.0,,,,,,nback29,1.0,2023-12-15_09h57.44.101,untitled,2023.2.3,60.05555138504795,2023-12-15 10h51.13.575999 -0500,
,"[0.3, 0]",None,,,,,,,,,0.0,12.0,12.0,12.0,362.2970435000025,,,,,,,,,,,,,,,,,,,,,,,,,,,,,,,,,,,,,,,,,,,,,,,,,,,,,,,,,,,,,,,,362.28127939999104,362.2970435000025,362.2970435000025,362.7803905000037,362.7970362000051,365.2804281999997,365.28063819999807,None,1.0,,,,,,nback29,1.0,2023-12-15_09h57.44.101,untitled,2023.2.3,60.05555138504795,2023-12-15 10h51.13.575999 -0500,
,"[0.2, 0.1]",space,,,,,,,,,0.0,13.0,13.0,13.0,365.2970817000023,,,,,,,,,,,,,,,,,,,,,,,,,,,,,,,,,,,,,,,,,,,,,,,,,,,,,,,,,,,,,,,,365.2814847000118,365.2970817000023,365.2970817000023,365.7804008999956,365.797018000012,368.2803436999966,368.2805570999917,space,1.0,0.3735099000041373,None,,,,nback29,1.0,2023-12-15_09h57.44.101,untitled,2023.2.3,60.05555138504795,2023-12-15 10h51.13.575999 -0500,
,"[-0.3, 0]",None,,,,,,,,,0.0,14.0,14.0,14.0,368.2968911000062,,,,,,,,,,,,,,,,,,,,,,,,,,,,,,,,,,,,,,,,,,,,,,,,,,,,,,,,,,,,,,,,368.2815527000057,368.2968911000062,368.2968911000062,368.7803742999968,368.79702980001457,371.2804486000096,371.2806463000016,None,1.0,,,,,,nback29,1.0,2023-12-15_09h57.44.101,untitled,2023.2.3,60.05555138504795,2023-12-15 10h51.13.575999 -0500,
,"[0, 0.2]",None,,,,,,,,,0.0,15.0,15.0,15.0,371.29698849999113,,,,,,,,,,,,,,,,,,,,,,,,,,,,,,,,,,,,,,,,,,,,,,,,,,,,,,,,,,,,,,,,371.2814128000173,371.29698849999113,371.29698849999113,371.7803963999904,371.7970680000144,374.28018619999057,374.28036060000886,None,1.0,,,,,,nback29,1.0,2023-12-15_09h57.44.101,untitled,2023.2.3,60.05555138504795,2023-12-15 10h51.13.575999 -0500,
,"[-0.3, 0]",space,,,,,,,,,0.0,16.0,16.0,16.0,374.2968053999939,,,,,,,,,,,,,,,,,,,,,,,,,,,,,,,,,,,,,,,,,,,,,,,,,,,,,,,,,,,,,,,,374.2810480000044,374.2968053999939,374.2968053999939,374.7802500000107,374.7970162999991,377.2799590000068,377.2800890000072,space,1.0,2.6099251999985427,None,,,,nback29,1.0,2023-12-15_09h57.44.101,untitled,2023.2.3,60.05555138504795,2023-12-15 10h51.13.575999 -0500,
,"[-0.64, -0.4]",None,,,,,,,,,0.0,17.0,17.0,17.0,377.296800000011,,,,,,,,,,,,,,,,,,,,,,,,,,,,,,,,,,,,,,,,,,,,,,,,,,,,,,,,,,,,,,,,377.2806789999886,377.296800000011,377.296800000011,377.78005689999554,377.7968505999888,380.28025460001663,380.2804850999965,None,1.0,,,,,,nback29,1.0,2023-12-15_09h57.44.101,untitled,2023.2.3,60.05555138504795,2023-12-15 10h51.13.575999 -0500,
,"[-0.2, -0.1]",None,,,,,,,,,0.0,18.0,18.0,18.0,380.2968527000048,,,,,,,,,,,,,,,,,,,,,,,,,,,,,,,,,,,,,,,,,,,,,,,,,,,,,,,,,,,,,,,,380.2813058999891,380.2968527000048,380.2968527000048,380.780079499993,380.796877899993,383.2800474000105,383.2801608000009,None,1.0,,,,,,nback29,1.0,2023-12-15_09h57.44.101,untitled,2023.2.3,60.05555138504795,2023-12-15 10h51.13.575999 -0500,
,"[0.2, -0.1]",None,,,,,,,,,0.0,19.0,19.0,19.0,383.2968491000065,,,,,,,,,,,,,,,,,,,,,,,,,,,,,,,,,,,,,,,,,,,,,,,,,,,,,,,,,,,,,,,,383.28052540001227,383.2968491000065,383.2968491000065,383.7800241000077,383.7967506000132,386.280117199989,386.2803026000038,None,1.0,,,,,,nback29,1.0,2023-12-15_09h57.44.101,untitled,2023.2.3,60.05555138504795,2023-12-15 10h51.13.575999 -0500,
,"[0.2, -0.1]",None,,,,,,,,,0.0,20.0,20.0,20.0,386.2967984999996,,,,,,,,,,,,,,,,,,,,,,,,,,,,,,,,,,,,,,,,,,,,,,,,,,,,,,,,,,,,,,,,386.2810644000128,386.2967984999996,386.2967984999996,386.7799966000021,386.7968594999984,389.27994619999663,389.2801356000127,None,1.0,,,,,,nback29,1.0,2023-12-15_09h57.44.101,untitled,2023.2.3,60.05555138504795,2023-12-15 10h51.13.575999 -0500,
,"[-0.64, 0.4]",None,,,,,,,,,0.0,21.0,21.0,21.0,389.2965557000134,,,,,,,,,,,,,,,,,,,,,,,,,,,,,,,,,,,,,,,,,,,,,,,,,,,,,,,,,,,,,,,,389.2808541000122,389.2965557000134,389.2965557000134,389.7801249999902,389.7966556000174,392.2799662000034,392.28016709999065,None,1.0,,,,,,nback29,1.0,2023-12-15_09h57.44.101,untitled,2023.2.3,60.05555138504795,2023-12-15 10h51.13.575999 -0500,
,"[0, 0.2]",None,,,,,,,,,0.0,22.0,22.0,22.0,392.2967392000137,,,,,,,,,,,,,,,,,,,,,,,,,,,,,,,,,,,,,,,,,,,,,,,,,,,,,,,,,,,,,,,,392.2809344000125,392.2967392000137,392.2967392000137,392.7800414999947,392.7967073000036,395.2799410000152,395.28012879999005,None,1.0,,,,,,nback29,1.0,2023-12-15_09h57.44.101,untitled,2023.2.3,60.05555138504795,2023-12-15 10h51.13.575999 -0500,
,"[0.64, -0.4]",None,,,,,,,,,0.0,23.0,23.0,23.0,395.2965865000151,,,,,,,,,,,,,,,,,,,,,,,,,,,,,,,,,,,,,,,,,,,,,,,,,,,,,,,,,,,,,,,,395.2808483999979,395.2965865000151,395.2965865000151,395.779701499996,395.7965153999976,398.279729300004,398.2799144000164,None,1.0,,,,,,nback29,1.0,2023-12-15_09h57.44.101,untitled,2023.2.3,60.05555138504795,2023-12-15 10h51.13.575999 -0500,
,"[0, 0.2]",space,,,,,,,,,0.0,24.0,24.0,24.0,398.29646040001535,,,,,,,,,,,,,,,,,,,,,,,,,,,,,,,,,,,,,,,,,,,,,,,,,,,,,,,,,,,,,,,,398.2806600999902,398.29646040001535,398.29646040001535,398.7799892000039,398.7965406000149,401.2797740999959,401.2799682999903,space,1.0,0.649220699997386,None,,,,nback29,1.0,2023-12-15_09h57.44.101,untitled,2023.2.3,60.05555138504795,2023-12-15 10h51.13.575999 -0500,
,"[-0.2, 0.1]",None,,,,,,,,,0.0,25.0,25.0,25.0,401.2964303999906,,,,,,,,,,,,,,,,,,,,,,,,,,,,,,,,,,,,,,,,,,,,,,,,,,,,,,,,,,,,,,,,401.28090909999446,401.2964303999906,401.2964303999906,401.7798914000159,401.79642830000375,404.27977329998976,404.27999889999046,None,1.0,,,,,,nback29,1.0,2023-12-15_09h57.44.101,untitled,2023.2.3,60.05555138504795,2023-12-15 10h51.13.575999 -0500,
,"[0.3, 0]",None,,,,,,,,,0.0,26.0,26.0,26.0,404.29645620001247,,,,,,,,,,,,,,,,,,,,,,,,,,,,,,,,,,,,,,,,,,,,,,,,,,,,,,,,,,,,,,,,404.2808171999932,404.29645620001247,404.29645620001247,404.77989080001134,404.7963971999998,407.27962919999845,407.2797994000138,None,1.0,,,,,,nback29,1.0,2023-12-15_09h57.44.101,untitled,2023.2.3,60.05555138504795,2023-12-15 10h51.13.575999 -0500,
,"[-0.2, 0.1]",space,,,,,,,,,0.0,27.0,27.0,27.0,407.2963920999901,,,,,,,,,,,,,,,,,,,,,,,,,,,,,,,,,,,,,,,,,,,,,,,,,,,,,,,,,,,,,,,,407.2804496999888,407.2963920999901,407.2963920999901,407.7797197999898,407.7962797000073,410.2796598999994,410.2798605000135,space,1.0,0.3768405000155326,None,,,,nback29,1.0,2023-12-15_09h57.44.101,untitled,2023.2.3,60.05555138504795,2023-12-15 10h51.13.575999 -0500,
,"[-0.2, 0.1]",None,,,,,,,,,0.0,28.0,28.0,28.0,410.2962815999927,,,,,,,,,,,,,,,,,,,,,,,,,,,,,,,,,,,,,,,,,,,,,,,,,,,,,,,,,,,,,,,,410.2807803000032,410.2962815999927,410.2962815999927,410.77959950000513,410.7964379999903,413.27967910000007,413.2798837000155,None,1.0,,,,,,nback29,1.0,2023-12-15_09h57.44.101,untitled,2023.2.3,60.05555138504795,2023-12-15 10h51.13.575999 -0500,
,"[0.2, 0.1]",None,,,,,,,,,0.0,29.0,29.0,29.0,413.29639160001534,,,,,,,,,,,,,,,,,,,,,,,,,,,,,,,,,,,,,,,,,,,,,,,,,,,,,,,,,,,,,,,,413.2807164000114,413.29639160001534,413.29639160001534,413.7795321000158,413.79626170001575,416.2796195000119,416.2798803999904,None,1.0,,,,,,nback29,1.0,2023-12-15_09h57.44.101,untitled,2023.2.3,60.05555138504795,2023-12-15 10h51.13.575999 -0500,
,"[-0.64, -0.4]",None,,,,,,,,,0.0,30.0,30.0,30.0,416.2963448000082,,,,,,,,,,,,,,,,,,,,,,,,,,,,,,,,,,,,,,,,,,,,,,,,,,,,,,,,,,,,,,,,416.2806749000156,416.2963448000082,416.2963448000082,416.779509999993,416.79609449999407,419.2795015000156,419.2796971999924,None,1.0,,,,,,nback29,1.0,2023-12-15_09h57.44.101,untitled,2023.2.3,60.05555138504795,2023-12-15 10h51.13.575999 -0500,
,"[0, -0.2]",None,,,,,,,,,0.0,31.0,31.0,31.0,419.2963080999907,,,,,,,,,,,,,,,,,,,,,,,,,,,,,,,,,,,,,,,,,,,,,,,,,,,,,,,,,,,,,,,,419.2804652999912,419.2963080999907,419.2963080999907,419.7794210000138,419.7961515999923,422.279508800013,422.2797067000065,None,1.0,,,,,,nback29,1.0,2023-12-15_09h57.44.101,untitled,2023.2.3,60.05555138504795,2023-12-15 10h51.13.575999 -0500,
,"[-0.64, -0.4]",space,,,,,,,,,0.0,32.0,32.0,32.0,422.29615300000296,,,,,,,,,,,,,,,,,,,,,,,,,,,,,,,,,,,,,,,,,,,,,,,,,,,,,,,,,,,,,,,,422.2804764999892,422.29615300000296,422.29615300000296,422.7793325000093,422.7961333999992,425.2793266999943,425.2795259999984,space,1.0,0.4587255000078585,None,,,,nback29,1.0,2023-12-15_09h57.44.101,untitled,2023.2.3,60.05555138504795,2023-12-15 10h51.13.575999 -0500,
,"[0.64, 0.4]",None,,,,,,,,,0.0,33.0,33.0,33.0,425.2961228000058,,,,,,,,,,,,,,,,,,,,,,,,,,,,,,,,,,,,,,,,,,,,,,,,,,,,,,,,,,,,,,,,425.2804560000077,425.2961228000058,425.2961228000058,425.7793352000008,425.79596750001656,428.2793937000097,428.2795919000055,None,1.0,,,,,,nback29,1.0,2023-12-15_09h57.44.101,untitled,2023.2.3,60.05555138504795,2023-12-15 10h51.13.575999 -0500,
,"[-0.3, 0]",None,,,,,,,,,0.0,34.0,34.0,34.0,428.2961525999999,,,,,,,,,,,,,,,,,,,,,,,,,,,,,,,,,,,,,,,,,,,,,,,,,,,,,,,,,,,,,,,,428.2803578000167,428.2961525999999,428.2961525999999,428.7792655999947,428.79606250001234,431.2792937000049,431.279462800012,None,1.0,,,,,,nback29,1.0,2023-12-15_09h57.44.101,untitled,2023.2.3,60.05555138504795,2023-12-15 10h51.13.575999 -0500,
,"[0.3, 0]",None,,,,,,,,,0.0,35.0,35.0,35.0,431.295864899992,,,,,,,,,,,,,,,,,,,,,,,,,,,,,,,,,,,,,,,,,,,,,,,,,,,,,,,,,,,,,,,,431.280078300013,431.295864899992,431.295864899992,431.7792951000156,431.79580660001375,434.2791492000106,434.27934999999707,None,1.0,,,,,,nback29,1.0,2023-12-15_09h57.44.101,untitled,2023.2.3,60.05555138504795,2023-12-15 10h51.13.575999 -0500,
,"[-0.3, 0]",space,,,,,,,,,0.0,36.0,36.0,36.0,434.2958173000079,,,,,,,,,,,,,,,,,,,,,,,,,,,,,,,,,,,,,,,,,,,,,,,,,,,,,,,,,,,,,,,,434.28012050001416,434.2958173000079,434.2958173000079,434.7791452000092,434.7960170000151,437.27910859999247,437.2792762000172,space,1.0,0.333764400013024,None,,,,nback29,1.0,2023-12-15_09h57.44.101,untitled,2023.2.3,60.05555138504795,2023-12-15 10h51.13.575999 -0500,
,"[0, -0.2]",None,,,,,,,,,0.0,37.0,37.0,37.0,437.29586320000817,,,,,,,,,,,,,,,,,,,,,,,,,,,,,,,,,,,,,,,,,,,,,,,,,,,,,,,,,,,,,,,,437.2800548000087,437.29586320000817,437.29586320000817,437.77924790000543,437.79592559998855,440.2789742999885,440.2791214000026,None,1.0,,,,,,nback29,1.0,2023-12-15_09h57.44.101,untitled,2023.2.3,60.05555138504795,2023-12-15 10h51.13.575999 -0500,
,"[0.3, 0]",None,,,,,,,,,0.0,38.0,38.0,38.0,440.2957816999988,,,,,,,,,,,,,,,,,,,,,,,,,,,,,,,,,,,,,,,,,,,,,,,,,,,,,,,,,,,,,,,,440.279657600011,440.2957816999988,440.2957816999988,440.7790917000093,440.7957943000074,443.2791733999911,443.2793784000096,None,1.0,,,,,,nback29,1.0,2023-12-15_09h57.44.101,untitled,2023.2.3,60.05555138504795,2023-12-15 10h51.13.575999 -0500,
,"[0.2, 0.1]",None,,,,,,,,,0.0,39.0,39.0,39.0,443.29585880000377,,,,,,,,,,,,,,,,,,,,,,,,,,,,,,,,,,,,,,,,,,,,,,,,,,,,,,,,,,,,,,,,443.2801934000163,443.29585880000377,443.29585880000377,443.778833599994,443.79577299999073,446.2788535,446.2790381000086,None,1.0,,,,,,nback29,1.0,2023-12-15_09h57.44.101,untitled,2023.2.3,60.05555138504795,2023-12-15 10h51.13.575999 -0500,
,,,,,,,,,,,,,,,,,,,,,,,,,,,,,,,,,,,,,,,,,,,,,,,,,,,,,,,,,,,,,,,,,,,,,,,,,,,,,,,,,,,,,,,,,,446.27957559999777,446.2955929000164,449.2791462999885,,,,,,,,
