square,location,corrAns,trials_0.thisRepN,trials_0.thisTrialN,trials_0.thisN,trials_0.thisIndex,trials_1.thisRepN,trials_1.thisTrialN,trials_1.thisN,trials_1.thisIndex,trials_2.thisRepN,trials_2.thisTrialN,trials_2.thisN,trials_2.thisIndex,thisRow.t,notes,Instructions.started,instructions.started,key_resp.started,inst_sq11.started,Instructions.stopped,key_resp.keys,key_resp.rt,key_resp.duration,All.started,sq_1.started,sq_2.started,sq_3.started,sq_4.started,sq_5.started,sq_6.started,sq_7.started,sq_8.started,sq_9.started,sq_10.started,sq_11.started,sq_12.started,All.stopped,Fixation.started,fixation_3.started,fixation_3.stopped,Fixation.stopped,N_back_0_Trial.started,target_square_0.started,response_0.started,fixation_0.started,target_square_0.stopped,fixation_0.stopped,response_0.stopped,N_back_0_Trial.stopped,response_0.keys,response_0.corr,response_0.rt,response_0.duration,Instructions_1.started,instructions_1.started,key_resp_1.started,Instructions_1.stopped,key_resp_1.keys,key_resp_1.rt,key_resp_1.duration,N_back_1_Trial.started,target_square_1.started,response_1.started,target_square_1.stopped,fixation_1.started,fixation_1.stopped,response_1.stopped,N_back_1_Trial.stopped,response_1.keys,response_1.corr,response_1.rt,response_1.duration,Instructions_2.started,instructions_2.started,key_resp_2.started,Instructions_2.stopped,key_resp_2.keys,key_resp_2.rt,key_resp_2.duration,N_back_2_trials.started,target_square_2.started,response_2.started,fixation_2.started,target_square_2.stopped,fixation_2.stopped,response_2.stopped,N_back_2_trials.stopped,response_2.keys,response_2.corr,response_2.rt,response_2.duration,End.started,thank_you.started,thank_you.stopped,End.stopped,participant,session,date,expName,psychopyVersion,frameRate,expStart,
,,,,,,,,,,,,,,,,,0.0012567999947350472,0.0037828999920748174,0.0037828999920748174,0.0037828999920748174,19.43780909999623,space,19.424208800017368,None,,,,,,,,,,,,,,,,,,,,,,,,,,,,,,,,,,,,,,,,,,,,,,,,,,,,,,,,,,,,,,,,,,,,,,,,,nback27,001,2023-12-14_16h05.24.918,untitled,2023.2.3,59.96084556985725,2023-12-14 16h49.04.632400 -0500,
6,"[-0.3, 0]",None,0,0,0,0,,,,,,,,,21.453849300014554,,,,,,,,,,19.43783490001806,19.453190700005507,19.453190700005507,19.453190700005507,19.453190700005507,19.453190700005507,19.453190700005507,19.453190700005507,19.453190700005507,19.453190700005507,19.453190700005507,19.453190700005507,19.453190700005507,20.437037299998337,20.437052599998424,20.453358900005696,21.453849300014554,21.437677600013558,21.451937300007557,21.453849300014554,21.453849300014554,21.936756300012348,21.953272600017954,24.43666989999474,24.45311380000203,24.43744740000693,None,1,,,,,,,,,,,,,,,,,,,,,,,,,,,,,,,,,,,,,,,,,,,,,nback27,001,2023-12-14_16h05.24.918,untitled,2023.2.3,59.96084556985725,2023-12-14 16h49.04.632400 -0500,
10,"[0, -0.2]",None,0,1,1,1,,,,,,,,,24.45311380000203,,,,,,,,,,,,,,,,,,,,,,,,,,,,24.438297399989096,24.45311380000203,24.45311380000203,24.936660500010476,24.953289099998074,27.43663949999609,27.45311010000296,27.43754350001109,None,1,,,,,,,,,,,,,,,,,,,,,,,,,,,,,,,,,,,,,,,,,,,,,nback27,001,2023-12-14_16h05.24.918,untitled,2023.2.3,59.96084556985725,2023-12-14 16h49.04.632400 -0500,
11,"[-0.64, -0.4]",space,0,2,2,2,,,,,,,,,27.45311010000296,,,,,,,,,,,,,,,,,,,,,,,,,,,,27.43955619999906,27.45311010000296,27.45311010000296,27.936453100002836,27.953129000001354,30.436462700017728,30.453109800000675,30.437223999993876,space,1,0.36509120001574047,None,,,,,,,,,,,,,,,,,,,,,,,,,,,,,,,,,,,,,,,,,,,nback27,001,2023-12-14_16h05.24.918,untitled,2023.2.3,59.96084556985725,2023-12-14 16h49.04.632400 -0500,
12,"[0.64, -0.4]",None,0,3,3,3,,,,,,,,,30.453109800000675,,,,,,,,,,,,,,,,,,,,,,,,,,,,30.438257900008466,30.453109800000675,30.453109800000675,30.936724900006084,30.953137900010915,33.43650070001604,33.453040899999905,33.43719440000132,None,1,,,,,,,,,,,,,,,,,,,,,,,,,,,,,,,,,,,,,,,,,,,,,nback27,001,2023-12-14_16h05.24.918,untitled,2023.2.3,59.96084556985725,2023-12-14 16h49.04.632400 -0500,
1,"[-0.64, 0.4]",None,0,4,4,4,,,,,,,,,33.453040899999905,,,,,,,,,,,,,,,,,,,,,,,,,,,,33.43784480000613,33.453040899999905,33.453040899999905,33.936433700000634,33.95316800000728,36.436511500010965,36.45307859999593,36.43747040000744,None,1,,,,,,,,,,,,,,,,,,,,,,,,,,,,,,,,,,,,,,,,,,,,,nback27,001,2023-12-14_16h05.24.918,untitled,2023.2.3,59.96084556985725,2023-12-14 16h49.04.632400 -0500,
1,"[-0.64, 0.4]",None,0,5,5,5,,,,,,,,,36.45307859999593,,,,,,,,,,,,,,,,,,,,,,,,,,,,36.43830030001118,36.45307859999593,36.45307859999593,36.936399600002915,36.95293769999989,39.436341900000116,39.45313330000499,39.437361099990085,None,1,,,,,,,,,,,,,,,,,,,,,,,,,,,,,,,,,,,,,,,,,,,,,nback27,001,2023-12-14_16h05.24.918,untitled,2023.2.3,59.96084556985725,2023-12-14 16h49.04.632400 -0500,
4,"[-0.2, 0.1]",None,0,6,6,6,,,,,,,,,39.45313330000499,,,,,,,,,,,,,,,,,,,,,,,,,,,,39.43813009999576,39.45313330000499,39.45313330000499,39.93637690000469,39.953104699990945,42.43632229999639,42.452970300015295,42.43713810000918,None,1,,,,,,,,,,,,,,,,,,,,,,,,,,,,,,,,,,,,,,,,,,,,,nback27,001,2023-12-14_16h05.24.918,untitled,2023.2.3,59.96084556985725,2023-12-14 16h49.04.632400 -0500,
5,"[0.2, 0.1]",None,0,7,7,7,,,,,,,,,42.452970300015295,,,,,,,,,,,,,,,,,,,,,,,,,,,,42.437888799991924,42.452970300015295,42.452970300015295,42.93633799999952,42.95313330000499,45.436196599999676,45.45283009999548,45.436880699999165,None,1,,,,,,,,,,,,,,,,,,,,,,,,,,,,,,,,,,,,,,,,,,,,,nback27,001,2023-12-14_16h05.24.918,untitled,2023.2.3,59.96084556985725,2023-12-14 16h49.04.632400 -0500,
11,"[-0.64, -0.4]",space,0,8,8,8,,,,,,,,,45.45283009999548,,,,,,,,,,,,,,,,,,,,,,,,,,,,45.43751920000068,45.45283009999548,45.45283009999548,45.9362281000067,45.95306030000211,48.43620719999308,48.452974999992875,48.43714920000639,space,1,0.39192460000049323,None,,,,,,,,,,,,,,,,,,,,,,,,,,,,,,,,,,,,,,,,,,,nback27,001,2023-12-14_16h05.24.918,untitled,2023.2.3,59.96084556985725,2023-12-14 16h49.04.632400 -0500,
9,"[0.2, -0.1]",None,0,9,9,9,,,,,,,,,48.452974999992875,,,,,,,,,,,,,,,,,,,,,,,,,,,,48.43811750001623,48.452974999992875,48.452974999992875,48.93620070000179,48.952766600006726,51.43614169998909,51.45278240001062,51.437028999993345,None,1,,,,,,,,,,,,,,,,,,,,,,,,,,,,,,,,,,,,,,,,,,,,,nback27,001,2023-12-14_16h05.24.918,untitled,2023.2.3,59.96084556985725,2023-12-14 16h49.04.632400 -0500,
8,"[-0.2, -0.1]",None,0,10,10,10,,,,,,,,,51.45278240001062,,,,,,,,,,,,,,,,,,,,,,,,,,,,51.43782680001459,51.45278240001062,51.45278240001062,51.936342600005446,51.95288040000014,54.43623260001186,54.452852599992184,54.43732810000074,None,1,,,,,,,,,,,,,,,,,,,,,,,,,,,,,,,,,,,,,,,,,,,,,nback27,001,2023-12-14_16h05.24.918,untitled,2023.2.3,59.96084556985725,2023-12-14 16h49.04.632400 -0500,
9,"[0.2, -0.1]",None,0,11,11,11,,,,,,,,,54.452852599992184,,,,,,,,,,,,,,,,,,,,,,,,,,,,54.43814700000803,54.452852599992184,54.452852599992184,54.93612679999205,54.952965200005565,57.43593120001606,57.452630100015085,57.4366576000175,None,1,,,,,,,,,,,,,,,,,,,,,,,,,,,,,,,,,,,,,,,,,,,,,nback27,001,2023-12-14_16h05.24.918,untitled,2023.2.3,59.96084556985725,2023-12-14 16h49.04.632400 -0500,
6,"[-0.3, 0]",None,0,12,12,12,,,,,,,,,57.452630100015085,,,,,,,,,,,,,,,,,,,,,,,,,,,,57.43737309999415,57.452630100015085,57.452630100015085,57.95270240001264,57.95270240001264,60.45268479999504,60.45268479999504,60.43677520001074,None,1,,,,,,,,,,,,,,,,,,,,,,,,,,,,,,,,,,,,,,,,,,,,,nback27,001,2023-12-14_16h05.24.918,untitled,2023.2.3,59.96084556985725,2023-12-14 16h49.04.632400 -0500,
9,"[0.2, -0.1]",None,0,13,13,13,,,,,,,,,60.45268479999504,,,,,,,,,,,,,,,,,,,,,,,,,,,,60.43742609999026,60.45268479999504,60.45268479999504,60.935990400001174,60.95272400000249,63.43601599999238,63.45266340000671,63.43691210000543,None,1,,,,,,,,,,,,,,,,,,,,,,,,,,,,,,,,,,,,,,,,,,,,,nback27,001,2023-12-14_16h05.24.918,untitled,2023.2.3,59.96084556985725,2023-12-14 16h49.04.632400 -0500,
7,"[0.3, 0]",None,0,14,14,14,,,,,,,,,63.45266340000671,,,,,,,,,,,,,,,,,,,,,,,,,,,,63.43768289999571,63.45266340000671,63.45266340000671,63.95242350001354,63.95242350001354,66.45248120001634,66.45248120001634,66.43654580001021,None,1,,,,,,,,,,,,,,,,,,,,,,,,,,,,,,,,,,,,,,,,,,,,,nback27,001,2023-12-14_16h05.24.918,untitled,2023.2.3,59.96084556985725,2023-12-14 16h49.04.632400 -0500,
2,"[0.64, 0.4]",None,0,15,15,15,,,,,,,,,66.45248120001634,,,,,,,,,,,,,,,,,,,,,,,,,,,,66.43719359999523,66.45248120001634,66.45248120001634,66.95255240000552,66.95255240000552,69.45235820001108,69.45235820001108,69.43653700000141,None,1,,,,,,,,,,,,,,,,,,,,,,,,,,,,,,,,,,,,,,,,,,,,,nback27,001,2023-12-14_16h05.24.918,untitled,2023.2.3,59.96084556985725,2023-12-14 16h49.04.632400 -0500,
2,"[0.64, 0.4]",None,0,16,16,16,,,,,,,,,69.45235820001108,,,,,,,,,,,,,,,,,,,,,,,,,,,,69.43715240000165,69.45235820001108,69.45235820001108,69.95240169999306,69.95240169999306,72.45254810000188,72.45254810000188,72.43657320001512,None,1,,,,,,,,,,,,,,,,,,,,,,,,,,,,,,,,,,,,,,,,,,,,,nback27,001,2023-12-14_16h05.24.918,untitled,2023.2.3,59.96084556985725,2023-12-14 16h49.04.632400 -0500,
11,"[-0.64, -0.4]",space,0,17,17,17,,,,,,,,,72.45254810000188,,,,,,,,,,,,,,,,,,,,,,,,,,,,72.43730540000251,72.45254810000188,72.45254810000188,72.95236830000067,72.95236830000067,75.45247630000813,75.45247630000813,75.43652399998973,space,1,0.3640088999818545,None,,,,,,,,,,,,,,,,,,,,,,,,,,,,,,,,,,,,,,,,,,,nback27,001,2023-12-14_16h05.24.918,untitled,2023.2.3,59.96084556985725,2023-12-14 16h49.04.632400 -0500,
11,"[-0.64, -0.4]",space,0,18,18,18,,,,,,,,,75.45247630000813,,,,,,,,,,,,,,,,,,,,,,,,,,,,75.43745359999593,75.45247630000813,75.45247630000813,75.95234370001708,75.95234370001708,78.4523703000159,78.4523703000159,78.43647839999176,space,1,0.4061222999880556,None,,,,,,,,,,,,,,,,,,,,,,,,,,,,,,,,,,,,,,,,,,,nback27,001,2023-12-14_16h05.24.918,untitled,2023.2.3,59.96084556985725,2023-12-14 16h49.04.632400 -0500,
7,"[0.3, 0]",None,0,19,19,19,,,,,,,,,78.4523703000159,,,,,,,,,,,,,,,,,,,,,,,,,,,,78.4372493000119,78.4523703000159,78.4523703000159,78.95238729999983,78.95238729999983,81.45235800000955,81.45235800000955,81.43653370000538,None,1,,,,,,,,,,,,,,,,,,,,,,,,,,,,,,,,,,,,,,,,,,,,,nback27,001,2023-12-14_16h05.24.918,untitled,2023.2.3,59.96084556985725,2023-12-14 16h49.04.632400 -0500,
3,"[0, 0.2]",None,0,20,20,20,,,,,,,,,81.45235800000955,,,,,,,,,,,,,,,,,,,,,,,,,,,,81.43723830001545,81.45235800000955,81.45235800000955,81.95236049999949,81.95236049999949,84.45227310000337,84.45227310000337,84.43636130000232,None,1,,,,,,,,,,,,,,,,,,,,,,,,,,,,,,,,,,,,,,,,,,,,,nback27,001,2023-12-14_16h05.24.918,untitled,2023.2.3,59.96084556985725,2023-12-14 16h49.04.632400 -0500,
10,"[0, -0.2]",None,0,21,21,21,,,,,,,,,84.45227310000337,,,,,,,,,,,,,,,,,,,,,,,,,,,,84.43693039999926,84.45227310000337,84.45227310000337,84.95244910000474,84.95244910000474,87.45210339999176,87.45210339999176,87.43632420001086,None,1,,,,,,,,,,,,,,,,,,,,,,,,,,,,,,,,,,,,,,,,,,,,,nback27,001,2023-12-14_16h05.24.918,untitled,2023.2.3,59.96084556985725,2023-12-14 16h49.04.632400 -0500,
1,"[-0.64, 0.4]",None,0,22,22,22,,,,,,,,,87.45210339999176,,,,,,,,,,,,,,,,,,,,,,,,,,,,87.43700050000916,87.45210339999176,87.45210339999176,87.95223719999194,87.95223719999194,90.45199339999817,90.45199339999817,90.43605230000685,None,1,,,,,,,,,,,,,,,,,,,,,,,,,,,,,,,,,,,,,,,,,,,,,nback27,001,2023-12-14_16h05.24.918,untitled,2023.2.3,59.96084556985725,2023-12-14 16h49.04.632400 -0500,
2,"[0.64, 0.4]",None,0,23,23,23,,,,,,,,,90.45199339999817,,,,,,,,,,,,,,,,,,,,,,,,,,,,90.43671380000887,90.45199339999817,90.45199339999817,90.95203489999403,90.95203489999403,93.45210439999937,93.45210439999937,93.43628379999427,None,1,,,,,,,,,,,,,,,,,,,,,,,,,,,,,,,,,,,,,,,,,,,,,nback27,001,2023-12-14_16h05.24.918,untitled,2023.2.3,59.96084556985725,2023-12-14 16h49.04.632400 -0500,
6,"[-0.3, 0]",None,0,24,24,24,,,,,,,,,93.45210439999937,,,,,,,,,,,,,,,,,,,,,,,,,,,,93.43696399999317,93.45210439999937,93.45210439999937,93.95209080001223,93.95209080001223,96.4519469999941,96.4519469999941,96.43622140001389,None,1,,,,,,,,,,,,,,,,,,,,,,,,,,,,,,,,,,,,,,,,,,,,,nback27,001,2023-12-14_16h05.24.918,untitled,2023.2.3,59.96084556985725,2023-12-14 16h49.04.632400 -0500,
3,"[0, 0.2]",None,0,25,25,25,,,,,,,,,96.4519469999941,,,,,,,,,,,,,,,,,,,,,,,,,,,,96.43688310001744,96.4519469999941,96.4519469999941,96.951999300014,96.951999300014,99.45210270001553,99.45210270001553,99.43651920001139,None,1,,,,,,,,,,,,,,,,,,,,,,,,,,,,,,,,,,,,,,,,,,,,,nback27,001,2023-12-14_16h05.24.918,untitled,2023.2.3,59.96084556985725,2023-12-14 16h49.04.632400 -0500,
11,"[-0.64, -0.4]",space,0,26,26,26,,,,,,,,,99.45210270001553,,,,,,,,,,,,,,,,,,,,,,,,,,,,99.4373414000147,99.45210270001553,99.45210270001553,99.95203210000182,99.95203210000182,102.45205170000554,102.45205170000554,102.43601780000608,space,1,0.3790090999973472,None,,,,,,,,,,,,,,,,,,,,,,,,,,,,,,,,,,,,,,,,,,,nback27,001,2023-12-14_16h05.24.918,untitled,2023.2.3,59.96084556985725,2023-12-14 16h49.04.632400 -0500,
1,"[-0.64, 0.4]",None,0,27,27,27,,,,,,,,,102.45205170000554,,,,,,,,,,,,,,,,,,,,,,,,,,,,102.43676859998959,102.45205170000554,102.45205170000554,102.95189309999114,102.95189309999114,105.45190780001576,105.45190780001576,105.43622090001008,None,1,,,,,,,,,,,,,,,,,,,,,,,,,,,,,,,,,,,,,,,,,,,,,nback27,001,2023-12-14_16h05.24.918,untitled,2023.2.3,59.96084556985725,2023-12-14 16h49.04.632400 -0500,
3,"[0, 0.2]",None,0,28,28,28,,,,,,,,,105.45190780001576,,,,,,,,,,,,,,,,,,,,,,,,,,,,105.4369546000089,105.45190780001576,105.45190780001576,105.95184009999502,105.95184009999502,108.45196169998962,108.45196169998962,108.43612009999924,None,1,,,,,,,,,,,,,,,,,,,,,,,,,,,,,,,,,,,,,,,,,,,,,nback27,001,2023-12-14_16h05.24.918,untitled,2023.2.3,59.96084556985725,2023-12-14 16h49.04.632400 -0500,
9,"[0.2, -0.1]",None,0,29,29,29,,,,,,,,,108.45196169998962,,,,,,,,,,,,,,,,,,,,,,,,,,,,108.4367903000093,108.45196169998962,108.45196169998962,108.95189980001305,108.95189980001305,111.45184670001618,111.45184670001618,111.43588170001749,None,1,,,,,,,,,,,,,,,,,,,,,,,,,,,,,,,,,,,,,,,,,,,,,nback27,001,2023-12-14_16h05.24.918,untitled,2023.2.3,59.96084556985725,2023-12-14 16h49.04.632400 -0500,
8,"[-0.2, -0.1]",None,0,30,30,30,,,,,,,,,111.45184670001618,,,,,,,,,,,,,,,,,,,,,,,,,,,,111.43647059999057,111.45184670001618,111.45184670001618,111.95191309999791,111.95191309999791,114.45187630000873,114.45187630000873,114.43591050000396,None,1,,,,,,,,,,,,,,,,,,,,,,,,,,,,,,,,,,,,,,,,,,,,,nback27,001,2023-12-14_16h05.24.918,untitled,2023.2.3,59.96084556985725,2023-12-14 16h49.04.632400 -0500,
12,"[0.64, -0.4]",None,0,31,31,31,,,,,,,,,114.45187630000873,,,,,,,,,,,,,,,,,,,,,,,,,,,,114.43653559999075,114.45187630000873,114.45187630000873,114.95175900001777,114.95175900001777,117.45175979999476,117.45175979999476,117.43586040000082,None,1,,,,,,,,,,,,,,,,,,,,,,,,,,,,,,,,,,,,,,,,,,,,,nback27,001,2023-12-14_16h05.24.918,untitled,2023.2.3,59.96084556985725,2023-12-14 16h49.04.632400 -0500,
9,"[0.2, -0.1]",None,0,32,32,32,,,,,,,,,117.45175979999476,,,,,,,,,,,,,,,,,,,,,,,,,,,,117.4365567000059,117.45175979999476,117.45175979999476,117.95182600000408,117.95182600000408,120.45162649999838,120.45162649999838,120.43581460000132,None,1,,,,,,,,,,,,,,,,,,,,,,,,,,,,,,,,,,,,,,,,,,,,,nback27,001,2023-12-14_16h05.24.918,untitled,2023.2.3,59.96084556985725,2023-12-14 16h49.04.632400 -0500,
11,"[-0.64, -0.4]",space,0,33,33,33,,,,,,,,,120.45162649999838,,,,,,,,,,,,,,,,,,,,,,,,,,,,120.43645110001671,120.45162649999838,120.45162649999838,120.95170040000812,120.95170040000812,123.45155470000464,123.45155470000464,123.4354389999935,space,1,0.3138500000059139,None,,,,,,,,,,,,,,,,,,,,,,,,,,,,,,,,,,,,,,,,,,,nback27,001,2023-12-14_16h05.24.918,untitled,2023.2.3,59.96084556985725,2023-12-14 16h49.04.632400 -0500,
7,"[0.3, 0]",None,0,34,34,34,,,,,,,,,123.45155470000464,,,,,,,,,,,,,,,,,,,,,,,,,,,,123.43591560001369,123.45155470000464,123.45155470000464,123.95163540000794,123.95163540000794,126.4514310999948,126.4514310999948,126.43554470001254,None,1,,,,,,,,,,,,,,,,,,,,,,,,,,,,,,,,,,,,,,,,,,,,,nback27,001,2023-12-14_16h05.24.918,untitled,2023.2.3,59.96084556985725,2023-12-14 16h49.04.632400 -0500,
11,"[-0.64, -0.4]",space,0,35,35,35,,,,,,,,,126.4514310999948,,,,,,,,,,,,,,,,,,,,,,,,,,,,126.43611189999501,126.4514310999948,126.4514310999948,126.95160880000913,126.95160880000913,129.45153320001555,129.45153320001555,129.43573759999708,space,1,0.4353633999999147,None,,,,,,,,,,,,,,,,,,,,,,,,,,,,,,,,,,,,,,,,,,,nback27,001,2023-12-14_16h05.24.918,untitled,2023.2.3,59.96084556985725,2023-12-14 16h49.04.632400 -0500,
4,"[-0.2, 0.1]",None,0,36,36,36,,,,,,,,,129.45153320001555,,,,,,,,,,,,,,,,,,,,,,,,,,,,129.43655919999583,129.45153320001555,129.45153320001555,129.95142160000978,129.95142160000978,132.45132980000926,132.45132980000926,132.43522179999854,None,1,,,,,,,,,,,,,,,,,,,,,,,,,,,,,,,,,,,,,,,,,,,,,nback27,001,2023-12-14_16h05.24.918,untitled,2023.2.3,59.96084556985725,2023-12-14 16h49.04.632400 -0500,
5,"[0.2, 0.1]",None,0,37,37,37,,,,,,,,,132.45132980000926,,,,,,,,,,,,,,,,,,,,,,,,,,,,132.4355867000122,132.45132980000926,132.45132980000926,132.95124470000155,132.95124470000155,135.45136219999404,135.45136219999404,135.4354255000071,None,1,,,,,,,,,,,,,,,,,,,,,,,,,,,,,,,,,,,,,,,,,,,,,nback27,001,2023-12-14_16h05.24.918,untitled,2023.2.3,59.96084556985725,2023-12-14 16h49.04.632400 -0500,
6,"[-0.3, 0]",None,0,38,38,38,,,,,,,,,135.45136219999404,,,,,,,,,,,,,,,,,,,,,,,,,,,,135.43605489999754,135.45136219999404,135.45136219999404,135.95144710000022,135.95144710000022,138.45138640000368,138.45138640000368,138.43584670001292,None,1,,,,,,,,,,,,,,,,,,,,,,,,,,,,,,,,,,,,,,,,,,,,,nback27,001,2023-12-14_16h05.24.918,untitled,2023.2.3,59.96084556985725,2023-12-14 16h49.04.632400 -0500,
11,"[-0.64, -0.4]",space,0,39,39,39,,,,,,,,,138.45138640000368,,,,,,,,,,,,,,,,,,,,,,,,,,,,138.4366474999988,138.45138640000368,138.45138640000368,138.95133889999124,138.95133889999124,141.45131350000156,141.45131350000156,141.43569939999725,space,1,0.3687481000088155,None,,,,,,,,,,,,,,,,,,,,,,,,,,,,,,,,,,,,,,,,,,,nback27,001,2023-12-14_16h05.24.918,untitled,2023.2.3,59.96084556985725,2023-12-14 16h49.04.632400 -0500,
,,,,,,,,,,,,,,,,,,,,,,,,,,,,,,,,,,,,,,,,,,,,,,,,,,,,,,,141.43636120000156,141.45131350000156,141.45131350000156,157.86925479999627,space,16.40452519999235,None,,,,,,,,,,,,,,,,,,,,,,,,,,,,,,,,,,,,nback27,001,2023-12-14_16h05.24.918,untitled,2023.2.3,59.96084556985725,2023-12-14 16h49.04.632400 -0500,
10,"[0, -0.2]",None,,,,,0,0,0,0,,,,,158.8842377999972,,,,,,,,,,,,,,,,,,,,,,,,157.86929190001683,157.88437020001584,158.8842377999972,158.86875429999782,,,,,,,,,,,,,,,,,,,,158.8790369000053,158.8842377999972,158.8842377999972,159.38445340000908,159.38445340000908,161.8842272000038,161.8842272000038,161.86858480001683,None,1,,,,,,,,,,,,,,,,,,,,,,,,,,nback27,001,2023-12-14_16h05.24.918,untitled,2023.2.3,59.96084556985725,2023-12-14 16h49.04.632400 -0500,
5,"[0.2, 0.1]",None,,,,,0,1,1,1,,,,,161.8842272000038,,,,,,,,,,,,,,,,,,,,,,,,,,,,,,,,,,,,,,,,,,,,,,,161.8696285999904,161.8842272000038,161.8842272000038,162.38452260001213,162.38452260001213,164.88434940000298,164.88434940000298,164.86833890000707,None,1,,,,,,,,,,,,,,,,,,,,,,,,,,nback27,001,2023-12-14_16h05.24.918,untitled,2023.2.3,59.96084556985725,2023-12-14 16h49.04.632400 -0500,
6,"[-0.3, 0]",None,,,,,0,2,2,2,,,,,164.88434940000298,,,,,,,,,,,,,,,,,,,,,,,,,,,,,,,,,,,,,,,,,,,,,,,164.86903000000166,164.88434940000298,164.88434940000298,165.38442089999444,165.38442089999444,167.8841641000181,167.8841641000181,167.8685233000142,None,1,,,,,,,,,,,,,,,,,,,,,,,,,,nback27,001,2023-12-14_16h05.24.918,untitled,2023.2.3,59.96084556985725,2023-12-14 16h49.04.632400 -0500,
6,"[-0.3, 0]",space,,,,,0,3,3,3,,,,,167.8841641000181,,,,,,,,,,,,,,,,,,,,,,,,,,,,,,,,,,,,,,,,,,,,,,,167.8691577000136,167.8841641000181,167.8841641000181,168.384326600004,168.384326600004,170.8842844000028,170.8842844000028,170.8684012000158,space,1,0.3704493999830447,None,,,,,,,,,,,,,,,,,,,,,,,,nback27,001,2023-12-14_16h05.24.918,untitled,2023.2.3,59.96084556985725,2023-12-14 16h49.04.632400 -0500,
12,"[0.64, -0.4]",None,,,,,0,4,4,4,,,,,170.8842844000028,,,,,,,,,,,,,,,,,,,,,,,,,,,,,,,,,,,,,,,,,,,,,,,170.86956170000485,170.8842844000028,170.8842844000028,171.38422949999222,171.38422949999222,173.88405039999634,173.88405039999634,173.86812960001407,None,1,,,,,,,,,,,,,,,,,,,,,,,,,,nback27,001,2023-12-14_16h05.24.918,untitled,2023.2.3,59.96084556985725,2023-12-14 16h49.04.632400 -0500,
10,"[0, -0.2]",None,,,,,0,5,5,5,,,,,173.88405039999634,,,,,,,,,,,,,,,,,,,,,,,,,,,,,,,,,,,,,,,,,,,,,,,173.86873429999105,173.88405039999634,173.88405039999634,174.38422710000305,174.38422710000305,176.88414129999,176.88414129999,176.86814629999571,None,1,,,,,,,,,,,,,,,,,,,,,,,,,,nback27,001,2023-12-14_16h05.24.918,untitled,2023.2.3,59.96084556985725,2023-12-14 16h49.04.632400 -0500,
2,"[0.64, 0.4]",None,,,,,0,6,6,6,,,,,176.88414129999,,,,,,,,,,,,,,,,,,,,,,,,,,,,,,,,,,,,,,,,,,,,,,,176.86880200001178,176.88414129999,176.88414129999,177.38404060000903,177.38404060000903,179.88410530000692,179.88410530000692,179.86818140000105,None,1,,,,,,,,,,,,,,,,,,,,,,,,,,nback27,001,2023-12-14_16h05.24.918,untitled,2023.2.3,59.96084556985725,2023-12-14 16h49.04.632400 -0500,
9,"[0.2, -0.1]",None,,,,,0,7,7,7,,,,,179.88410530000692,,,,,,,,,,,,,,,,,,,,,,,,,,,,,,,,,,,,,,,,,,,,,,,179.86886099999538,179.88410530000692,179.88410530000692,180.38406740000937,180.38406740000937,182.8838650000107,182.8838650000107,182.86818560000393,None,1,,,,,,,,,,,,,,,,,,,,,,,,,,nback27,001,2023-12-14_16h05.24.918,untitled,2023.2.3,59.96084556985725,2023-12-14 16h49.04.632400 -0500,
9,"[0.2, -0.1]",space,,,,,0,8,8,8,,,,,182.8838650000107,,,,,,,,,,,,,,,,,,,,,,,,,,,,,,,,,,,,,,,,,,,,,,,182.86893980001332,182.8838650000107,182.8838650000107,183.38387360001798,183.38387360001798,185.88401290000184,185.88401290000184,185.86819149999064,space,1,0.34601790001033805,None,,,,,,,,,,,,,,,,,,,,,,,,nback27,001,2023-12-14_16h05.24.918,untitled,2023.2.3,59.96084556985725,2023-12-14 16h49.04.632400 -0500,
6,"[-0.3, 0]",None,,,,,0,9,9,9,,,,,185.88401290000184,,,,,,,,,,,,,,,,,,,,,,,,,,,,,,,,,,,,,,,,,,,,,,,185.86920980000286,185.88401290000184,185.88401290000184,186.38376739999512,186.38376739999512,188.88391510001384,188.88391510001384,188.86803790001431,None,1,,,,,,,,,,,,,,,,,,,,,,,,,,nback27,001,2023-12-14_16h05.24.918,untitled,2023.2.3,59.96084556985725,2023-12-14 16h49.04.632400 -0500,
11,"[-0.64, -0.4]",None,,,,,0,10,10,10,,,,,188.88391510001384,,,,,,,,,,,,,,,,,,,,,,,,,,,,,,,,,,,,,,,,,,,,,,,188.86873350001406,188.88391510001384,188.88391510001384,189.38379710001755,189.38379710001755,191.88364049998927,191.88364049998927,191.8675685999915,None,1,,,,,,,,,,,,,,,,,,,,,,,,,,nback27,001,2023-12-14_16h05.24.918,untitled,2023.2.3,59.96084556985725,2023-12-14 16h49.04.632400 -0500,
11,"[-0.64, -0.4]",space,,,,,0,11,11,11,,,,,191.88364049998927,,,,,,,,,,,,,,,,,,,,,,,,,,,,,,,,,,,,,,,,,,,,,,,191.86810490000062,191.88364049998927,191.88364049998927,192.38382760001696,192.38382760001696,194.8837204000156,194.8837204000156,194.8677394000115,space,1,0.5483610999945085,None,,,,,,,,,,,,,,,,,,,,,,,,nback27,001,2023-12-14_16h05.24.918,untitled,2023.2.3,59.96084556985725,2023-12-14 16h49.04.632400 -0500,
4,"[-0.2, 0.1]",None,,,,,0,12,12,12,,,,,194.8837204000156,,,,,,,,,,,,,,,,,,,,,,,,,,,,,,,,,,,,,,,,,,,,,,,194.86840649999795,194.8837204000156,194.8837204000156,195.38382320001256,195.38382320001256,197.88350090000313,197.88350090000313,197.86774929999956,None,1,,,,,,,,,,,,,,,,,,,,,,,,,,nback27,001,2023-12-14_16h05.24.918,untitled,2023.2.3,59.96084556985725,2023-12-14 16h49.04.632400 -0500,
3,"[0, 0.2]",None,,,,,0,13,13,13,,,,,197.88350090000313,,,,,,,,,,,,,,,,,,,,,,,,,,,,,,,,,,,,,,,,,,,,,,,197.8684091999894,197.88350090000313,197.88350090000313,198.38375370000722,198.38375370000722,200.88362599999527,200.88362599999527,200.86786420000135,None,1,,,,,,,,,,,,,,,,,,,,,,,,,,nback27,001,2023-12-14_16h05.24.918,untitled,2023.2.3,59.96084556985725,2023-12-14 16h49.04.632400 -0500,
3,"[0, 0.2]",space,,,,,0,14,14,14,,,,,200.88362599999527,,,,,,,,,,,,,,,,,,,,,,,,,,,,,,,,,,,,,,,,,,,,,,,200.8686291000049,200.88362599999527,200.88362599999527,201.38367420001305,201.38367420001305,203.8835633000126,203.8835633000126,203.86765600001672,space,1,0.5333339000062551,None,,,,,,,,,,,,,,,,,,,,,,,,nback27,001,2023-12-14_16h05.24.918,untitled,2023.2.3,59.96084556985725,2023-12-14 16h49.04.632400 -0500,
8,"[-0.2, -0.1]",None,,,,,0,15,15,15,,,,,203.8835633000126,,,,,,,,,,,,,,,,,,,,,,,,,,,,,,,,,,,,,,,,,,,,,,,203.86849059999804,203.8835633000126,203.8835633000126,204.38354199999594,204.38354199999594,206.88346690000617,206.88346690000617,206.8676788000157,None,1,,,,,,,,,,,,,,,,,,,,,,,,,,nback27,001,2023-12-14_16h05.24.918,untitled,2023.2.3,59.96084556985725,2023-12-14 16h49.04.632400 -0500,
1,"[-0.64, 0.4]",None,,,,,0,16,16,16,,,,,206.88346690000617,,,,,,,,,,,,,,,,,,,,,,,,,,,,,,,,,,,,,,,,,,,,,,,206.86829830001807,206.88346690000617,206.88346690000617,207.38361540000187,207.38361540000187,209.8835007000016,209.8835007000016,209.86755379999522,None,1,,,,,,,,,,,,,,,,,,,,,,,,,,nback27,001,2023-12-14_16h05.24.918,untitled,2023.2.3,59.96084556985725,2023-12-14 16h49.04.632400 -0500,
2,"[0.64, 0.4]",None,,,,,0,17,17,17,,,,,209.8835007000016,,,,,,,,,,,,,,,,,,,,,,,,,,,,,,,,,,,,,,,,,,,,,,,209.86822900001425,209.8835007000016,209.8835007000016,210.38357510001515,210.38357510001515,212.88341780001065,212.88341780001065,212.86786450000363,None,1,,,,,,,,,,,,,,,,,,,,,,,,,,nback27,001,2023-12-14_16h05.24.918,untitled,2023.2.3,59.96084556985725,2023-12-14 16h49.04.632400 -0500,
4,"[-0.2, 0.1]",None,,,,,0,18,18,18,,,,,212.88341780001065,,,,,,,,,,,,,,,,,,,,,,,,,,,,,,,,,,,,,,,,,,,,,,,212.86865839999518,212.88341780001065,212.88341780001065,213.38334050000412,213.38334050000412,215.88345709998976,215.88345709998976,215.8674607000139,space,0,0.5073592999833636,None,,,,,,,,,,,,,,,,,,,,,,,,nback27,001,2023-12-14_16h05.24.918,untitled,2023.2.3,59.96084556985725,2023-12-14 16h49.04.632400 -0500,
4,"[-0.2, 0.1]",space,,,,,0,19,19,19,,,,,215.88345709998976,,,,,,,,,,,,,,,,,,,,,,,,,,,,,,,,,,,,,,,,,,,,,,,215.86846570001217,215.88345709998976,215.88345709998976,216.38341780001065,216.38341780001065,218.88328529999126,218.88328529999126,218.86762520001503,space,1,0.5534895000164397,None,,,,,,,,,,,,,,,,,,,,,,,,nback27,001,2023-12-14_16h05.24.918,untitled,2023.2.3,59.96084556985725,2023-12-14 16h49.04.632400 -0500,
8,"[-0.2, -0.1]",None,,,,,0,20,20,20,,,,,218.88328529999126,,,,,,,,,,,,,,,,,,,,,,,,,,,,,,,,,,,,,,,,,,,,,,,218.86849439999787,218.88328529999126,218.88328529999126,219.3835131000087,219.3835131000087,221.88340300001437,221.88340300001437,221.86764219999895,None,1,,,,,,,,,,,,,,,,,,,,,,,,,,nback27,001,2023-12-14_16h05.24.918,untitled,2023.2.3,59.96084556985725,2023-12-14 16h49.04.632400 -0500,
5,"[0.2, 0.1]",None,,,,,0,21,21,21,,,,,221.88340300001437,,,,,,,,,,,,,,,,,,,,,,,,,,,,,,,,,,,,,,,,,,,,,,,221.86854930000845,221.88340300001437,221.88340300001437,222.38335670001106,222.38335670001106,224.88335859999643,224.88335859999643,224.86724859999958,None,1,,,,,,,,,,,,,,,,,,,,,,,,,,nback27,001,2023-12-14_16h05.24.918,untitled,2023.2.3,59.96084556985725,2023-12-14 16h49.04.632400 -0500,
5,"[0.2, 0.1]",space,,,,,0,22,22,22,,,,,224.88335859999643,,,,,,,,,,,,,,,,,,,,,,,,,,,,,,,,,,,,,,,,,,,,,,,224.86785919999238,224.88335859999643,224.88335859999643,225.38322839999455,225.38322839999455,227.88309069999377,227.88309069999377,227.86718470000778,space,1,0.4355574999935925,None,,,,,,,,,,,,,,,,,,,,,,,,nback27,001,2023-12-14_16h05.24.918,untitled,2023.2.3,59.96084556985725,2023-12-14 16h49.04.632400 -0500,
1,"[-0.64, 0.4]",None,,,,,0,23,23,23,,,,,227.88309069999377,,,,,,,,,,,,,,,,,,,,,,,,,,,,,,,,,,,,,,,,,,,,,,,227.8679323999968,227.88309069999377,227.88309069999377,228.38332260001334,228.38332260001334,230.88305430000764,230.88305430000764,230.86723090001033,None,1,,,,,,,,,,,,,,,,,,,,,,,,,,nback27,001,2023-12-14_16h05.24.918,untitled,2023.2.3,59.96084556985725,2023-12-14 16h49.04.632400 -0500,
3,"[0, 0.2]",None,,,,,0,24,24,24,,,,,230.88305430000764,,,,,,,,,,,,,,,,,,,,,,,,,,,,,,,,,,,,,,,,,,,,,,,230.867908300017,230.88305430000764,230.88305430000764,231.3832403999986,231.3832403999986,233.8831974999921,233.8831974999921,233.86747580001247,None,1,,,,,,,,,,,,,,,,,,,,,,,,,,nback27,001,2023-12-14_16h05.24.918,untitled,2023.2.3,59.96084556985725,2023-12-14 16h49.04.632400 -0500,
6,"[-0.3, 0]",None,,,,,0,25,25,25,,,,,233.8831974999921,,,,,,,,,,,,,,,,,,,,,,,,,,,,,,,,,,,,,,,,,,,,,,,233.86825150001096,233.8831974999921,233.8831974999921,234.3830952999997,234.3830952999997,236.88297380000586,236.88297380000586,236.86732889999985,None,1,,,,,,,,,,,,,,,,,,,,,,,,,,nback27,001,2023-12-14_16h05.24.918,untitled,2023.2.3,59.96084556985725,2023-12-14 16h49.04.632400 -0500,
1,"[-0.64, 0.4]",None,,,,,0,26,26,26,,,,,236.88297380000586,,,,,,,,,,,,,,,,,,,,,,,,,,,,,,,,,,,,,,,,,,,,,,,236.86811519999173,236.88297380000586,236.88297380000586,237.38307959999656,237.38307959999656,239.88284140001633,239.88284140001633,239.86792740001692,None,1,,,,,,,,,,,,,,,,,,,,,,,,,,nback27,001,2023-12-14_16h05.24.918,untitled,2023.2.3,59.96084556985725,2023-12-14 16h49.04.632400 -0500,
1,"[-0.64, 0.4]",space,,,,,0,27,27,27,,,,,239.88284140001633,,,,,,,,,,,,,,,,,,,,,,,,,,,,,,,,,,,,,,,,,,,,,,,239.8685867000022,239.88284140001633,239.88284140001633,240.3830042000045,240.3830042000045,242.8829495999962,242.8829495999962,242.8671478999895,space,1,0.5564371999935247,None,,,,,,,,,,,,,,,,,,,,,,,,nback27,001,2023-12-14_16h05.24.918,untitled,2023.2.3,59.96084556985725,2023-12-14 16h49.04.632400 -0500,
1,"[-0.64, 0.4]",space,,,,,0,28,28,28,,,,,242.8829495999962,,,,,,,,,,,,,,,,,,,,,,,,,,,,,,,,,,,,,,,,,,,,,,,242.8679942000017,242.8829495999962,242.8829495999962,243.3830919000029,243.3830919000029,245.88284360000398,245.88284360000398,245.86696330000996,space,1,0.9218507999903522,None,,,,,,,,,,,,,,,,,,,,,,,,nback27,001,2023-12-14_16h05.24.918,untitled,2023.2.3,59.96084556985725,2023-12-14 16h49.04.632400 -0500,
3,"[0, 0.2]",None,,,,,0,29,29,29,,,,,245.88284360000398,,,,,,,,,,,,,,,,,,,,,,,,,,,,,,,,,,,,,,,,,,,,,,,245.86772999999812,245.88284360000398,245.88284360000398,246.38297430000966,246.38297430000966,248.88280910000321,248.88280910000321,248.86685389999184,None,1,,,,,,,,,,,,,,,,,,,,,,,,,,nback27,001,2023-12-14_16h05.24.918,untitled,2023.2.3,59.96084556985725,2023-12-14 16h49.04.632400 -0500,
12,"[0.64, -0.4]",None,,,,,0,30,30,30,,,,,248.88280910000321,,,,,,,,,,,,,,,,,,,,,,,,,,,,,,,,,,,,,,,,,,,,,,,248.8674879000173,248.88280910000321,248.88280910000321,249.38285069999984,249.38285069999984,251.8827927999955,251.8827927999955,251.86672240000917,None,1,,,,,,,,,,,,,,,,,,,,,,,,,,nback27,001,2023-12-14_16h05.24.918,untitled,2023.2.3,59.96084556985725,2023-12-14 16h49.04.632400 -0500,
12,"[0.64, -0.4]",space,,,,,0,31,31,31,,,,,251.8827927999955,,,,,,,,,,,,,,,,,,,,,,,,,,,,,,,,,,,,,,,,,,,,,,,251.86738730000798,251.8827927999955,251.8827927999955,252.3828116999939,252.3828116999939,254.88275930000236,254.88275930000236,254.86692639999092,space,1,0.3729736999957822,None,,,,,,,,,,,,,,,,,,,,,,,,nback27,001,2023-12-14_16h05.24.918,untitled,2023.2.3,59.96084556985725,2023-12-14 16h49.04.632400 -0500,
2,"[0.64, 0.4]",None,,,,,0,32,32,32,,,,,254.88275930000236,,,,,,,,,,,,,,,,,,,,,,,,,,,,,,,,,,,,,,,,,,,,,,,254.8679131999961,254.88275930000236,254.88275930000236,255.3826650000119,255.3826650000119,257.88271510001505,257.88271510001505,257.86665959999664,None,1,,,,,,,,,,,,,,,,,,,,,,,,,,nback27,001,2023-12-14_16h05.24.918,untitled,2023.2.3,59.96084556985725,2023-12-14 16h49.04.632400 -0500,
1,"[-0.64, 0.4]",None,,,,,0,33,33,33,,,,,257.88271510001505,,,,,,,,,,,,,,,,,,,,,,,,,,,,,,,,,,,,,,,,,,,,,,,257.867333400005,257.88271510001505,257.88271510001505,258.3826393999916,258.3826393999916,260.88270270000794,260.88270270000794,260.8669962999993,None,1,,,,,,,,,,,,,,,,,,,,,,,,,,nback27,001,2023-12-14_16h05.24.918,untitled,2023.2.3,59.96084556985725,2023-12-14 16h49.04.632400 -0500,
7,"[0.3, 0]",None,,,,,0,34,34,34,,,,,260.88270270000794,,,,,,,,,,,,,,,,,,,,,,,,,,,,,,,,,,,,,,,,,,,,,,,260.8676977000141,260.88270270000794,260.88270270000794,261.38281189999543,261.38281189999543,263.8824875999999,263.8824875999999,263.86682540000766,None,1,,,,,,,,,,,,,,,,,,,,,,,,,,nback27,001,2023-12-14_16h05.24.918,untitled,2023.2.3,59.96084556985725,2023-12-14 16h49.04.632400 -0500,
7,"[0.3, 0]",space,,,,,0,35,35,35,,,,,263.8824875999999,,,,,,,,,,,,,,,,,,,,,,,,,,,,,,,,,,,,,,,,,,,,,,,263.867553899996,263.8824875999999,263.8824875999999,264.3825049000152,264.3825049000152,266.8826110000082,266.8826110000082,266.8668661999982,space,1,0.49669050000375137,None,,,,,,,,,,,,,,,,,,,,,,,,nback27,001,2023-12-14_16h05.24.918,untitled,2023.2.3,59.96084556985725,2023-12-14 16h49.04.632400 -0500,
11,"[-0.64, -0.4]",None,,,,,0,36,36,36,,,,,266.8826110000082,,,,,,,,,,,,,,,,,,,,,,,,,,,,,,,,,,,,,,,,,,,,,,,266.86788229999365,266.8826110000082,266.8826110000082,267.3824472000124,267.3824472000124,269.8825588999898,269.8825588999898,269.86653279999155,None,1,,,,,,,,,,,,,,,,,,,,,,,,,,nback27,001,2023-12-14_16h05.24.918,untitled,2023.2.3,59.96084556985725,2023-12-14 16h49.04.632400 -0500,
2,"[0.64, 0.4]",None,,,,,0,37,37,37,,,,,269.8825588999898,,,,,,,,,,,,,,,,,,,,,,,,,,,,,,,,,,,,,,,,,,,,,,,269.8671481999918,269.8825588999898,269.8825588999898,270.38252410001587,270.38252410001587,272.88253010000335,272.88253010000335,272.86672479999834,None,1,,,,,,,,,,,,,,,,,,,,,,,,,,nback27,001,2023-12-14_16h05.24.918,untitled,2023.2.3,59.96084556985725,2023-12-14 16h49.04.632400 -0500,
6,"[-0.3, 0]",None,,,,,0,38,38,38,,,,,272.88253010000335,,,,,,,,,,,,,,,,,,,,,,,,,,,,,,,,,,,,,,,,,,,,,,,272.86758809999446,272.88253010000335,272.88253010000335,273.38253790000454,273.38253790000454,275.88230580001255,275.88230580001255,275.86654290001024,None,1,,,,,,,,,,,,,,,,,,,,,,,,,,nback27,001,2023-12-14_16h05.24.918,untitled,2023.2.3,59.96084556985725,2023-12-14 16h49.04.632400 -0500,
10,"[0, -0.2]",None,,,,,0,39,39,39,,,,,275.88230580001255,,,,,,,,,,,,,,,,,,,,,,,,,,,,,,,,,,,,,,,,,,,,,,,275.8672351000132,275.88230580001255,275.88230580001255,276.3822738000017,276.3822738000017,278.8824937000172,278.8824937000172,278.8665924000088,None,1,,,,,,,,,,,,,,,,,,,,,,,,,,nback27,001,2023-12-14_16h05.24.918,untitled,2023.2.3,59.96084556985725,2023-12-14 16h49.04.632400 -0500,
,,,,,,,,,,,,,,,,,,,,,,,,,,,,,,,,,,,,,,,,,,,,,,,,,,,,,,,,,,,,,,,,,,,,,,,,,,278.86706970000523,278.8824937000172,278.8824937000172,295.6159717999981,space,16.72122350000427,None,,,,,,,,,,,,,,,,,nback27,001,2023-12-14_16h05.24.918,untitled,2023.2.3,59.96084556985725,2023-12-14 16h49.04.632400 -0500,
,"[0.2, 0.1]",None,,,,,,,,,0,0,0,0,296.63211100001354,,,,,,,,,,,,,,,,,,,,,,,,295.61599230000866,295.6318769000063,296.63211100001354,296.6161120000179,,,,,,,,,,,,,,,,,,,,,,,,,,,,,,,,,,,,,,,296.6248297000129,296.63211100001354,296.63211100001354,297.1153125000128,297.13211790000787,299.6151844999986,299.63185840001097,299.6161510999955,None,1,,,,,,,nback27,001,2023-12-14_16h05.24.918,untitled,2023.2.3,59.96084556985725,2023-12-14 16h49.04.632400 -0500,
,"[0.64, 0.4]",None,,,,,,,,,0,1,1,1,299.63185840001097,,,,,,,,,,,,,,,,,,,,,,,,,,,,,,,,,,,,,,,,,,,,,,,,,,,,,,,,,,,,,,,,,,299.61702050000895,299.63185840001097,299.63185840001097,300.1151169000077,300.13197049999144,302.6152357000101,302.63192829999025,302.6162433999998,None,1,,,,,,,nback27,001,2023-12-14_16h05.24.918,untitled,2023.2.3,59.96084556985725,2023-12-14 16h49.04.632400 -0500,
,"[-0.3, 0]",None,,,,,,,,,0,2,2,2,302.63192829999025,,,,,,,,,,,,,,,,,,,,,,,,,,,,,,,,,,,,,,,,,,,,,,,,,,,,,,,,,,,,,,,,,,302.6169802999939,302.63192829999025,302.63192829999025,303.1152357000101,303.131918900006,305.6151752000151,305.63195239999914,305.61593150001136,None,1,,,,,,,nback27,001,2023-12-14_16h05.24.918,untitled,2023.2.3,59.96084556985725,2023-12-14 16h49.04.632400 -0500,
,"[0.2, -0.1]",None,,,,,,,,,0,3,3,3,305.63195239999914,,,,,,,,,,,,,,,,,,,,,,,,,,,,,,,,,,,,,,,,,,,,,,,,,,,,,,,,,,,,,,,,,,305.61672550000367,305.63195239999914,305.63195239999914,306.11516000001575,306.13178600001265,308.6150551000028,308.6317834999936,308.61575220001396,None,1,,,,,,,nback27,001,2023-12-14_16h05.24.918,untitled,2023.2.3,59.96084556985725,2023-12-14 16h49.04.632400 -0500,
,"[0, 0.2]",None,,,,,,,,,0,4,4,4,308.6317834999936,,,,,,,,,,,,,,,,,,,,,,,,,,,,,,,,,,,,,,,,,,,,,,,,,,,,,,,,,,,,,,,,,,308.6163935000077,308.6317834999936,308.6317834999936,309.1150917999912,309.1317675000173,311.6151155999978,311.63177390000783,311.61585540001397,space,0,1.5440869000158273,None,,,,,nback27,001,2023-12-14_16h05.24.918,untitled,2023.2.3,59.96084556985725,2023-12-14 16h49.04.632400 -0500,
,"[0.2, -0.1]",space,,,,,,,,,0,5,5,5,311.63177390000783,,,,,,,,,,,,,,,,,,,,,,,,,,,,,,,,,,,,,,,,,,,,,,,,,,,,,,,,,,,,,,,,,,311.6168900000048,311.63177390000783,311.63177390000783,312.11497580001014,312.13182070001494,314.61495869999635,314.63165329999174,314.61568990000524,None,0,,,,,,,nback27,001,2023-12-14_16h05.24.918,untitled,2023.2.3,59.96084556985725,2023-12-14 16h49.04.632400 -0500,
,"[0, -0.2]",None,,,,,,,,,0,6,6,6,314.63165329999174,,,,,,,,,,,,,,,,,,,,,,,,,,,,,,,,,,,,,,,,,,,,,,,,,,,,,,,,,,,,,,,,,,314.6164076999994,314.63165329999174,314.63165329999174,315.1150937000057,315.1316508000018,317.61510049999924,317.6317238000047,317.61600860001636,None,1,,,,,,,nback27,001,2023-12-14_16h05.24.918,untitled,2023.2.3,59.96084556985725,2023-12-14 16h49.04.632400 -0500,
,"[0.64, -0.4]",None,,,,,,,,,0,7,7,7,317.6317238000047,,,,,,,,,,,,,,,,,,,,,,,,,,,,,,,,,,,,,,,,,,,,,,,,,,,,,,,,,,,,,,,,,,317.6166868,317.6317238000047,317.6317238000047,318.11511240000254,318.1315879999893,320.615011899994,320.63168200000655,320.61577110001235,None,1,,,,,,,nback27,001,2023-12-14_16h05.24.918,untitled,2023.2.3,59.96084556985725,2023-12-14 16h49.04.632400 -0500,
,"[0.3, 0]",None,,,,,,,,,0,8,8,8,320.63168200000655,,,,,,,,,,,,,,,,,,,,,,,,,,,,,,,,,,,,,,,,,,,,,,,,,,,,,,,,,,,,,,,,,,320.6164194000012,320.63168200000655,320.63168200000655,321.1316446000128,321.1316446000128,323.6315106000111,323.6315106000111,323.6156050999998,None,1,,,,,,,nback27,001,2023-12-14_16h05.24.918,untitled,2023.2.3,59.96084556985725,2023-12-14 16h49.04.632400 -0500,
,"[0.64, -0.4]",space,,,,,,,,,0,9,9,9,323.6315106000111,,,,,,,,,,,,,,,,,,,,,,,,,,,,,,,,,,,,,,,,,,,,,,,,,,,,,,,,,,,,,,,,,,323.61623469999176,323.6315106000111,323.6315106000111,324.11489140000776,324.131635800004,326.6148465000151,326.6316283000051,326.6158051000093,space,1,0.6283321999944746,None,,,,,nback27,001,2023-12-14_16h05.24.918,untitled,2023.2.3,59.96084556985725,2023-12-14 16h49.04.632400 -0500,
,"[-0.64, 0.4]",None,,,,,,,,,0,10,10,10,326.6316283000051,,,,,,,,,,,,,,,,,,,,,,,,,,,,,,,,,,,,,,,,,,,,,,,,,,,,,,,,,,,,,,,,,,326.61680370001704,326.6316283000051,326.6316283000051,327.1314635000017,327.1314635000017,329.63143310000305,329.63143310000305,329.61584720000974,None,1,,,,,,,nback27,001,2023-12-14_16h05.24.918,untitled,2023.2.3,59.96084556985725,2023-12-14 16h49.04.632400 -0500,
,"[0.2, 0.1]",None,,,,,,,,,0,11,11,11,329.63143310000305,,,,,,,,,,,,,,,,,,,,,,,,,,,,,,,,,,,,,,,,,,,,,,,,,,,,,,,,,,,,,,,,,,329.61667610000586,329.63143310000305,329.63143310000305,330.1315469999972,330.1315469999972,332.63133189998916,332.63133189998916,332.61537079999107,None,1,,,,,,,nback27,001,2023-12-14_16h05.24.918,untitled,2023.2.3,59.96084556985725,2023-12-14 16h49.04.632400 -0500,
,"[0.3, 0]",None,,,,,,,,,0,12,12,12,332.63133189998916,,,,,,,,,,,,,,,,,,,,,,,,,,,,,,,,,,,,,,,,,,,,,,,,,,,,,,,,,,,,,,,,,,332.61591700001736,332.63133189998916,332.63133189998916,333.13137519999873,333.13137519999873,335.63132960000075,335.63132960000075,335.6155994000146,None,1,,,,,,,nback27,001,2023-12-14_16h05.24.918,untitled,2023.2.3,59.96084556985725,2023-12-14 16h49.04.632400 -0500,
,"[0.2, 0.1]",space,,,,,,,,,0,13,13,13,335.63132960000075,,,,,,,,,,,,,,,,,,,,,,,,,,,,,,,,,,,,,,,,,,,,,,,,,,,,,,,,,,,,,,,,,,335.6162936000037,335.63132960000075,335.63132960000075,336.13140179999755,336.13140179999755,338.6312988999998,338.6312988999998,338.6153439999907,space,1,0.6692959000065457,None,,,,,nback27,001,2023-12-14_16h05.24.918,untitled,2023.2.3,59.96084556985725,2023-12-14 16h49.04.632400 -0500,
,"[-0.3, 0]",None,,,,,,,,,0,14,14,14,338.6312988999998,,,,,,,,,,,,,,,,,,,,,,,,,,,,,,,,,,,,,,,,,,,,,,,,,,,,,,,,,,,,,,,,,,338.61612350001815,338.6312988999998,338.6312988999998,339.1312281000137,339.1312281000137,341.631172399997,341.631172399997,341.61555869999574,None,1,,,,,,,nback27,001,2023-12-14_16h05.24.918,untitled,2023.2.3,59.96084556985725,2023-12-14 16h49.04.632400 -0500,
,"[0, 0.2]",None,,,,,,,,,0,15,15,15,341.631172399997,,,,,,,,,,,,,,,,,,,,,,,,,,,,,,,,,,,,,,,,,,,,,,,,,,,,,,,,,,,,,,,,,,341.61633869999787,341.631172399997,341.631172399997,342.131303400005,342.131303400005,344.6311716999917,344.6311716999917,344.6151125000033,None,1,,,,,,,nback27,001,2023-12-14_16h05.24.918,untitled,2023.2.3,59.96084556985725,2023-12-14 16h49.04.632400 -0500,
,"[-0.3, 0]",space,,,,,,,,,0,16,16,16,344.6311716999917,,,,,,,,,,,,,,,,,,,,,,,,,,,,,,,,,,,,,,,,,,,,,,,,,,,,,,,,,,,,,,,,,,344.61578580000787,344.6311716999917,344.6311716999917,345.1312651000044,345.1312651000044,347.6311185999948,347.6311185999948,347.61523940000916,space,1,0.6287083000061102,None,,,,,nback27,001,2023-12-14_16h05.24.918,untitled,2023.2.3,59.96084556985725,2023-12-14 16h49.04.632400 -0500,
,"[-0.64, -0.4]",None,,,,,,,,,0,17,17,17,347.6311185999948,,,,,,,,,,,,,,,,,,,,,,,,,,,,,,,,,,,,,,,,,,,,,,,,,,,,,,,,,,,,,,,,,,347.6161330000032,347.6311185999948,347.6311185999948,348.131146300002,348.131146300002,350.63124350001453,350.63124350001453,350.61521509999875,None,1,,,,,,,nback27,001,2023-12-14_16h05.24.918,untitled,2023.2.3,59.96084556985725,2023-12-14 16h49.04.632400 -0500,
,"[-0.2, -0.1]",None,,,,,,,,,0,18,18,18,350.63124350001453,,,,,,,,,,,,,,,,,,,,,,,,,,,,,,,,,,,,,,,,,,,,,,,,,,,,,,,,,,,,,,,,,,350.6159034000011,350.63124350001453,350.63124350001453,351.1312286000175,351.1312286000175,353.63101780001307,353.63101780001307,353.61560109999846,None,1,,,,,,,nback27,001,2023-12-14_16h05.24.918,untitled,2023.2.3,59.96084556985725,2023-12-14 16h49.04.632400 -0500,
,"[0.2, -0.1]",None,,,,,,,,,0,19,19,19,353.63101780001307,,,,,,,,,,,,,,,,,,,,,,,,,,,,,,,,,,,,,,,,,,,,,,,,,,,,,,,,,,,,,,,,,,353.616459700017,353.63101780001307,353.63101780001307,354.1311623000074,354.1311623000074,356.63094259999343,356.63094259999343,356.614991200011,None,1,,,,,,,nback27,001,2023-12-14_16h05.24.918,untitled,2023.2.3,59.96084556985725,2023-12-14 16h49.04.632400 -0500,
,"[0.2, -0.1]",None,,,,,,,,,0,20,20,20,356.63094259999343,,,,,,,,,,,,,,,,,,,,,,,,,,,,,,,,,,,,,,,,,,,,,,,,,,,,,,,,,,,,,,,,,,356.6155519000022,356.63094259999343,356.63094259999343,357.1311178000178,357.1311178000178,359.63089309999486,359.63089309999486,359.6149521000043,space,0,0.7833786999981385,None,,,,,nback27,001,2023-12-14_16h05.24.918,untitled,2023.2.3,59.96084556985725,2023-12-14 16h49.04.632400 -0500,
,"[-0.64, 0.4]",None,,,,,,,,,0,21,21,21,359.63089309999486,,,,,,,,,,,,,,,,,,,,,,,,,,,,,,,,,,,,,,,,,,,,,,,,,,,,,,,,,,,,,,,,,,359.6156859000039,359.63089309999486,359.63089309999486,360.13098600000376,360.13098600000376,362.6309212000051,362.6309212000051,362.61521670001093,None,1,,,,,,,nback27,001,2023-12-14_16h05.24.918,untitled,2023.2.3,59.96084556985725,2023-12-14 16h49.04.632400 -0500,
,"[0, 0.2]",None,,,,,,,,,0,22,22,22,362.6309212000051,,,,,,,,,,,,,,,,,,,,,,,,,,,,,,,,,,,,,,,,,,,,,,,,,,,,,,,,,,,,,,,,,,362.6158834999951,362.6309212000051,362.6309212000051,363.1308410000056,363.1308410000056,365.6307955000084,365.6307955000084,365.6150471000001,None,1,,,,,,,nback27,001,2023-12-14_16h05.24.918,untitled,2023.2.3,59.96084556985725,2023-12-14 16h49.04.632400 -0500,
,"[0.64, -0.4]",None,,,,,,,,,0,23,23,23,365.6307955000084,,,,,,,,,,,,,,,,,,,,,,,,,,,,,,,,,,,,,,,,,,,,,,,,,,,,,,,,,,,,,,,,,,365.61575560001074,365.6307955000084,365.6307955000084,366.1308285999985,366.1308285999985,368.63077019999037,368.63077019999037,368.61485990000074,None,1,,,,,,,nback27,001,2023-12-14_16h05.24.918,untitled,2023.2.3,59.96084556985725,2023-12-14 16h49.04.632400 -0500,
,"[0, 0.2]",space,,,,,,,,,0,24,24,24,368.63077019999037,,,,,,,,,,,,,,,,,,,,,,,,,,,,,,,,,,,,,,,,,,,,,,,,,,,,,,,,,,,,,,,,,,368.61545959999785,368.63077019999037,368.63077019999037,369.1309384999913,369.1309384999913,371.6308391999919,371.6308391999919,371.61479859999963,space,1,0.4435867000138387,None,,,,,nback27,001,2023-12-14_16h05.24.918,untitled,2023.2.3,59.96084556985725,2023-12-14 16h49.04.632400 -0500,
,"[-0.2, 0.1]",None,,,,,,,,,0,25,25,25,371.6308391999919,,,,,,,,,,,,,,,,,,,,,,,,,,,,,,,,,,,,,,,,,,,,,,,,,,,,,,,,,,,,,,,,,,371.61557709999033,371.6308391999919,371.6308391999919,372.13054489999195,372.13054489999195,374.6306872999994,374.6306872999994,374.6150481000077,None,1,,,,,,,nback27,001,2023-12-14_16h05.24.918,untitled,2023.2.3,59.96084556985725,2023-12-14 16h49.04.632400 -0500,
,"[0.3, 0]",None,,,,,,,,,0,26,26,26,374.6306872999994,,,,,,,,,,,,,,,,,,,,,,,,,,,,,,,,,,,,,,,,,,,,,,,,,,,,,,,,,,,,,,,,,,374.61581819999265,374.6306872999994,374.6306872999994,375.1306421000045,375.1306421000045,377.6306520999933,377.6306520999933,377.61499699999695,None,1,,,,,,,nback27,001,2023-12-14_16h05.24.918,untitled,2023.2.3,59.96084556985725,2023-12-14 16h49.04.632400 -0500,
,"[-0.2, 0.1]",space,,,,,,,,,0,27,27,27,377.6306520999933,,,,,,,,,,,,,,,,,,,,,,,,,,,,,,,,,,,,,,,,,,,,,,,,,,,,,,,,,,,,,,,,,,377.61582539998926,377.6306520999933,377.6306520999933,378.13062660000287,378.13062660000287,380.6307264000061,380.6307264000061,380.61496520001674,space,1,0.7612251999962609,None,,,,,nback27,001,2023-12-14_16h05.24.918,untitled,2023.2.3,59.96084556985725,2023-12-14 16h49.04.632400 -0500,
,"[-0.2, 0.1]",None,,,,,,,,,0,28,28,28,380.6307264000061,,,,,,,,,,,,,,,,,,,,,,,,,,,,,,,,,,,,,,,,,,,,,,,,,,,,,,,,,,,,,,,,,,380.615832600015,380.6307264000061,380.6307264000061,381.13069879999966,381.13069879999966,383.6305793999927,383.6305793999927,383.61472869999125,space,0,1.3003421000030357,None,,,,,nback27,001,2023-12-14_16h05.24.918,untitled,2023.2.3,59.96084556985725,2023-12-14 16h49.04.632400 -0500,
,"[0.2, 0.1]",None,,,,,,,,,0,29,29,29,383.6305793999927,,,,,,,,,,,,,,,,,,,,,,,,,,,,,,,,,,,,,,,,,,,,,,,,,,,,,,,,,,,,,,,,,,383.61551470000995,383.6305793999927,383.6305793999927,384.1306201000116,384.1306201000116,386.630610799999,386.630610799999,386.6144201999996,None,1,,,,,,,nback27,001,2023-12-14_16h05.24.918,untitled,2023.2.3,59.96084556985725,2023-12-14 16h49.04.632400 -0500,
,"[-0.64, -0.4]",None,,,,,,,,,0,30,30,30,386.630610799999,,,,,,,,,,,,,,,,,,,,,,,,,,,,,,,,,,,,,,,,,,,,,,,,,,,,,,,,,,,,,,,,,,386.6150292000093,386.630610799999,386.630610799999,387.1304644999909,387.1304644999909,389.63038240000606,389.63038240000606,389.614559300011,None,1,,,,,,,nback27,001,2023-12-14_16h05.24.918,untitled,2023.2.3,59.96084556985725,2023-12-14 16h49.04.632400 -0500,
,"[0, -0.2]",None,,,,,,,,,0,31,31,31,389.63038240000606,,,,,,,,,,,,,,,,,,,,,,,,,,,,,,,,,,,,,,,,,,,,,,,,,,,,,,,,,,,,,,,,,,389.61523140000645,389.63038240000606,389.63038240000606,390.13059479999356,390.13059479999356,392.6304650999955,392.6304650999955,392.6147500000079,None,1,,,,,,,nback27,001,2023-12-14_16h05.24.918,untitled,2023.2.3,59.96084556985725,2023-12-14 16h49.04.632400 -0500,
,"[-0.64, -0.4]",space,,,,,,,,,0,32,32,32,392.6304650999955,,,,,,,,,,,,,,,,,,,,,,,,,,,,,,,,,,,,,,,,,,,,,,,,,,,,,,,,,,,,,,,,,,392.61551440000767,392.6304650999955,392.6304650999955,393.1303509999998,393.1303509999998,395.63043409999227,395.63043409999227,395.61473649999243,space,1,0.35641879998729564,None,,,,,nback27,001,2023-12-14_16h05.24.918,untitled,2023.2.3,59.96084556985725,2023-12-14 16h49.04.632400 -0500,
,"[0.64, 0.4]",None,,,,,,,,,0,33,33,33,395.63043409999227,,,,,,,,,,,,,,,,,,,,,,,,,,,,,,,,,,,,,,,,,,,,,,,,,,,,,,,,,,,,,,,,,,395.61571290000575,395.63043409999227,395.63043409999227,396.1303556000057,396.1303556000057,398.6303438000032,398.6303438000032,398.6142652000126,None,1,,,,,,,nback27,001,2023-12-14_16h05.24.918,untitled,2023.2.3,59.96084556985725,2023-12-14 16h49.04.632400 -0500,
,"[-0.3, 0]",None,,,,,,,,,0,34,34,34,398.6303438000032,,,,,,,,,,,,,,,,,,,,,,,,,,,,,,,,,,,,,,,,,,,,,,,,,,,,,,,,,,,,,,,,,,398.6148627999937,398.6303438000032,398.6303438000032,399.1303417000163,399.1303417000163,401.63031000000774,401.63031000000774,401.61402060001274,None,1,,,,,,,nback27,001,2023-12-14_16h05.24.918,untitled,2023.2.3,59.96084556985725,2023-12-14 16h49.04.632400 -0500,
,"[0.3, 0]",None,,,,,,,,,0,35,35,35,401.63031000000774,,,,,,,,,,,,,,,,,,,,,,,,,,,,,,,,,,,,,,,,,,,,,,,,,,,,,,,,,,,,,,,,,,401.61456829999224,401.63031000000774,401.63031000000774,402.1301674999995,402.1301674999995,404.63014180000755,404.63014180000755,404.6141762000043,None,1,,,,,,,nback27,001,2023-12-14_16h05.24.918,untitled,2023.2.3,59.96084556985725,2023-12-14 16h49.04.632400 -0500,
,"[-0.3, 0]",space,,,,,,,,,0,36,36,36,404.63014180000755,,,,,,,,,,,,,,,,,,,,,,,,,,,,,,,,,,,,,,,,,,,,,,,,,,,,,,,,,,,,,,,,,,404.6147573000053,404.63014180000755,404.63014180000755,405.13031979999505,405.13031979999505,407.63026939998963,407.63026939998963,407.61461750001763,space,1,0.8925498999888077,None,,,,,nback27,001,2023-12-14_16h05.24.918,untitled,2023.2.3,59.96084556985725,2023-12-14 16h49.04.632400 -0500,
,"[0, -0.2]",None,,,,,,,,,0,37,37,37,407.63026939998963,,,,,,,,,,,,,,,,,,,,,,,,,,,,,,,,,,,,,,,,,,,,,,,,,,,,,,,,,,,,,,,,,,407.61565339998924,407.63026939998963,407.63026939998963,408.1301586999907,408.1301586999907,410.6300115000049,410.6300115000049,410.6141394000151,None,1,,,,,,,nback27,001,2023-12-14_16h05.24.918,untitled,2023.2.3,59.96084556985725,2023-12-14 16h49.04.632400 -0500,
,"[0.3, 0]",None,,,,,,,,,0,38,38,38,410.6300115000049,,,,,,,,,,,,,,,,,,,,,,,,,,,,,,,,,,,,,,,,,,,,,,,,,,,,,,,,,,,,,,,,,,410.61466789999395,410.6300115000049,410.6300115000049,411.1301577000122,411.1301577000122,413.6301316000172,413.6301316000172,413.6142710999993,space,0,0.5693489999976009,None,,,,,nback27,001,2023-12-14_16h05.24.918,untitled,2023.2.3,59.96084556985725,2023-12-14 16h49.04.632400 -0500,
,"[0.2, 0.1]",None,,,,,,,,,0,39,39,39,413.6301316000172,,,,,,,,,,,,,,,,,,,,,,,,,,,,,,,,,,,,,,,,,,,,,,,,,,,,,,,,,,,,,,,,,,413.61501410001074,413.6301316000172,413.6301316000172,414.13014359999215,414.13014359999215,416.63008329999866,416.63008329999866,416.6142519999994,None,1,,,,,,,nback27,001,2023-12-14_16h05.24.918,untitled,2023.2.3,59.96084556985725,2023-12-14 16h49.04.632400 -0500,
,,,,,,,,,,,,,,,,,,,,,,,,,,,,,,,,,,,,,,,,,,,,,,,,,,,,,,,,,,,,,,,,,,,,,,,,,,,,,,,,,,,,,,,,,,,,,416.614742500009,416.63008329999866,419.6300719999999,419.61403580001206,,,,,,,,
