square,location,corrAns,trials_0.thisRepN,trials_0.thisTrialN,trials_0.thisN,trials_0.thisIndex,trials_1.thisRepN,trials_1.thisTrialN,trials_1.thisN,trials_1.thisIndex,trials_2.thisRepN,trials_2.thisTrialN,trials_2.thisN,trials_2.thisIndex,thisRow.t,notes,Instructions.started,instructions.started,key_resp.started,inst_sq11.started,Instructions.stopped,key_resp.keys,key_resp.rt,key_resp.duration,All.started,sq_1.started,sq_2.started,sq_3.started,sq_4.started,sq_5.started,sq_6.started,sq_7.started,sq_8.started,sq_9.started,sq_10.started,sq_11.started,sq_12.started,All.stopped,Fixation.started,fixation_3.started,fixation_3.stopped,Fixation.stopped,N_back_0_Trial.started,target_square_0.started,response_0.started,target_square_0.stopped,fixation_0.started,fixation_0.stopped,response_0.stopped,N_back_0_Trial.stopped,response_0.keys,response_0.corr,response_0.rt,response_0.duration,Instructions_1.started,instructions_1.started,key_resp_1.started,Instructions_1.stopped,key_resp_1.keys,key_resp_1.rt,key_resp_1.duration,N_back_1_Trial.started,target_square_1.started,response_1.started,target_square_1.stopped,fixation_1.started,fixation_1.stopped,response_1.stopped,N_back_1_Trial.stopped,response_1.keys,response_1.corr,response_1.rt,response_1.duration,Instructions_2.started,instructions_2.started,key_resp_2.started,Instructions_2.stopped,key_resp_2.keys,key_resp_2.rt,key_resp_2.duration,N_back_2_trials.started,target_square_2.started,response_2.started,target_square_2.stopped,fixation_2.started,fixation_2.stopped,response_2.stopped,N_back_2_trials.stopped,response_2.keys,response_2.corr,response_2.rt,response_2.duration,End.started,thank_you.started,thank_you.stopped,End.stopped,participant,session,date,expName,psychopyVersion,frameRate,expStart,Unnamed: 104
,,,,,,,,,,,,,,,,,0.0014374000020325,0.0038707999992766,0.0038707999992766,0.0038707999992766,35.73111680000147,space,35.72257659999741,None,,,,,,,,,,,,,,,,,,,,,,,,,,,,,,,,,,,,,,,,,,,,,,,,,,,,,,,,,,,,,,,,,,,,,,,,,nback25,1.0,2023-12-13_18h22.37.815,untitled,2023.2.3,60.031973030312656,2023-12-13 19h04.52.040410 -0500,
6.0,"[-0.3, 0]",None,0.0,0.0,0.0,0.0,,,,,,,,,37.730307900004846,,,,,,,,,,35.731149500003085,35.746549600000435,35.746549600000435,35.746549600000435,35.746549600000435,35.746549600000435,35.746549600000435,35.746549600000435,35.746549600000435,35.746549600000435,35.746549600000435,35.746549600000435,35.746549600000435,36.71482649999962,36.71486410000216,36.73014160000457,37.730307900004846,37.71439630000532,37.72831190000579,37.730307900004846,37.730307900004846,38.229958100004296,38.229958100004296,40.72984580000048,40.72984580000048,40.714513999999326,None,1.0,,,,,,,,,,,,,,,,,,,,,,,,,,,,,,,,,,,,,,,,,,,,,nback25,1.0,2023-12-13_18h22.37.815,untitled,2023.2.3,60.031973030312656,2023-12-13 19h04.52.040410 -0500,
10.0,"[0, -0.2]",None,0.0,1.0,1.0,1.0,,,,,,,,,40.72984580000048,,,,,,,,,,,,,,,,,,,,,,,,,,,,40.7155894000025,40.72984580000048,40.72984580000048,41.23006420000456,41.23006420000456,43.7299381000048,43.7299381000048,43.714133699999365,None,1.0,,,,,,,,,,,,,,,,,,,,,,,,,,,,,,,,,,,,,,,,,,,,,nback25,1.0,2023-12-13_18h22.37.815,untitled,2023.2.3,60.031973030312656,2023-12-13 19h04.52.040410 -0500,
11.0,"[-0.64, -0.4]",space,0.0,2.0,2.0,2.0,,,,,,,,,43.7299381000048,,,,,,,,,,,,,,,,,,,,,,,,,,,,43.71478360000037,43.7299381000048,43.7299381000048,44.229930699999386,44.229930699999386,46.729787500000384,46.729787500000384,46.71418030000496,space,1.0,0.3881834999992861,None,,,,,,,,,,,,,,,,,,,,,,,,,,,,,,,,,,,,,,,,,,,nback25,1.0,2023-12-13_18h22.37.815,untitled,2023.2.3,60.031973030312656,2023-12-13 19h04.52.040410 -0500,
12.0,"[0.64, -0.4]",None,0.0,3.0,3.0,3.0,,,,,,,,,46.729787500000384,,,,,,,,,,,,,,,,,,,,,,,,,,,,46.71512540000549,46.729787500000384,46.729787500000384,47.22987890000513,47.22987890000513,49.729864600005385,49.729864600005385,49.71401390000392,None,1.0,,,,,,,,,,,,,,,,,,,,,,,,,,,,,,,,,,,,,,,,,,,,,nback25,1.0,2023-12-13_18h22.37.815,untitled,2023.2.3,60.031973030312656,2023-12-13 19h04.52.040410 -0500,
1.0,"[-0.64, 0.4]",None,0.0,4.0,4.0,4.0,,,,,,,,,49.729864600005385,,,,,,,,,,,,,,,,,,,,,,,,,,,,49.714657700002135,49.729864600005385,49.729864600005385,50.22995350000565,50.22995350000565,52.72986490000039,52.72986490000039,52.71417289999954,None,1.0,,,,,,,,,,,,,,,,,,,,,,,,,,,,,,,,,,,,,,,,,,,,,nback25,1.0,2023-12-13_18h22.37.815,untitled,2023.2.3,60.031973030312656,2023-12-13 19h04.52.040410 -0500,
1.0,"[-0.64, 0.4]",None,0.0,5.0,5.0,5.0,,,,,,,,,52.72986490000039,,,,,,,,,,,,,,,,,,,,,,,,,,,,52.71495000000141,52.72986490000039,52.72986490000039,53.22977520000131,53.22977520000131,55.729560100000526,55.729560100000526,55.71353730000556,None,1.0,,,,,,,,,,,,,,,,,,,,,,,,,,,,,,,,,,,,,,,,,,,,,nback25,1.0,2023-12-13_18h22.37.815,untitled,2023.2.3,60.031973030312656,2023-12-13 19h04.52.040410 -0500,
4.0,"[-0.2, 0.1]",None,0.0,6.0,6.0,6.0,,,,,,,,,55.729560100000526,,,,,,,,,,,,,,,,,,,,,,,,,,,,55.714120800003,55.729560100000526,55.729560100000526,56.229783400005545,56.229783400005545,58.72957500000484,58.72957500000484,58.71394870000222,None,1.0,,,,,,,,,,,,,,,,,,,,,,,,,,,,,,,,,,,,,,,,,,,,,nback25,1.0,2023-12-13_18h22.37.815,untitled,2023.2.3,60.031973030312656,2023-12-13 19h04.52.040410 -0500,
5.0,"[0.2, 0.1]",None,0.0,7.0,7.0,7.0,,,,,,,,,58.72957500000484,,,,,,,,,,,,,,,,,,,,,,,,,,,,58.714736200003244,58.72957500000484,58.72957500000484,59.22953550000239,59.22953550000239,61.72951090000424,61.72951090000424,61.71373680000397,None,1.0,,,,,,,,,,,,,,,,,,,,,,,,,,,,,,,,,,,,,,,,,,,,,nback25,1.0,2023-12-13_18h22.37.815,untitled,2023.2.3,60.031973030312656,2023-12-13 19h04.52.040410 -0500,
11.0,"[-0.64, -0.4]",space,0.0,8.0,8.0,8.0,,,,,,,,,61.72951090000424,,,,,,,,,,,,,,,,,,,,,,,,,,,,61.71432350000396,61.72951090000424,61.72951090000424,62.22948490000272,62.22948490000272,64.72953690000577,64.72953690000577,64.713808600005,space,1.0,0.4375798000037321,None,,,,,,,,,,,,,,,,,,,,,,,,,,,,,,,,,,,,,,,,,,,nback25,1.0,2023-12-13_18h22.37.815,untitled,2023.2.3,60.031973030312656,2023-12-13 19h04.52.040410 -0500,
9.0,"[0.2, -0.1]",None,0.0,9.0,9.0,9.0,,,,,,,,,64.72953690000577,,,,,,,,,,,,,,,,,,,,,,,,,,,,64.71454230000381,64.72953690000577,64.72953690000577,65.22946140000568,65.22946140000568,67.72934930000338,67.72934930000338,67.71356920000107,None,1.0,,,,,,,,,,,,,,,,,,,,,,,,,,,,,,,,,,,,,,,,,,,,,nback25,1.0,2023-12-13_18h22.37.815,untitled,2023.2.3,60.031973030312656,2023-12-13 19h04.52.040410 -0500,
8.0,"[-0.2, -0.1]",None,0.0,10.0,10.0,10.0,,,,,,,,,67.72934930000338,,,,,,,,,,,,,,,,,,,,,,,,,,,,67.7141877000031,67.72934930000338,67.72934930000338,68.22940290000406,68.22940290000406,70.72944890000508,70.72944890000508,70.71355620000395,None,1.0,,,,,,,,,,,,,,,,,,,,,,,,,,,,,,,,,,,,,,,,,,,,,nback25,1.0,2023-12-13_18h22.37.815,untitled,2023.2.3,60.031973030312656,2023-12-13 19h04.52.040410 -0500,
9.0,"[0.2, -0.1]",None,0.0,11.0,11.0,11.0,,,,,,,,,70.72944890000508,,,,,,,,,,,,,,,,,,,,,,,,,,,,70.71420670000225,70.72944890000508,70.72944890000508,71.22953000000416,71.22953000000416,73.7295163000017,73.7295163000017,73.71346890000132,None,1.0,,,,,,,,,,,,,,,,,,,,,,,,,,,,,,,,,,,,,,,,,,,,,nback25,1.0,2023-12-13_18h22.37.815,untitled,2023.2.3,60.031973030312656,2023-12-13 19h04.52.040410 -0500,
6.0,"[-0.3, 0]",None,0.0,12.0,12.0,12.0,,,,,,,,,73.7295163000017,,,,,,,,,,,,,,,,,,,,,,,,,,,,73.71405230000528,73.7295163000017,73.7295163000017,74.22944480000297,74.22944480000297,76.7291796999998,76.7291796999998,76.71352330000082,None,1.0,,,,,,,,,,,,,,,,,,,,,,,,,,,,,,,,,,,,,,,,,,,,,nback25,1.0,2023-12-13_18h22.37.815,untitled,2023.2.3,60.031973030312656,2023-12-13 19h04.52.040410 -0500,
9.0,"[0.2, -0.1]",None,0.0,13.0,13.0,13.0,,,,,,,,,76.7291796999998,,,,,,,,,,,,,,,,,,,,,,,,,,,,76.71411380000063,76.7291796999998,76.7291796999998,77.22928940000565,77.22928940000565,79.7292860000016,79.7292860000016,79.7134933999987,None,1.0,,,,,,,,,,,,,,,,,,,,,,,,,,,,,,,,,,,,,,,,,,,,,nback25,1.0,2023-12-13_18h22.37.815,untitled,2023.2.3,60.031973030312656,2023-12-13 19h04.52.040410 -0500,
7.0,"[0.3, 0]",None,0.0,14.0,14.0,14.0,,,,,,,,,79.7292860000016,,,,,,,,,,,,,,,,,,,,,,,,,,,,79.714178000002,79.7292860000016,79.7292860000016,80.22940550000203,80.22940550000203,82.72927000000345,82.72927000000345,82.71355659999972,None,1.0,,,,,,,,,,,,,,,,,,,,,,,,,,,,,,,,,,,,,,,,,,,,,nback25,1.0,2023-12-13_18h22.37.815,untitled,2023.2.3,60.031973030312656,2023-12-13 19h04.52.040410 -0500,
2.0,"[0.64, 0.4]",None,0.0,15.0,15.0,15.0,,,,,,,,,82.72927000000345,,,,,,,,,,,,,,,,,,,,,,,,,,,,82.71420580000267,82.72927000000345,82.72927000000345,83.22931610000524,83.22931610000524,85.7292574000021,85.7292574000021,85.71343290000368,None,1.0,,,,,,,,,,,,,,,,,,,,,,,,,,,,,,,,,,,,,,,,,,,,,nback25,1.0,2023-12-13_18h22.37.815,untitled,2023.2.3,60.031973030312656,2023-12-13 19h04.52.040410 -0500,
2.0,"[0.64, 0.4]",None,0.0,16.0,16.0,16.0,,,,,,,,,85.7292574000021,,,,,,,,,,,,,,,,,,,,,,,,,,,,85.71419140000216,85.7292574000021,85.7292574000021,86.22911290000047,86.22911290000047,88.72914519999904,88.72914519999904,88.71330300000409,None,1.0,,,,,,,,,,,,,,,,,,,,,,,,,,,,,,,,,,,,,,,,,,,,,nback25,1.0,2023-12-13_18h22.37.815,untitled,2023.2.3,60.031973030312656,2023-12-13 19h04.52.040410 -0500,
11.0,"[-0.64, -0.4]",space,0.0,17.0,17.0,17.0,,,,,,,,,88.72914519999904,,,,,,,,,,,,,,,,,,,,,,,,,,,,88.71397470000375,88.72914519999904,88.72914519999904,89.22922680000192,89.22922680000192,91.72907500000292,91.72907500000292,91.71343740000157,space,1.0,0.5176284000044689,None,,,,,,,,,,,,,,,,,,,,,,,,,,,,,,,,,,,,,,,,,,,nback25,1.0,2023-12-13_18h22.37.815,untitled,2023.2.3,60.031973030312656,2023-12-13 19h04.52.040410 -0500,
11.0,"[-0.64, -0.4]",space,0.0,18.0,18.0,18.0,,,,,,,,,91.72907500000292,,,,,,,,,,,,,,,,,,,,,,,,,,,,91.7142482000054,91.72907500000292,91.72907500000292,92.22926740000548,92.22926740000548,94.72903159999989,94.72903159999989,94.7134939000025,space,1.0,0.4994888000001083,None,,,,,,,,,,,,,,,,,,,,,,,,,,,,,,,,,,,,,,,,,,,nback25,1.0,2023-12-13_18h22.37.815,untitled,2023.2.3,60.031973030312656,2023-12-13 19h04.52.040410 -0500,
7.0,"[0.3, 0]",None,0.0,19.0,19.0,19.0,,,,,,,,,94.72903159999989,,,,,,,,,,,,,,,,,,,,,,,,,,,,94.71437000000152,94.72903159999989,94.72903159999989,95.22898330000316,95.22898330000316,97.7290948000009,97.7290948000009,97.71331530000316,None,1.0,,,,,,,,,,,,,,,,,,,,,,,,,,,,,,,,,,,,,,,,,,,,,nback25,1.0,2023-12-13_18h22.37.815,untitled,2023.2.3,60.031973030312656,2023-12-13 19h04.52.040410 -0500,
3.0,"[0, 0.2]",None,0.0,20.0,20.0,20.0,,,,,,,,,97.7290948000009,,,,,,,,,,,,,,,,,,,,,,,,,,,,97.7140029000002,97.7290948000009,97.7290948000009,98.22911849999946,98.22911849999946,100.72903249999943,100.72903249999943,100.71322570000484,None,1.0,,,,,,,,,,,,,,,,,,,,,,,,,,,,,,,,,,,,,,,,,,,,,nback25,1.0,2023-12-13_18h22.37.815,untitled,2023.2.3,60.031973030312656,2023-12-13 19h04.52.040410 -0500,
10.0,"[0, -0.2]",None,0.0,21.0,21.0,21.0,,,,,,,,,100.72903249999943,,,,,,,,,,,,,,,,,,,,,,,,,,,,100.7139590000006,100.72903249999943,100.72903249999943,101.2290811999992,101.2290811999992,103.72897400000512,103.72897400000512,103.71307499999966,None,1.0,,,,,,,,,,,,,,,,,,,,,,,,,,,,,,,,,,,,,,,,,,,,,nback25,1.0,2023-12-13_18h22.37.815,untitled,2023.2.3,60.031973030312656,2023-12-13 19h04.52.040410 -0500,
1.0,"[-0.64, 0.4]",None,0.0,22.0,22.0,22.0,,,,,,,,,103.72897400000512,,,,,,,,,,,,,,,,,,,,,,,,,,,,103.713743100001,103.72897400000512,103.72897400000512,104.2289982000002,104.2289982000002,106.72891350000282,106.72891350000282,106.71335810000164,None,1.0,,,,,,,,,,,,,,,,,,,,,,,,,,,,,,,,,,,,,,,,,,,,,nback25,1.0,2023-12-13_18h22.37.815,untitled,2023.2.3,60.031973030312656,2023-12-13 19h04.52.040410 -0500,
2.0,"[0.64, 0.4]",None,0.0,23.0,23.0,23.0,,,,,,,,,106.72891350000282,,,,,,,,,,,,,,,,,,,,,,,,,,,,106.71409080000012,106.72891350000282,106.72891350000282,107.22886170000127,107.22886170000127,109.72891430000163,109.72891430000163,109.713090199999,None,1.0,,,,,,,,,,,,,,,,,,,,,,,,,,,,,,,,,,,,,,,,,,,,,nback25,1.0,2023-12-13_18h22.37.815,untitled,2023.2.3,60.031973030312656,2023-12-13 19h04.52.040410 -0500,
6.0,"[-0.3, 0]",None,0.0,24.0,24.0,24.0,,,,,,,,,109.72891430000163,,,,,,,,,,,,,,,,,,,,,,,,,,,,109.71386429999984,109.72891430000163,109.72891430000163,110.22882039999968,110.22882039999968,112.72878109999874,112.72878109999874,112.7131137000033,None,1.0,,,,,,,,,,,,,,,,,,,,,,,,,,,,,,,,,,,,,,,,,,,,,nback25,1.0,2023-12-13_18h22.37.815,untitled,2023.2.3,60.031973030312656,2023-12-13 19h04.52.040410 -0500,
3.0,"[0, 0.2]",None,0.0,25.0,25.0,25.0,,,,,,,,,112.72878109999874,,,,,,,,,,,,,,,,,,,,,,,,,,,,112.7138438000038,112.72878109999874,112.72878109999874,113.22878440000204,113.22878440000204,115.72877090000112,115.72877090000112,115.7132369000028,None,1.0,,,,,,,,,,,,,,,,,,,,,,,,,,,,,,,,,,,,,,,,,,,,,nback25,1.0,2023-12-13_18h22.37.815,untitled,2023.2.3,60.031973030312656,2023-12-13 19h04.52.040410 -0500,
11.0,"[-0.64, -0.4]",space,0.0,26.0,26.0,26.0,,,,,,,,,115.72877090000112,,,,,,,,,,,,,,,,,,,,,,,,,,,,115.71400300000096,115.72877090000112,115.72877090000112,116.22861000000556,116.22861000000556,118.72846610000124,118.72846610000124,118.71321290000196,space,1.0,0.4921422999977949,None,,,,,,,,,,,,,,,,,,,,,,,,,,,,,,,,,,,,,,,,,,,nback25,1.0,2023-12-13_18h22.37.815,untitled,2023.2.3,60.031973030312656,2023-12-13 19h04.52.040410 -0500,
1.0,"[-0.64, 0.4]",None,0.0,27.0,27.0,27.0,,,,,,,,,118.72846610000124,,,,,,,,,,,,,,,,,,,,,,,,,,,,118.71434820000286,118.72846610000124,118.72846610000124,119.22871080000186,119.22871080000186,121.72866259999864,121.72866259999864,121.7131092999989,None,1.0,,,,,,,,,,,,,,,,,,,,,,,,,,,,,,,,,,,,,,,,,,,,,nback25,1.0,2023-12-13_18h22.37.815,untitled,2023.2.3,60.031973030312656,2023-12-13 19h04.52.040410 -0500,
3.0,"[0, 0.2]",None,0.0,28.0,28.0,28.0,,,,,,,,,121.72866259999864,,,,,,,,,,,,,,,,,,,,,,,,,,,,121.7139485000007,121.72866259999864,121.72866259999864,122.22871580000356,122.22871580000356,124.72854730000108,124.72854730000108,124.71303970000008,None,1.0,,,,,,,,,,,,,,,,,,,,,,,,,,,,,,,,,,,,,,,,,,,,,nback25,1.0,2023-12-13_18h22.37.815,untitled,2023.2.3,60.031973030312656,2023-12-13 19h04.52.040410 -0500,
9.0,"[0.2, -0.1]",None,0.0,29.0,29.0,29.0,,,,,,,,,124.72854730000108,,,,,,,,,,,,,,,,,,,,,,,,,,,,124.71384570000372,124.72854730000108,124.72854730000108,125.228661000001,125.228661000001,127.72851160000572,127.72851160000572,127.7128245000058,None,1.0,,,,,,,,,,,,,,,,,,,,,,,,,,,,,,,,,,,,,,,,,,,,,nback25,1.0,2023-12-13_18h22.37.815,untitled,2023.2.3,60.031973030312656,2023-12-13 19h04.52.040410 -0500,
8.0,"[-0.2, -0.1]",None,0.0,30.0,30.0,30.0,,,,,,,,,127.72851160000572,,,,,,,,,,,,,,,,,,,,,,,,,,,,127.71358500000495,127.72851160000572,127.72851160000572,128.22824160000164,128.22824160000164,130.72859790000075,130.72859790000075,130.7128273999988,None,1.0,,,,,,,,,,,,,,,,,,,,,,,,,,,,,,,,,,,,,,,,,,,,,nback25,1.0,2023-12-13_18h22.37.815,untitled,2023.2.3,60.031973030312656,2023-12-13 19h04.52.040410 -0500,
12.0,"[0.64, -0.4]",None,0.0,31.0,31.0,31.0,,,,,,,,,130.72859790000075,,,,,,,,,,,,,,,,,,,,,,,,,,,,130.71352050000132,130.72859790000075,130.72859790000075,131.22836030000326,131.22836030000326,133.72845000000234,133.72845000000234,133.71275210000022,None,1.0,,,,,,,,,,,,,,,,,,,,,,,,,,,,,,,,,,,,,,,,,,,,,nback25,1.0,2023-12-13_18h22.37.815,untitled,2023.2.3,60.031973030312656,2023-12-13 19h04.52.040410 -0500,
9.0,"[0.2, -0.1]",None,0.0,32.0,32.0,32.0,,,,,,,,,133.72845000000234,,,,,,,,,,,,,,,,,,,,,,,,,,,,133.7134931000037,133.72845000000234,133.72845000000234,134.2283682999987,134.2283682999987,136.72854070000176,136.72854070000176,136.71247910000238,None,1.0,,,,,,,,,,,,,,,,,,,,,,,,,,,,,,,,,,,,,,,,,,,,,nback25,1.0,2023-12-13_18h22.37.815,untitled,2023.2.3,60.031973030312656,2023-12-13 19h04.52.040410 -0500,
11.0,"[-0.64, -0.4]",space,0.0,33.0,33.0,33.0,,,,,,,,,136.72854070000176,,,,,,,,,,,,,,,,,,,,,,,,,,,,136.71312860000037,136.72854070000176,136.72854070000176,137.22826410000562,137.22826410000562,139.72855040000286,139.72855040000286,139.7125384000028,space,1.0,0.4480011999985436,None,,,,,,,,,,,,,,,,,,,,,,,,,,,,,,,,,,,,,,,,,,,nback25,1.0,2023-12-13_18h22.37.815,untitled,2023.2.3,60.031973030312656,2023-12-13 19h04.52.040410 -0500,
7.0,"[0.3, 0]",None,0.0,34.0,34.0,34.0,,,,,,,,,139.72855040000286,,,,,,,,,,,,,,,,,,,,,,,,,,,,139.7133513000008,139.72855040000286,139.72855040000286,140.22826730000088,140.22826730000088,142.72843080000166,142.72843080000166,142.7126916000052,None,1.0,,,,,,,,,,,,,,,,,,,,,,,,,,,,,,,,,,,,,,,,,,,,,nback25,1.0,2023-12-13_18h22.37.815,untitled,2023.2.3,60.031973030312656,2023-12-13 19h04.52.040410 -0500,
11.0,"[-0.64, -0.4]",space,0.0,35.0,35.0,35.0,,,,,,,,,142.72843080000166,,,,,,,,,,,,,,,,,,,,,,,,,,,,142.7134772999998,142.72843080000166,142.72843080000166,143.22825550000562,143.22825550000562,145.72827320000215,145.72827320000215,145.71269490000122,space,1.0,0.4596321999997599,None,,,,,,,,,,,,,,,,,,,,,,,,,,,,,,,,,,,,,,,,,,,nback25,1.0,2023-12-13_18h22.37.815,untitled,2023.2.3,60.031973030312656,2023-12-13 19h04.52.040410 -0500,
4.0,"[-0.2, 0.1]",None,0.0,36.0,36.0,36.0,,,,,,,,,145.72827320000215,,,,,,,,,,,,,,,,,,,,,,,,,,,,145.7136554000026,145.72827320000215,145.72827320000215,146.22817439999926,146.22817439999926,148.7281396000035,148.7281396000035,148.71222259999922,None,1.0,,,,,,,,,,,,,,,,,,,,,,,,,,,,,,,,,,,,,,,,,,,,,nback25,1.0,2023-12-13_18h22.37.815,untitled,2023.2.3,60.031973030312656,2023-12-13 19h04.52.040410 -0500,
5.0,"[0.2, 0.1]",None,0.0,37.0,37.0,37.0,,,,,,,,,148.7281396000035,,,,,,,,,,,,,,,,,,,,,,,,,,,,148.71289429999888,148.7281396000035,148.7281396000035,149.2281535000002,149.2281535000002,151.72808140000416,151.72808140000416,151.71225060000145,None,1.0,,,,,,,,,,,,,,,,,,,,,,,,,,,,,,,,,,,,,,,,,,,,,nback25,1.0,2023-12-13_18h22.37.815,untitled,2023.2.3,60.031973030312656,2023-12-13 19h04.52.040410 -0500,
6.0,"[-0.3, 0]",None,0.0,38.0,38.0,38.0,,,,,,,,,151.72808140000416,,,,,,,,,,,,,,,,,,,,,,,,,,,,151.71294730000227,151.72808140000416,151.72808140000416,152.22790750000422,152.22790750000422,154.7280905000007,154.7280905000007,154.71240400000534,None,1.0,,,,,,,,,,,,,,,,,,,,,,,,,,,,,,,,,,,,,,,,,,,,,nback25,1.0,2023-12-13_18h22.37.815,untitled,2023.2.3,60.031973030312656,2023-12-13 19h04.52.040410 -0500,
11.0,"[-0.64, -0.4]",space,0.0,39.0,39.0,39.0,,,,,,,,,154.7280905000007,,,,,,,,,,,,,,,,,,,,,,,,,,,,154.71313850000297,154.7280905000007,154.7280905000007,155.2281951000041,155.2281951000041,157.7281951000041,157.7281951000041,157.7123930000016,space,1.0,0.3365412999992259,None,,,,,,,,,,,,,,,,,,,,,,,,,,,,,,,,,,,,,,,,,,,nback25,1.0,2023-12-13_18h22.37.815,untitled,2023.2.3,60.031973030312656,2023-12-13 19h04.52.040410 -0500,
,,,,,,,,,,,,,,,,,,,,,,,,,,,,,,,,,,,,,,,,,,,,,,,,,,,,,,,157.71307040000102,157.7281951000041,157.7281951000041,169.8961347000004,space,12.154051600002276,None,,,,,,,,,,,,,,,,,,,,,,,,,,,,,,,,,,,,nback25,1.0,2023-12-13_18h22.37.815,untitled,2023.2.3,60.031973030312656,2023-12-13 19h04.52.040410 -0500,
10.0,"[0, -0.2]",None,,,,,0.0,0.0,0.0,0.0,,,,,170.9111527999994,,,,,,,,,,,,,,,,,,,,,,,,169.89617859999998,169.91126760000043,170.9111527999994,170.89532510000572,,,,,,,,,,,,,,,,,,,,170.90445460000046,170.9111527999994,170.9111527999994,171.41133909999917,171.41133909999917,173.91109919999872,173.91109919999872,173.89531960000022,None,1.0,,,,,,,,,,,,,,,,,,,,,,,,,,nback25,1.0,2023-12-13_18h22.37.815,untitled,2023.2.3,60.031973030312656,2023-12-13 19h04.52.040410 -0500,
5.0,"[0.2, 0.1]",None,,,,,0.0,1.0,1.0,1.0,,,,,173.91109919999872,,,,,,,,,,,,,,,,,,,,,,,,,,,,,,,,,,,,,,,,,,,,,,,173.89617849999922,173.91109919999872,173.91109919999872,174.4111869000044,174.4111869000044,176.91108420000091,176.91108420000091,176.89510990000417,None,1.0,,,,,,,,,,,,,,,,,,,,,,,,,,nback25,1.0,2023-12-13_18h22.37.815,untitled,2023.2.3,60.031973030312656,2023-12-13 19h04.52.040410 -0500,
6.0,"[-0.3, 0]",None,,,,,0.0,2.0,2.0,2.0,,,,,176.91108420000091,,,,,,,,,,,,,,,,,,,,,,,,,,,,,,,,,,,,,,,,,,,,,,,176.8957847999991,176.91108420000091,176.91108420000091,177.4112322000001,177.4112322000001,179.91111320000346,179.91111320000346,179.89531510000234,None,1.0,,,,,,,,,,,,,,,,,,,,,,,,,,nback25,1.0,2023-12-13_18h22.37.815,untitled,2023.2.3,60.031973030312656,2023-12-13 19h04.52.040410 -0500,
6.0,"[-0.3, 0]",space,,,,,0.0,3.0,3.0,3.0,,,,,179.91111320000346,,,,,,,,,,,,,,,,,,,,,,,,,,,,,,,,,,,,,,,,,,,,,,,179.89601380000386,179.91111320000346,179.91111320000346,180.4111355999994,180.4111355999994,182.91094290000183,182.91094290000183,182.8950708000048,space,1.0,0.6004089000052772,None,,,,,,,,,,,,,,,,,,,,,,,,nback25,1.0,2023-12-13_18h22.37.815,untitled,2023.2.3,60.031973030312656,2023-12-13 19h04.52.040410 -0500,
12.0,"[0.64, -0.4]",None,,,,,0.0,4.0,4.0,4.0,,,,,182.91094290000183,,,,,,,,,,,,,,,,,,,,,,,,,,,,,,,,,,,,,,,,,,,,,,,182.89608710000172,182.91094290000183,182.91094290000183,183.41120429999864,183.41120429999864,185.91083100000105,185.91083100000105,185.8950171000033,None,1.0,,,,,,,,,,,,,,,,,,,,,,,,,,nback25,1.0,2023-12-13_18h22.37.815,untitled,2023.2.3,60.031973030312656,2023-12-13 19h04.52.040410 -0500,
10.0,"[0, -0.2]",None,,,,,0.0,5.0,5.0,5.0,,,,,185.91083100000105,,,,,,,,,,,,,,,,,,,,,,,,,,,,,,,,,,,,,,,,,,,,,,,185.8956177,185.91083100000105,185.91083100000105,186.4108443000005,186.4108443000005,188.9107736000005,188.9107736000005,188.89496209999925,None,1.0,,,,,,,,,,,,,,,,,,,,,,,,,,nback25,1.0,2023-12-13_18h22.37.815,untitled,2023.2.3,60.031973030312656,2023-12-13 19h04.52.040410 -0500,
2.0,"[0.64, 0.4]",None,,,,,0.0,6.0,6.0,6.0,,,,,188.9107736000005,,,,,,,,,,,,,,,,,,,,,,,,,,,,,,,,,,,,,,,,,,,,,,,188.8955394000004,188.9107736000005,188.9107736000005,189.4108522000024,189.4108522000024,191.91094470000095,191.91094470000095,191.89498170000297,None,1.0,,,,,,,,,,,,,,,,,,,,,,,,,,nback25,1.0,2023-12-13_18h22.37.815,untitled,2023.2.3,60.031973030312656,2023-12-13 19h04.52.040410 -0500,
9.0,"[0.2, -0.1]",None,,,,,0.0,7.0,7.0,7.0,,,,,191.91094470000095,,,,,,,,,,,,,,,,,,,,,,,,,,,,,,,,,,,,,,,,,,,,,,,191.8956107000049,191.91094470000095,191.91094470000095,192.41087849999892,192.41087849999892,194.9109555000032,194.9109555000032,194.8949872000012,None,1.0,,,,,,,,,,,,,,,,,,,,,,,,,,nback25,1.0,2023-12-13_18h22.37.815,untitled,2023.2.3,60.031973030312656,2023-12-13 19h04.52.040410 -0500,
9.0,"[0.2, -0.1]",space,,,,,0.0,8.0,8.0,8.0,,,,,194.9109555000032,,,,,,,,,,,,,,,,,,,,,,,,,,,,,,,,,,,,,,,,,,,,,,,194.89566810000545,194.9109555000032,194.9109555000032,195.41091760000563,195.41091760000563,197.91072220000208,197.91072220000208,197.89446580000367,space,1.0,0.4140740000002552,None,,,,,,,,,,,,,,,,,,,,,,,,nback25,1.0,2023-12-13_18h22.37.815,untitled,2023.2.3,60.031973030312656,2023-12-13 19h04.52.040410 -0500,
6.0,"[-0.3, 0]",None,,,,,0.0,9.0,9.0,9.0,,,,,197.91072220000208,,,,,,,,,,,,,,,,,,,,,,,,,,,,,,,,,,,,,,,,,,,,,,,197.89484380000067,197.91072220000208,197.91072220000208,198.41044659999895,198.41044659999895,200.91077930000029,200.91077930000029,200.89465349999955,None,1.0,,,,,,,,,,,,,,,,,,,,,,,,,,nback25,1.0,2023-12-13_18h22.37.815,untitled,2023.2.3,60.031973030312656,2023-12-13 19h04.52.040410 -0500,
11.0,"[-0.64, -0.4]",None,,,,,0.0,10.0,10.0,10.0,,,,,200.91077930000029,,,,,,,,,,,,,,,,,,,,,,,,,,,,,,,,,,,,,,,,,,,,,,,200.8952752000041,200.91077930000029,200.91077930000029,201.41056020000545,201.41056020000545,203.91056599999865,203.91056599999865,203.8946861000004,None,1.0,,,,,,,,,,,,,,,,,,,,,,,,,,nback25,1.0,2023-12-13_18h22.37.815,untitled,2023.2.3,60.031973030312656,2023-12-13 19h04.52.040410 -0500,
11.0,"[-0.64, -0.4]",space,,,,,0.0,11.0,11.0,11.0,,,,,203.91056599999865,,,,,,,,,,,,,,,,,,,,,,,,,,,,,,,,,,,,,,,,,,,,,,,203.8952258999998,203.91056599999865,203.91056599999865,204.4106027000016,204.4106027000016,206.91043340000036,206.91043340000036,206.89457470000343,space,1.0,0.4231375000017578,None,,,,,,,,,,,,,,,,,,,,,,,,nback25,1.0,2023-12-13_18h22.37.815,untitled,2023.2.3,60.031973030312656,2023-12-13 19h04.52.040410 -0500,
4.0,"[-0.2, 0.1]",None,,,,,0.0,12.0,12.0,12.0,,,,,206.91043340000036,,,,,,,,,,,,,,,,,,,,,,,,,,,,,,,,,,,,,,,,,,,,,,,206.8952726999996,206.91043340000036,206.91043340000036,207.4106230000034,207.4106230000034,209.9105772000039,209.9105772000039,209.8947128,None,1.0,,,,,,,,,,,,,,,,,,,,,,,,,,nback25,1.0,2023-12-13_18h22.37.815,untitled,2023.2.3,60.031973030312656,2023-12-13 19h04.52.040410 -0500,
3.0,"[0, 0.2]",None,,,,,0.0,13.0,13.0,13.0,,,,,209.9105772000039,,,,,,,,,,,,,,,,,,,,,,,,,,,,,,,,,,,,,,,,,,,,,,,209.8954365000027,209.9105772000039,209.9105772000039,210.41051130000412,210.41051130000412,212.91029569999955,212.91029569999955,212.8944325000048,None,1.0,,,,,,,,,,,,,,,,,,,,,,,,,,nback25,1.0,2023-12-13_18h22.37.815,untitled,2023.2.3,60.031973030312656,2023-12-13 19h04.52.040410 -0500,
3.0,"[0, 0.2]",space,,,,,0.0,14.0,14.0,14.0,,,,,212.91029569999955,,,,,,,,,,,,,,,,,,,,,,,,,,,,,,,,,,,,,,,,,,,,,,,212.8950164000053,212.91029569999955,212.91029569999955,213.4106910000046,213.4106910000046,215.91039940000337,215.91039940000337,215.89398150000488,space,1.0,0.63843579999957,None,,,,,,,,,,,,,,,,,,,,,,,,nback25,1.0,2023-12-13_18h22.37.815,untitled,2023.2.3,60.031973030312656,2023-12-13 19h04.52.040410 -0500,
8.0,"[-0.2, -0.1]",None,,,,,0.0,15.0,15.0,15.0,,,,,215.91039940000337,,,,,,,,,,,,,,,,,,,,,,,,,,,,,,,,,,,,,,,,,,,,,,,215.8943839999993,215.91039940000337,215.91039940000337,216.4106347000052,216.4106347000052,218.91024270000344,218.91024270000344,218.8944838000025,None,1.0,,,,,,,,,,,,,,,,,,,,,,,,,,nback25,1.0,2023-12-13_18h22.37.815,untitled,2023.2.3,60.031973030312656,2023-12-13 19h04.52.040410 -0500,
1.0,"[-0.64, 0.4]",None,,,,,0.0,16.0,16.0,16.0,,,,,218.91024270000344,,,,,,,,,,,,,,,,,,,,,,,,,,,,,,,,,,,,,,,,,,,,,,,218.8951698000019,218.91024270000344,218.91024270000344,219.41033489999973,219.41033489999973,221.91013620000007,221.91013620000007,221.8942023999989,None,1.0,,,,,,,,,,,,,,,,,,,,,,,,,,nback25,1.0,2023-12-13_18h22.37.815,untitled,2023.2.3,60.031973030312656,2023-12-13 19h04.52.040410 -0500,
2.0,"[0.64, 0.4]",None,,,,,0.0,17.0,17.0,17.0,,,,,221.91013620000007,,,,,,,,,,,,,,,,,,,,,,,,,,,,,,,,,,,,,,,,,,,,,,,221.8947418000025,221.91013620000007,221.91013620000007,222.4103157999998,222.4103157999998,224.91051639999927,224.91051639999927,224.89449389999936,None,1.0,,,,,,,,,,,,,,,,,,,,,,,,,,nback25,1.0,2023-12-13_18h22.37.815,untitled,2023.2.3,60.031973030312656,2023-12-13 19h04.52.040410 -0500,
4.0,"[-0.2, 0.1]",None,,,,,0.0,18.0,18.0,18.0,,,,,224.91051639999927,,,,,,,,,,,,,,,,,,,,,,,,,,,,,,,,,,,,,,,,,,,,,,,224.8952019999997,224.91051639999927,224.91051639999927,225.41021110000293,225.41021110000293,227.9101563000004,227.9101563000004,227.89434660000552,None,1.0,,,,,,,,,,,,,,,,,,,,,,,,,,nback25,1.0,2023-12-13_18h22.37.815,untitled,2023.2.3,60.031973030312656,2023-12-13 19h04.52.040410 -0500,
4.0,"[-0.2, 0.1]",space,,,,,0.0,19.0,19.0,19.0,,,,,227.9101563000004,,,,,,,,,,,,,,,,,,,,,,,,,,,,,,,,,,,,,,,,,,,,,,,227.89511520000087,227.9101563000004,227.9101563000004,228.41021900000487,228.41021900000487,230.910206200002,230.910206200002,230.8942896000008,space,1.0,0.3894313999990118,None,,,,,,,,,,,,,,,,,,,,,,,,nback25,1.0,2023-12-13_18h22.37.815,untitled,2023.2.3,60.031973030312656,2023-12-13 19h04.52.040410 -0500,
8.0,"[-0.2, -0.1]",None,,,,,0.0,20.0,20.0,20.0,,,,,230.910206200002,,,,,,,,,,,,,,,,,,,,,,,,,,,,,,,,,,,,,,,,,,,,,,,230.89513029999944,230.910206200002,230.910206200002,231.4101665000053,231.4101665000053,233.91000440000064,233.91000440000064,233.8942845000056,None,1.0,,,,,,,,,,,,,,,,,,,,,,,,,,nback25,1.0,2023-12-13_18h22.37.815,untitled,2023.2.3,60.031973030312656,2023-12-13 19h04.52.040410 -0500,
5.0,"[0.2, 0.1]",None,,,,,0.0,21.0,21.0,21.0,,,,,233.91000440000064,,,,,,,,,,,,,,,,,,,,,,,,,,,,,,,,,,,,,,,,,,,,,,,233.89499790000264,233.91000440000064,233.91000440000064,234.4100849000024,234.4100849000024,236.9100116000045,236.9100116000045,236.8940406000038,None,1.0,,,,,,,,,,,,,,,,,,,,,,,,,,nback25,1.0,2023-12-13_18h22.37.815,untitled,2023.2.3,60.031973030312656,2023-12-13 19h04.52.040410 -0500,
5.0,"[0.2, 0.1]",space,,,,,0.0,22.0,22.0,22.0,,,,,236.9100116000045,,,,,,,,,,,,,,,,,,,,,,,,,,,,,,,,,,,,,,,,,,,,,,,236.89466019999963,236.9100116000045,236.9100116000045,237.4101643000031,237.4101643000031,239.9100741000002,239.9100741000002,239.8944296000045,space,1.0,0.538723999998183,None,,,,,,,,,,,,,,,,,,,,,,,,nback25,1.0,2023-12-13_18h22.37.815,untitled,2023.2.3,60.031973030312656,2023-12-13 19h04.52.040410 -0500,
1.0,"[-0.64, 0.4]",None,,,,,0.0,23.0,23.0,23.0,,,,,239.9100741000002,,,,,,,,,,,,,,,,,,,,,,,,,,,,,,,,,,,,,,,,,,,,,,,239.8953760000004,239.9100741000002,239.9100741000002,240.41018550000445,240.41018550000445,242.91007760000505,242.91007760000505,242.8941952000023,None,1.0,,,,,,,,,,,,,,,,,,,,,,,,,,nback25,1.0,2023-12-13_18h22.37.815,untitled,2023.2.3,60.031973030312656,2023-12-13 19h04.52.040410 -0500,
3.0,"[0, 0.2]",None,,,,,0.0,24.0,24.0,24.0,,,,,242.91007760000505,,,,,,,,,,,,,,,,,,,,,,,,,,,,,,,,,,,,,,,,,,,,,,,242.89488290000008,242.91007760000505,242.91007760000505,243.4100297000041,243.4100297000041,245.9100669000036,245.9100669000036,245.89415420000296,None,1.0,,,,,,,,,,,,,,,,,,,,,,,,,,nback25,1.0,2023-12-13_18h22.37.815,untitled,2023.2.3,60.031973030312656,2023-12-13 19h04.52.040410 -0500,
6.0,"[-0.3, 0]",None,,,,,0.0,25.0,25.0,25.0,,,,,245.9100669000036,,,,,,,,,,,,,,,,,,,,,,,,,,,,,,,,,,,,,,,,,,,,,,,245.8948154000027,245.9100669000036,245.9100669000036,246.4099325999996,246.4099325999996,248.90980860000127,248.90980860000127,248.8940825000027,None,1.0,,,,,,,,,,,,,,,,,,,,,,,,,,nback25,1.0,2023-12-13_18h22.37.815,untitled,2023.2.3,60.031973030312656,2023-12-13 19h04.52.040410 -0500,
1.0,"[-0.64, 0.4]",None,,,,,0.0,26.0,26.0,26.0,,,,,248.90980860000127,,,,,,,,,,,,,,,,,,,,,,,,,,,,,,,,,,,,,,,,,,,,,,,248.8946988000025,248.90980860000127,248.90980860000127,249.40986749999863,249.40986749999863,251.90979869999865,251.90979869999865,251.8937007000059,None,1.0,,,,,,,,,,,,,,,,,,,,,,,,,,nback25,1.0,2023-12-13_18h22.37.815,untitled,2023.2.3,60.031973030312656,2023-12-13 19h04.52.040410 -0500,
1.0,"[-0.64, 0.4]",space,,,,,0.0,27.0,27.0,27.0,,,,,251.90979869999865,,,,,,,,,,,,,,,,,,,,,,,,,,,,,,,,,,,,,,,,,,,,,,,251.89422950000156,251.90979869999865,251.90979869999865,252.4098879000012,252.4098879000012,254.90966150000168,254.90966150000168,254.8942532000001,space,1.0,0.6560853999981191,None,,,,,,,,,,,,,,,,,,,,,,,,nback25,1.0,2023-12-13_18h22.37.815,untitled,2023.2.3,60.031973030312656,2023-12-13 19h04.52.040410 -0500,
1.0,"[-0.64, 0.4]",space,,,,,0.0,28.0,28.0,28.0,,,,,254.90966150000168,,,,,,,,,,,,,,,,,,,,,,,,,,,,,,,,,,,,,,,,,,,,,,,254.8950377000001,254.90966150000168,254.90966150000168,255.40972290000357,255.40972290000357,257.90970709999965,257.90970709999965,257.89383900000394,space,1.0,0.8016962999972748,None,,,,,,,,,,,,,,,,,,,,,,,,nback25,1.0,2023-12-13_18h22.37.815,untitled,2023.2.3,60.031973030312656,2023-12-13 19h04.52.040410 -0500,
3.0,"[0, 0.2]",None,,,,,0.0,29.0,29.0,29.0,,,,,257.90970709999965,,,,,,,,,,,,,,,,,,,,,,,,,,,,,,,,,,,,,,,,,,,,,,,257.89458240000386,257.90970709999965,257.90970709999965,258.409793800005,258.409793800005,260.90968789999897,260.90968789999897,260.8942790000001,None,1.0,,,,,,,,,,,,,,,,,,,,,,,,,,nback25,1.0,2023-12-13_18h22.37.815,untitled,2023.2.3,60.031973030312656,2023-12-13 19h04.52.040410 -0500,
12.0,"[0.64, -0.4]",None,,,,,0.0,30.0,30.0,30.0,,,,,260.90968789999897,,,,,,,,,,,,,,,,,,,,,,,,,,,,,,,,,,,,,,,,,,,,,,,260.89513830000215,260.90968789999897,260.90968789999897,261.40969510000286,261.40969510000286,263.9095688000016,263.9095688000016,263.8936299000052,None,1.0,,,,,,,,,,,,,,,,,,,,,,,,,,nback25,1.0,2023-12-13_18h22.37.815,untitled,2023.2.3,60.031973030312656,2023-12-13 19h04.52.040410 -0500,
12.0,"[0.64, -0.4]",space,,,,,0.0,31.0,31.0,31.0,,,,,263.9095688000016,,,,,,,,,,,,,,,,,,,,,,,,,,,,,,,,,,,,,,,,,,,,,,,263.89429790000577,263.9095688000016,263.9095688000016,264.40974460000143,264.40974460000143,266.9094624999998,266.9094624999998,266.89367330000096,space,1.0,0.5646353999982239,None,,,,,,,,,,,,,,,,,,,,,,,,nback25,1.0,2023-12-13_18h22.37.815,untitled,2023.2.3,60.031973030312656,2023-12-13 19h04.52.040410 -0500,
2.0,"[0.64, 0.4]",None,,,,,0.0,32.0,32.0,32.0,,,,,266.9094624999998,,,,,,,,,,,,,,,,,,,,,,,,,,,,,,,,,,,,,,,,,,,,,,,266.89444920000096,266.9094624999998,266.9094624999998,267.40953920000175,267.40953920000175,269.9096991000042,269.9096991000042,269.89398500000243,None,1.0,,,,,,,,,,,,,,,,,,,,,,,,,,nback25,1.0,2023-12-13_18h22.37.815,untitled,2023.2.3,60.031973030312656,2023-12-13 19h04.52.040410 -0500,
1.0,"[-0.64, 0.4]",None,,,,,0.0,33.0,33.0,33.0,,,,,269.9096991000042,,,,,,,,,,,,,,,,,,,,,,,,,,,,,,,,,,,,,,,,,,,,,,,269.89487799999915,269.9096991000042,269.9096991000042,270.40948919999937,270.40948919999937,272.9094374000051,272.9094374000051,272.89369409999927,None,1.0,,,,,,,,,,,,,,,,,,,,,,,,,,nback25,1.0,2023-12-13_18h22.37.815,untitled,2023.2.3,60.031973030312656,2023-12-13 19h04.52.040410 -0500,
7.0,"[0.3, 0]",None,,,,,0.0,34.0,34.0,34.0,,,,,272.9094374000051,,,,,,,,,,,,,,,,,,,,,,,,,,,,,,,,,,,,,,,,,,,,,,,272.8943995000009,272.9094374000051,272.9094374000051,273.409533500002,273.409533500002,275.9093706999993,275.9093706999993,275.89304950000223,None,1.0,,,,,,,,,,,,,,,,,,,,,,,,,,nback25,1.0,2023-12-13_18h22.37.815,untitled,2023.2.3,60.031973030312656,2023-12-13 19h04.52.040410 -0500,
7.0,"[0.3, 0]",space,,,,,0.0,35.0,35.0,35.0,,,,,275.9093706999993,,,,,,,,,,,,,,,,,,,,,,,,,,,,,,,,,,,,,,,,,,,,,,,275.89339050000126,275.9093706999993,275.9093706999993,276.4096085000056,276.4096085000056,278.9094530000002,278.9094530000002,278.893419,space,1.0,0.3664217999976245,None,,,,,,,,,,,,,,,,,,,,,,,,nback25,1.0,2023-12-13_18h22.37.815,untitled,2023.2.3,60.031973030312656,2023-12-13 19h04.52.040410 -0500,
11.0,"[-0.64, -0.4]",None,,,,,0.0,36.0,36.0,36.0,,,,,278.9094530000002,,,,,,,,,,,,,,,,,,,,,,,,,,,,,,,,,,,,,,,,,,,,,,,278.89409590000287,278.9094530000002,278.9094530000002,279.40939459999936,279.40939459999936,281.9092941000053,281.9092941000053,281.89371270000265,None,1.0,,,,,,,,,,,,,,,,,,,,,,,,,,nback25,1.0,2023-12-13_18h22.37.815,untitled,2023.2.3,60.031973030312656,2023-12-13 19h04.52.040410 -0500,
2.0,"[0.64, 0.4]",None,,,,,0.0,37.0,37.0,37.0,,,,,281.9092941000053,,,,,,,,,,,,,,,,,,,,,,,,,,,,,,,,,,,,,,,,,,,,,,,281.89468240000133,281.9092941000053,281.9092941000053,282.40954359999887,282.40954359999887,284.90916400000424,284.90916400000424,284.893441500004,None,1.0,,,,,,,,,,,,,,,,,,,,,,,,,,nback25,1.0,2023-12-13_18h22.37.815,untitled,2023.2.3,60.031973030312656,2023-12-13 19h04.52.040410 -0500,
6.0,"[-0.3, 0]",None,,,,,0.0,38.0,38.0,38.0,,,,,284.90916400000424,,,,,,,,,,,,,,,,,,,,,,,,,,,,,,,,,,,,,,,,,,,,,,,284.89406070000405,284.90916400000424,284.90916400000424,285.4094108999998,285.4094108999998,287.90924449999875,287.90924449999875,287.8934303999995,None,1.0,,,,,,,,,,,,,,,,,,,,,,,,,,nback25,1.0,2023-12-13_18h22.37.815,untitled,2023.2.3,60.031973030312656,2023-12-13 19h04.52.040410 -0500,
10.0,"[0, -0.2]",None,,,,,0.0,39.0,39.0,39.0,,,,,287.90924449999875,,,,,,,,,,,,,,,,,,,,,,,,,,,,,,,,,,,,,,,,,,,,,,,287.8941563000044,287.90924449999875,287.90924449999875,288.40931360000104,288.40931360000104,290.909264599999,290.909264599999,290.8932752000037,None,1.0,,,,,,,,,,,,,,,,,,,,,,,,,,nback25,1.0,2023-12-13_18h22.37.815,untitled,2023.2.3,60.031973030312656,2023-12-13 19h04.52.040410 -0500,
,,,,,,,,,,,,,,,,,,,,,,,,,,,,,,,,,,,,,,,,,,,,,,,,,,,,,,,,,,,,,,,,,,,,,,,,,,290.89375490000384,290.909264599999,290.909264599999,306.34449049999967,space,15.433632100000978,None,,,,,,,,,,,,,,,,,nback25,1.0,2023-12-13_18h22.37.815,untitled,2023.2.3,60.031973030312656,2023-12-13 19h04.52.040410 -0500,
,"[0.2, 0.1]",None,,,,,,,,,0.0,0.0,0.0,0.0,307.35863280000194,,,,,,,,,,,,,,,,,,,,,,,,306.3445321000036,306.35895059999893,307.35863280000194,307.3432440000033,,,,,,,,,,,,,,,,,,,,,,,,,,,,,,,,,,,,,,,307.3555090000009,307.35863280000194,307.35863280000194,307.85899540000537,307.85899540000537,310.3589445000034,310.3589445000034,310.3431421999994,None,1.0,,,,,,,nback25,1.0,2023-12-13_18h22.37.815,untitled,2023.2.3,60.031973030312656,2023-12-13 19h04.52.040410 -0500,
,"[0.64, 0.4]",None,,,,,,,,,0.0,1.0,1.0,1.0,310.3589445000034,,,,,,,,,,,,,,,,,,,,,,,,,,,,,,,,,,,,,,,,,,,,,,,,,,,,,,,,,,,,,,,,,,310.34415340000123,310.3589445000034,310.3589445000034,310.8590041999996,310.8590041999996,313.3586832000001,313.3586832000001,313.3428356000004,None,1.0,,,,,,,nback25,1.0,2023-12-13_18h22.37.815,untitled,2023.2.3,60.031973030312656,2023-12-13 19h04.52.040410 -0500,
,"[-0.3, 0]",None,,,,,,,,,0.0,2.0,2.0,2.0,313.3586832000001,,,,,,,,,,,,,,,,,,,,,,,,,,,,,,,,,,,,,,,,,,,,,,,,,,,,,,,,,,,,,,,,,,313.34344989999954,313.3586832000001,313.3586832000001,313.85896190000494,313.85896190000494,316.3588708000025,316.3588708000025,316.3428161000047,None,1.0,,,,,,,nback25,1.0,2023-12-13_18h22.37.815,untitled,2023.2.3,60.031973030312656,2023-12-13 19h04.52.040410 -0500,
,"[0.2, -0.1]",None,,,,,,,,,0.0,3.0,3.0,3.0,316.3588708000025,,,,,,,,,,,,,,,,,,,,,,,,,,,,,,,,,,,,,,,,,,,,,,,,,,,,,,,,,,,,,,,,,,316.34347210000124,316.3588708000025,316.3588708000025,316.85868850000406,316.85868850000406,319.3586712000033,319.3586712000033,319.3426829000018,None,1.0,,,,,,,nback25,1.0,2023-12-13_18h22.37.815,untitled,2023.2.3,60.031973030312656,2023-12-13 19h04.52.040410 -0500,
,"[0, 0.2]",None,,,,,,,,,0.0,4.0,4.0,4.0,319.3586712000033,,,,,,,,,,,,,,,,,,,,,,,,,,,,,,,,,,,,,,,,,,,,,,,,,,,,,,,,,,,,,,,,,,319.34325230000104,319.3586712000033,319.3586712000033,319.85882349999883,319.85882349999883,322.35858949999965,322.35858949999965,322.3428561000037,None,1.0,,,,,,,nback25,1.0,2023-12-13_18h22.37.815,untitled,2023.2.3,60.031973030312656,2023-12-13 19h04.52.040410 -0500,
,"[0.2, -0.1]",space,,,,,,,,,0.0,5.0,5.0,5.0,322.35858949999965,,,,,,,,,,,,,,,,,,,,,,,,,,,,,,,,,,,,,,,,,,,,,,,,,,,,,,,,,,,,,,,,,,322.3434828000027,322.35858949999965,322.35858949999965,322.85868130000017,322.85868130000017,325.35858920000464,325.35858920000464,325.3427118000036,space,1.0,1.262696199999482,None,,,,,nback25,1.0,2023-12-13_18h22.37.815,untitled,2023.2.3,60.031973030312656,2023-12-13 19h04.52.040410 -0500,
,"[0, -0.2]",None,,,,,,,,,0.0,6.0,6.0,6.0,325.35858920000464,,,,,,,,,,,,,,,,,,,,,,,,,,,,,,,,,,,,,,,,,,,,,,,,,,,,,,,,,,,,,,,,,,325.3436714999989,325.35858920000464,325.35858920000464,325.8587126000057,325.8587126000057,328.3585897000012,328.3585897000012,328.34290670000337,None,1.0,,,,,,,nback25,1.0,2023-12-13_18h22.37.815,untitled,2023.2.3,60.031973030312656,2023-12-13 19h04.52.040410 -0500,
,"[0.64, -0.4]",None,,,,,,,,,0.0,7.0,7.0,7.0,328.3585897000012,,,,,,,,,,,,,,,,,,,,,,,,,,,,,,,,,,,,,,,,,,,,,,,,,,,,,,,,,,,,,,,,,,328.3436714999989,328.3585897000012,328.3585897000012,328.85866860000533,328.85866860000533,331.35858010000084,331.35858010000084,331.3428715000045,None,1.0,,,,,,,nback25,1.0,2023-12-13_18h22.37.815,untitled,2023.2.3,60.031973030312656,2023-12-13 19h04.52.040410 -0500,
,"[0.3, 0]",None,,,,,,,,,0.0,8.0,8.0,8.0,331.35858010000084,,,,,,,,,,,,,,,,,,,,,,,,,,,,,,,,,,,,,,,,,,,,,,,,,,,,,,,,,,,,,,,,,,331.3434925000038,331.35858010000084,331.35858010000084,331.85854560000007,331.85854560000007,334.3585896000004,334.3585896000004,334.3423131000018,None,1.0,,,,,,,nback25,1.0,2023-12-13_18h22.37.815,untitled,2023.2.3,60.031973030312656,2023-12-13 19h04.52.040410 -0500,
,"[0.64, -0.4]",space,,,,,,,,,0.0,9.0,9.0,9.0,334.3585896000004,,,,,,,,,,,,,,,,,,,,,,,,,,,,,,,,,,,,,,,,,,,,,,,,,,,,,,,,,,,,,,,,,,334.342979699999,334.3585896000004,334.3585896000004,334.8585291000054,334.8585291000054,337.35844129999896,337.35844129999896,337.34259849999944,space,1.0,0.534012399999483,None,,,,,nback25,1.0,2023-12-13_18h22.37.815,untitled,2023.2.3,60.031973030312656,2023-12-13 19h04.52.040410 -0500,
,"[-0.64, 0.4]",None,,,,,,,,,0.0,10.0,10.0,10.0,337.35844129999896,,,,,,,,,,,,,,,,,,,,,,,,,,,,,,,,,,,,,,,,,,,,,,,,,,,,,,,,,,,,,,,,,,337.3433600999997,337.35844129999896,337.35844129999896,337.8584467000037,337.8584467000037,340.3584660999986,340.3584660999986,340.3426655000003,None,1.0,,,,,,,nback25,1.0,2023-12-13_18h22.37.815,untitled,2023.2.3,60.031973030312656,2023-12-13 19h04.52.040410 -0500,
,"[0.2, 0.1]",None,,,,,,,,,0.0,11.0,11.0,11.0,340.3584660999986,,,,,,,,,,,,,,,,,,,,,,,,,,,,,,,,,,,,,,,,,,,,,,,,,,,,,,,,,,,,,,,,,,340.3434025000024,340.3584660999986,340.3584660999986,340.8584209000037,340.8584209000037,343.3580984,343.3580984,343.3425283000033,None,1.0,,,,,,,nback25,1.0,2023-12-13_18h22.37.815,untitled,2023.2.3,60.031973030312656,2023-12-13 19h04.52.040410 -0500,
,"[0.3, 0]",None,,,,,,,,,0.0,12.0,12.0,12.0,343.3580984,,,,,,,,,,,,,,,,,,,,,,,,,,,,,,,,,,,,,,,,,,,,,,,,,,,,,,,,,,,,,,,,,,343.3432227000012,343.3580984,343.3580984,343.8584267000042,343.8584267000042,346.35820380000223,346.35820380000223,346.34242749999976,None,1.0,,,,,,,nback25,1.0,2023-12-13_18h22.37.815,untitled,2023.2.3,60.031973030312656,2023-12-13 19h04.52.040410 -0500,
,"[0.2, 0.1]",space,,,,,,,,,0.0,13.0,13.0,13.0,346.35820380000223,,,,,,,,,,,,,,,,,,,,,,,,,,,,,,,,,,,,,,,,,,,,,,,,,,,,,,,,,,,,,,,,,,346.3431172000055,346.35820380000223,346.35820380000223,346.85832940000546,346.85832940000546,349.35851950000506,349.35851950000506,349.3424373000016,space,1.0,0.8669886999996379,None,,,,,nback25,1.0,2023-12-13_18h22.37.815,untitled,2023.2.3,60.031973030312656,2023-12-13 19h04.52.040410 -0500,
,"[-0.3, 0]",None,,,,,,,,,0.0,14.0,14.0,14.0,349.35851950000506,,,,,,,,,,,,,,,,,,,,,,,,,,,,,,,,,,,,,,,,,,,,,,,,,,,,,,,,,,,,,,,,,,349.34329170000274,349.35851950000506,349.35851950000506,349.858241300004,349.858241300004,352.3582768000051,352.3582768000051,352.34239670000534,None,1.0,,,,,,,nback25,1.0,2023-12-13_18h22.37.815,untitled,2023.2.3,60.031973030312656,2023-12-13 19h04.52.040410 -0500,
,"[0, 0.2]",None,,,,,,,,,0.0,15.0,15.0,15.0,352.3582768000051,,,,,,,,,,,,,,,,,,,,,,,,,,,,,,,,,,,,,,,,,,,,,,,,,,,,,,,,,,,,,,,,,,352.343039600004,352.3582768000051,352.3582768000051,352.8581306000051,352.8581306000051,355.3581414,355.3581414,355.3424680000025,None,1.0,,,,,,,nback25,1.0,2023-12-13_18h22.37.815,untitled,2023.2.3,60.031973030312656,2023-12-13 19h04.52.040410 -0500,
,"[-0.3, 0]",space,,,,,,,,,0.0,16.0,16.0,16.0,355.3581414,,,,,,,,,,,,,,,,,,,,,,,,,,,,,,,,,,,,,,,,,,,,,,,,,,,,,,,,,,,,,,,,,,355.3432427000007,355.3581414,355.3581414,355.8582022000046,355.8582022000046,358.35796340000525,358.35796340000525,358.3425522000034,space,1.0,0.4253642999974545,None,,,,,nback25,1.0,2023-12-13_18h22.37.815,untitled,2023.2.3,60.031973030312656,2023-12-13 19h04.52.040410 -0500,
,"[-0.64, -0.4]",None,,,,,,,,,0.0,17.0,17.0,17.0,358.35796340000525,,,,,,,,,,,,,,,,,,,,,,,,,,,,,,,,,,,,,,,,,,,,,,,,,,,,,,,,,,,,,,,,,,358.3434918999992,358.35796340000525,358.35796340000525,358.85806700000103,358.85806700000103,361.35794510000414,361.35794510000414,361.3421585000033,None,1.0,,,,,,,nback25,1.0,2023-12-13_18h22.37.815,untitled,2023.2.3,60.031973030312656,2023-12-13 19h04.52.040410 -0500,
,"[-0.2, -0.1]",None,,,,,,,,,0.0,18.0,18.0,18.0,361.35794510000414,,,,,,,,,,,,,,,,,,,,,,,,,,,,,,,,,,,,,,,,,,,,,,,,,,,,,,,,,,,,,,,,,,361.3427981999994,361.35794510000414,361.35794510000414,361.8580860000002,361.8580860000002,364.3577761999986,364.3577761999986,364.3417778000003,None,1.0,,,,,,,nback25,1.0,2023-12-13_18h22.37.815,untitled,2023.2.3,60.031973030312656,2023-12-13 19h04.52.040410 -0500,
,"[0.2, -0.1]",None,,,,,,,,,0.0,19.0,19.0,19.0,364.3577761999986,,,,,,,,,,,,,,,,,,,,,,,,,,,,,,,,,,,,,,,,,,,,,,,,,,,,,,,,,,,,,,,,,,364.3422617000033,364.3577761999986,364.3577761999986,364.8580082000044,364.8580082000044,367.35793820000254,367.35793820000254,367.3423133000033,None,1.0,,,,,,,nback25,1.0,2023-12-13_18h22.37.815,untitled,2023.2.3,60.031973030312656,2023-12-13 19h04.52.040410 -0500,
,"[0.2, -0.1]",None,,,,,,,,,0.0,20.0,20.0,20.0,367.35793820000254,,,,,,,,,,,,,,,,,,,,,,,,,,,,,,,,,,,,,,,,,,,,,,,,,,,,,,,,,,,,,,,,,,367.3430990000052,367.35793820000254,367.35793820000254,367.8579701000053,367.8579701000053,370.3575866000028,370.3575866000028,370.34180670000205,None,1.0,,,,,,,nback25,1.0,2023-12-13_18h22.37.815,untitled,2023.2.3,60.031973030312656,2023-12-13 19h04.52.040410 -0500,
,"[-0.64, 0.4]",None,,,,,,,,,0.0,21.0,21.0,21.0,370.3575866000028,,,,,,,,,,,,,,,,,,,,,,,,,,,,,,,,,,,,,,,,,,,,,,,,,,,,,,,,,,,,,,,,,,370.342399000001,370.3575866000028,370.3575866000028,370.8578121000028,370.8578121000028,373.3578870000056,373.3578870000056,373.34195100000215,None,1.0,,,,,,,nback25,1.0,2023-12-13_18h22.37.815,untitled,2023.2.3,60.031973030312656,2023-12-13 19h04.52.040410 -0500,
,"[0, 0.2]",None,,,,,,,,,0.0,22.0,22.0,22.0,373.3578870000056,,,,,,,,,,,,,,,,,,,,,,,,,,,,,,,,,,,,,,,,,,,,,,,,,,,,,,,,,,,,,,,,,,373.342573599999,373.3578870000056,373.3578870000056,373.85769560000335,373.85769560000335,376.357695300001,376.357695300001,376.3422801000052,None,1.0,,,,,,,nback25,1.0,2023-12-13_18h22.37.815,untitled,2023.2.3,60.031973030312656,2023-12-13 19h04.52.040410 -0500,
,"[0.64, -0.4]",None,,,,,,,,,0.0,23.0,23.0,23.0,376.357695300001,,,,,,,,,,,,,,,,,,,,,,,,,,,,,,,,,,,,,,,,,,,,,,,,,,,,,,,,,,,,,,,,,,376.3431210999988,376.357695300001,376.357695300001,376.8579372000022,376.8579372000022,379.3576336000042,379.3576336000042,379.34187720000045,None,1.0,,,,,,,nback25,1.0,2023-12-13_18h22.37.815,untitled,2023.2.3,60.031973030312656,2023-12-13 19h04.52.040410 -0500,
,"[0, 0.2]",space,,,,,,,,,0.0,24.0,24.0,24.0,379.3576336000042,,,,,,,,,,,,,,,,,,,,,,,,,,,,,,,,,,,,,,,,,,,,,,,,,,,,,,,,,,,,,,,,,,379.3425744000051,379.3576336000042,379.3576336000042,379.85761730000377,379.85761730000377,382.3576557000051,382.3576557000051,382.3421748000037,space,1.0,0.7921567000012146,None,,,,,nback25,1.0,2023-12-13_18h22.37.815,untitled,2023.2.3,60.031973030312656,2023-12-13 19h04.52.040410 -0500,
,"[-0.2, 0.1]",None,,,,,,,,,0.0,25.0,25.0,25.0,382.3576557000051,,,,,,,,,,,,,,,,,,,,,,,,,,,,,,,,,,,,,,,,,,,,,,,,,,,,,,,,,,,,,,,,,,382.3432029000032,382.3576557000051,382.3576557000051,382.857657600005,382.857657600005,385.3573543000021,385.3573543000021,385.3413698000004,None,1.0,,,,,,,nback25,1.0,2023-12-13_18h22.37.815,untitled,2023.2.3,60.031973030312656,2023-12-13 19h04.52.040410 -0500,
,"[0.3, 0]",None,,,,,,,,,0.0,26.0,26.0,26.0,385.3573543000021,,,,,,,,,,,,,,,,,,,,,,,,,,,,,,,,,,,,,,,,,,,,,,,,,,,,,,,,,,,,,,,,,,385.3417383000051,385.3573543000021,385.3573543000021,385.8576862000045,385.8576862000045,388.35760070000106,388.35760070000106,388.34154750000016,None,1.0,,,,,,,nback25,1.0,2023-12-13_18h22.37.815,untitled,2023.2.3,60.031973030312656,2023-12-13 19h04.52.040410 -0500,
,"[-0.2, 0.1]",space,,,,,,,,,0.0,27.0,27.0,27.0,388.35760070000106,,,,,,,,,,,,,,,,,,,,,,,,,,,,,,,,,,,,,,,,,,,,,,,,,,,,,,,,,,,,,,,,,,388.3421937000021,388.35760070000106,388.35760070000106,388.85745410000527,388.85745410000527,391.357697200001,391.357697200001,391.3418074000001,space,1.0,0.6192825000034645,None,,,,,nback25,1.0,2023-12-13_18h22.37.815,untitled,2023.2.3,60.031973030312656,2023-12-13 19h04.52.040410 -0500,
,"[-0.2, 0.1]",None,,,,,,,,,0.0,28.0,28.0,28.0,391.357697200001,,,,,,,,,,,,,,,,,,,,,,,,,,,,,,,,,,,,,,,,,,,,,,,,,,,,,,,,,,,,,,,,,,391.3426464000004,391.357697200001,391.357697200001,391.857657600005,391.857657600005,394.3572712000023,394.3572712000023,394.3415169,space,0.0,1.017640300000494,None,,,,,nback25,1.0,2023-12-13_18h22.37.815,untitled,2023.2.3,60.031973030312656,2023-12-13 19h04.52.040410 -0500,
,"[0.2, 0.1]",None,,,,,,,,,0.0,29.0,29.0,29.0,394.3572712000023,,,,,,,,,,,,,,,,,,,,,,,,,,,,,,,,,,,,,,,,,,,,,,,,,,,,,,,,,,,,,,,,,,394.3423469000045,394.3572712000023,394.3572712000023,394.8574559000044,394.8574559000044,397.35726080000313,397.35726080000313,397.3413629999996,None,1.0,,,,,,,nback25,1.0,2023-12-13_18h22.37.815,untitled,2023.2.3,60.031973030312656,2023-12-13 19h04.52.040410 -0500,
,"[-0.64, -0.4]",None,,,,,,,,,0.0,30.0,30.0,30.0,397.35726080000313,,,,,,,,,,,,,,,,,,,,,,,,,,,,,,,,,,,,,,,,,,,,,,,,,,,,,,,,,,,,,,,,,,397.3419849999991,397.35726080000313,397.35726080000313,397.8573184000052,397.8573184000052,400.3573238000026,400.3573238000026,400.3414221999992,None,1.0,,,,,,,nback25,1.0,2023-12-13_18h22.37.815,untitled,2023.2.3,60.031973030312656,2023-12-13 19h04.52.040410 -0500,
,"[0, -0.2]",None,,,,,,,,,0.0,31.0,31.0,31.0,400.3573238000026,,,,,,,,,,,,,,,,,,,,,,,,,,,,,,,,,,,,,,,,,,,,,,,,,,,,,,,,,,,,,,,,,,400.3420946000042,400.3573238000026,400.3573238000026,400.85737599999993,400.85737599999993,403.35730820000026,403.35730820000026,403.3415817999994,None,1.0,,,,,,,nback25,1.0,2023-12-13_18h22.37.815,untitled,2023.2.3,60.031973030312656,2023-12-13 19h04.52.040410 -0500,
,"[-0.64, -0.4]",space,,,,,,,,,0.0,32.0,32.0,32.0,403.35730820000026,,,,,,,,,,,,,,,,,,,,,,,,,,,,,,,,,,,,,,,,,,,,,,,,,,,,,,,,,,,,,,,,,,403.3422913000031,403.35730820000026,403.35730820000026,403.85731659999874,403.85731659999874,406.3570910000053,406.3570910000053,406.34106240000256,space,1.0,0.522550699999556,None,,,,,nback25,1.0,2023-12-13_18h22.37.815,untitled,2023.2.3,60.031973030312656,2023-12-13 19h04.52.040410 -0500,
,"[0.64, 0.4]",None,,,,,,,,,0.0,33.0,33.0,33.0,406.3570910000053,,,,,,,,,,,,,,,,,,,,,,,,,,,,,,,,,,,,,,,,,,,,,,,,,,,,,,,,,,,,,,,,,,406.3416881000012,406.3570910000053,406.3570910000053,406.85734629999934,406.85734629999934,409.3570548999997,409.3570548999997,409.3412367000056,None,1.0,,,,,,,nback25,1.0,2023-12-13_18h22.37.815,untitled,2023.2.3,60.031973030312656,2023-12-13 19h04.52.040410 -0500,
,"[-0.3, 0]",None,,,,,,,,,0.0,34.0,34.0,34.0,409.3570548999997,,,,,,,,,,,,,,,,,,,,,,,,,,,,,,,,,,,,,,,,,,,,,,,,,,,,,,,,,,,,,,,,,,409.3418893000053,409.3570548999997,409.3570548999997,409.85707260000345,409.85707260000345,412.3570204999996,412.3570204999996,412.34139290000167,None,1.0,,,,,,,nback25,1.0,2023-12-13_18h22.37.815,untitled,2023.2.3,60.031973030312656,2023-12-13 19h04.52.040410 -0500,
,"[0.3, 0]",None,,,,,,,,,0.0,35.0,35.0,35.0,412.3570204999996,,,,,,,,,,,,,,,,,,,,,,,,,,,,,,,,,,,,,,,,,,,,,,,,,,,,,,,,,,,,,,,,,,412.3421120999992,412.3570204999996,412.3570204999996,412.85732760000246,412.85732760000246,415.3570924000014,415.3570924000014,415.341099199999,None,1.0,,,,,,,nback25,1.0,2023-12-13_18h22.37.815,untitled,2023.2.3,60.031973030312656,2023-12-13 19h04.52.040410 -0500,
,"[-0.3, 0]",space,,,,,,,,,0.0,36.0,36.0,36.0,415.3570924000014,,,,,,,,,,,,,,,,,,,,,,,,,,,,,,,,,,,,,,,,,,,,,,,,,,,,,,,,,,,,,,,,,,415.3419292000035,415.3570924000014,415.3570924000014,415.85698850000335,415.85698850000335,418.3570164000048,418.3570164000048,418.34088870000414,space,1.0,0.5125283999950625,None,,,,,nback25,1.0,2023-12-13_18h22.37.815,untitled,2023.2.3,60.031973030312656,2023-12-13 19h04.52.040410 -0500,
,"[0, -0.2]",None,,,,,,,,,0.0,37.0,37.0,37.0,418.3570164000048,,,,,,,,,,,,,,,,,,,,,,,,,,,,,,,,,,,,,,,,,,,,,,,,,,,,,,,,,,,,,,,,,,418.3416455000042,418.3570164000048,418.3570164000048,418.8572631999996,418.8572631999996,421.3569290000014,421.3569290000014,421.3411057000049,None,1.0,,,,,,,nback25,1.0,2023-12-13_18h22.37.815,untitled,2023.2.3,60.031973030312656,2023-12-13 19h04.52.040410 -0500,
,"[0.3, 0]",None,,,,,,,,,0.0,38.0,38.0,38.0,421.3569290000014,,,,,,,,,,,,,,,,,,,,,,,,,,,,,,,,,,,,,,,,,,,,,,,,,,,,,,,,,,,,,,,,,,421.341734900001,421.3569290000014,421.3569290000014,421.8568685999999,421.8568685999999,424.3567872000058,424.3567872000058,424.3410646000048,space,0.0,0.6093547000054969,None,,,,,nback25,1.0,2023-12-13_18h22.37.815,untitled,2023.2.3,60.031973030312656,2023-12-13 19h04.52.040410 -0500,
,"[0.2, 0.1]",None,,,,,,,,,0.0,39.0,39.0,39.0,424.3567872000058,,,,,,,,,,,,,,,,,,,,,,,,,,,,,,,,,,,,,,,,,,,,,,,,,,,,,,,,,,,,,,,,,,424.34180670000205,424.3567872000058,424.3567872000058,424.857095600004,424.857095600004,427.3567021999989,427.3567021999989,427.34074910000345,None,1.0,,,,,,,nback25,1.0,2023-12-13_18h22.37.815,untitled,2023.2.3,60.031973030312656,2023-12-13 19h04.52.040410 -0500,
,,,,,,,,,,,,,,,,,,,,,,,,,,,,,,,,,,,,,,,,,,,,,,,,,,,,,,,,,,,,,,,,,,,,,,,,,,,,,,,,,,,,,,,,,,,,,427.3411244000017,427.3567021999989,430.3568302999993,430.340972900005,,,,,,,,
