square,location,corrAns,trials_0.thisRepN,trials_0.thisTrialN,trials_0.thisN,trials_0.thisIndex,trials_1.thisRepN,trials_1.thisTrialN,trials_1.thisN,trials_1.thisIndex,trials_2.thisRepN,trials_2.thisTrialN,trials_2.thisN,trials_2.thisIndex,thisRow.t,notes,Instructions.started,instructions.started,key_resp.started,inst_sq11.started,Instructions.stopped,key_resp.keys,key_resp.rt,key_resp.duration,All.started,sq_1.started,sq_2.started,sq_3.started,sq_4.started,sq_5.started,sq_6.started,sq_7.started,sq_8.started,sq_9.started,sq_10.started,sq_11.started,sq_12.started,All.stopped,Fixation.started,fixation_3.started,fixation_3.stopped,Fixation.stopped,N_back_0_Trial.started,target_square_0.started,response_0.started,fixation_0.started,target_square_0.stopped,fixation_0.stopped,N_back_0_Trial.stopped,response_0.keys,response_0.corr,response_0.rt,response_0.duration,Instructions_1.started,instructions_1.started,key_resp_1.started,Instructions_1.stopped,key_resp_1.keys,key_resp_1.rt,key_resp_1.duration,N_back_1_Trial.started,target_square_1.started,response_1.started,fixation_1.started,target_square_1.stopped,fixation_1.stopped,N_back_1_Trial.stopped,response_1.keys,response_1.corr,response_1.rt,response_1.duration,Instructions_2.started,instructions_2.started,key_resp_2.started,Instructions_2.stopped,key_resp_2.keys,key_resp_2.rt,key_resp_2.duration,N_back_2_trials.started,target_square_2.started,response_2.started,fixation_2.started,target_square_2.stopped,fixation_2.stopped,N_back_2_trials.stopped,response_2.keys,response_2.corr,response_2.rt,response_2.duration,End.started,thank_you.started,End.stopped,participant,session,date,expName,psychopyVersion,frameRate,expStart,Unnamed: 100
,,,,,,,,,,,,,,,,,0.0014307999517768,0.0051821999950334,0.0051821999950334,0.0051821999950334,2042.164126199903,space,2042.1555644999023,None,,,,,,,,,,,,,,,,,,,,,,,,,,,,,,,,,,,,,,,,,,,,,,,,,,,,,,,,,,,,,,,,,,,,,nback71,1.0,2024-01-23_16h41.22.558,untitled,2023.2.3,59.9244113440032,2024-01-23 17h04.31.855993 -0500,
6.0,"[-0.3, 0]",None,0.0,0.0,0.0,0.0,,,,,,,,,2044.1846343999496,,,,,,,,,,2042.16417299991,2042.178932699957,2042.178932699957,2042.178932699957,2042.178932699957,2042.178932699957,2042.178932699957,2042.178932699957,2042.178932699957,2042.178932699957,2042.178932699957,2042.178932699957,2042.178932699957,2043.1631673999364,2043.163193699904,2043.179060800001,2044.1846343999496,2044.163349099923,2044.182769999956,2044.1846343999496,2044.1846343999496,2044.6625133999623,2044.6956782999916,2047.162162099965,2047.1791355999885,None,1.0,,,,,,,,,,,,,,,,,,,,,,,,,,,,,,,,,,,,,,,,,,nback71,1.0,2024-01-23_16h41.22.558,untitled,2023.2.3,59.9244113440032,2024-01-23 17h04.31.855993 -0500,
10.0,"[0, -0.2]",None,0.0,1.0,1.0,1.0,,,,,,,,,2047.195689599961,,,,,,,,,,,,,,,,,,,,,,,,,,,,2047.1800720999015,2047.195689599961,2047.195689599961,2047.6624768999168,2047.695645199972,2050.162166199996,2050.1792417999823,None,1.0,,,,,,,,,,,,,,,,,,,,,,,,,,,,,,,,,,,,,,,,,,nback71,1.0,2024-01-23_16h41.22.558,untitled,2023.2.3,59.9244113440032,2024-01-23 17h04.31.855993 -0500,
11.0,"[-0.64, -0.4]",space,0.0,2.0,2.0,2.0,,,,,,,,,2050.195607199916,,,,,,,,,,,,,,,,,,,,,,,,,,,,2050.1801158000017,2050.195607199916,2050.195607199916,2050.678826599964,2050.695372599992,2053.1787863998907,2053.178959199926,space,1.0,0.3499297000234946,None,,,,,,,,,,,,,,,,,,,,,,,,,,,,,,,,,,,,,,,,nback71,1.0,2024-01-23_16h41.22.558,untitled,2023.2.3,59.9244113440032,2024-01-23 17h04.31.855993 -0500,
12.0,"[0.64, -0.4]",None,0.0,3.0,3.0,3.0,,,,,,,,,2053.1955615999177,,,,,,,,,,,,,,,,,,,,,,,,,,,,2053.1800167999463,2053.1955615999177,2053.1955615999177,2053.678814499988,2053.695724099991,2056.1787748999195,2056.178979599965,None,1.0,,,,,,,,,,,,,,,,,,,,,,,,,,,,,,,,,,,,,,,,,,nback71,1.0,2024-01-23_16h41.22.558,untitled,2023.2.3,59.9244113440032,2024-01-23 17h04.31.855993 -0500,
1.0,"[-0.64, 0.4]",None,0.0,4.0,4.0,4.0,,,,,,,,,2056.1955787999323,,,,,,,,,,,,,,,,,,,,,,,,,,,,2056.1797938999957,2056.1955787999323,2056.1955787999323,2056.678734499961,2056.695454599918,2059.1786181998905,2059.1787857000018,None,1.0,,,,,,,,,,,,,,,,,,,,,,,,,,,,,,,,,,,,,,,,,,nback71,1.0,2024-01-23_16h41.22.558,untitled,2023.2.3,59.9244113440032,2024-01-23 17h04.31.855993 -0500,
1.0,"[-0.64, 0.4]",None,0.0,5.0,5.0,5.0,,,,,,,,,2059.195533399936,,,,,,,,,,,,,,,,,,,,,,,,,,,,2059.1793755999533,2059.195533399936,2059.195533399936,2059.678762499941,2059.695376599906,2062.178451399901,2062.178580899956,None,1.0,,,,,,,,,,,,,,,,,,,,,,,,,,,,,,,,,,,,,,,,,,nback71,1.0,2024-01-23_16h41.22.558,untitled,2023.2.3,59.9244113440032,2024-01-23 17h04.31.855993 -0500,
4.0,"[-0.2, 0.1]",None,0.0,6.0,6.0,6.0,,,,,,,,,2062.1953690999653,,,,,,,,,,,,,,,,,,,,,,,,,,,,2062.1789264999097,2062.1953690999653,2062.1953690999653,2062.6785112998914,2062.6954648999963,2065.178714299924,2065.1789026999613,None,1.0,,,,,,,,,,,,,,,,,,,,,,,,,,,,,,,,,,,,,,,,,,nback71,1.0,2024-01-23_16h41.22.558,untitled,2023.2.3,59.9244113440032,2024-01-23 17h04.31.855993 -0500,
5.0,"[0.2, 0.1]",None,0.0,7.0,7.0,7.0,,,,,,,,,2065.19520629989,,,,,,,,,,,,,,,,,,,,,,,,,,,,2065.1796089999843,2065.19520629989,2065.19520629989,2065.678714299924,2065.695317699923,2068.17941969994,2068.1801140999887,None,1.0,,,,,,,,,,,,,,,,,,,,,,,,,,,,,,,,,,,,,,,,,,nback71,1.0,2024-01-23_16h41.22.558,untitled,2023.2.3,59.9244113440032,2024-01-23 17h04.31.855993 -0500,
11.0,"[-0.64, -0.4]",space,0.0,8.0,8.0,8.0,,,,,,,,,2068.195599199971,,,,,,,,,,,,,,,,,,,,,,,,,,,,2068.182846499956,2068.195599199971,2068.195599199971,2068.6786630999995,2068.6953569999896,2071.1785145999165,2071.1787092998857,space,1.0,0.376622200012207,None,,,,,,,,,,,,,,,,,,,,,,,,,,,,,,,,,,,,,,,,nback71,1.0,2024-01-23_16h41.22.558,untitled,2023.2.3,59.9244113440032,2024-01-23 17h04.31.855993 -0500,
9.0,"[0.2, -0.1]",None,0.0,9.0,9.0,9.0,,,,,,,,,2071.1952496999875,,,,,,,,,,,,,,,,,,,,,,,,,,,,2071.1795923999744,2071.1952496999875,2071.1952496999875,2071.6783815999515,2071.695143999997,2074.178686299944,2074.1789062999887,None,1.0,,,,,,,,,,,,,,,,,,,,,,,,,,,,,,,,,,,,,,,,,,nback71,1.0,2024-01-23_16h41.22.558,untitled,2023.2.3,59.9244113440032,2024-01-23 17h04.31.855993 -0500,
8.0,"[-0.2, -0.1]",None,0.0,10.0,10.0,10.0,,,,,,,,,2074.1951899999985,,,,,,,,,,,,,,,,,,,,,,,,,,,,2074.179723499925,2074.1951899999985,2074.1951899999985,2074.678465999896,2074.695007499889,2077.1785332999425,2077.1787445999216,None,1.0,,,,,,,,,,,,,,,,,,,,,,,,,,,,,,,,,,,,,,,,,,nback71,1.0,2024-01-23_16h41.22.558,untitled,2023.2.3,59.9244113440032,2024-01-23 17h04.31.855993 -0500,
9.0,"[0.2, -0.1]",None,0.0,11.0,11.0,11.0,,,,,,,,,2077.19501409994,,,,,,,,,,,,,,,,,,,,,,,,,,,,2077.1795782999834,2077.19501409994,2077.19501409994,2077.6785809999565,2077.694963499904,2080.178477199981,2080.178665799904,None,1.0,,,,,,,,,,,,,,,,,,,,,,,,,,,,,,,,,,,,,,,,,,nback71,1.0,2024-01-23_16h41.22.558,untitled,2023.2.3,59.9244113440032,2024-01-23 17h04.31.855993 -0500,
6.0,"[-0.3, 0]",None,0.0,12.0,12.0,12.0,,,,,,,,,2080.1949761,,,,,,,,,,,,,,,,,,,,,,,,,,,,2080.1793828998925,2080.1949761,2080.1949761,2080.6783959999448,2080.6949974999297,2083.178457199945,2083.17864869989,None,1.0,,,,,,,,,,,,,,,,,,,,,,,,,,,,,,,,,,,,,,,,,,nback71,1.0,2024-01-23_16h41.22.558,untitled,2023.2.3,59.9244113440032,2024-01-23 17h04.31.855993 -0500,
9.0,"[0.2, -0.1]",None,0.0,13.0,13.0,13.0,,,,,,,,,2083.19505129999,,,,,,,,,,,,,,,,,,,,,,,,,,,,2083.17936989991,2083.19505129999,2083.19505129999,2083.678238299908,2083.694845099933,2086.178338799975,2086.1785621999297,None,1.0,,,,,,,,,,,,,,,,,,,,,,,,,,,,,,,,,,,,,,,,,,nback71,1.0,2024-01-23_16h41.22.558,untitled,2023.2.3,59.9244113440032,2024-01-23 17h04.31.855993 -0500,
7.0,"[0.3, 0]",None,0.0,14.0,14.0,14.0,,,,,,,,,2086.195064199972,,,,,,,,,,,,,,,,,,,,,,,,,,,,2086.179402799928,2086.195064199972,2086.195064199972,2086.6781850999687,2086.694713499979,2089.178215999971,2089.178386799991,None,1.0,,,,,,,,,,,,,,,,,,,,,,,,,,,,,,,,,,,,,,,,,,nback71,1.0,2024-01-23_16h41.22.558,untitled,2023.2.3,59.9244113440032,2024-01-23 17h04.31.855993 -0500,
2.0,"[0.64, 0.4]",None,0.0,15.0,15.0,15.0,,,,,,,,,2089.194823599886,,,,,,,,,,,,,,,,,,,,,,,,,,,,2089.179043799988,2089.194823599886,2089.194823599886,2089.67830629996,2089.6949785999022,2092.1782232999103,2092.178422999917,None,1.0,,,,,,,,,,,,,,,,,,,,,,,,,,,,,,,,,,,,,,,,,,nback71,1.0,2024-01-23_16h41.22.558,untitled,2023.2.3,59.9244113440032,2024-01-23 17h04.31.855993 -0500,
2.0,"[0.64, 0.4]",None,0.0,16.0,16.0,16.0,,,,,,,,,2092.19469699997,,,,,,,,,,,,,,,,,,,,,,,,,,,,2092.179185399902,2092.19469699997,2092.19469699997,2092.677869199892,2092.6946291999197,2095.1782001999677,2095.178404199891,None,1.0,,,,,,,,,,,,,,,,,,,,,,,,,,,,,,,,,,,,,,,,,,nback71,1.0,2024-01-23_16h41.22.558,untitled,2023.2.3,59.9244113440032,2024-01-23 17h04.31.855993 -0500,
11.0,"[-0.64, -0.4]",space,0.0,17.0,17.0,17.0,,,,,,,,,2095.1946857000003,,,,,,,,,,,,,,,,,,,,,,,,,,,,2095.1792196999304,2095.1946857000003,2095.1946857000003,2095.678098999895,2095.694644999923,2098.1781344999326,2098.178229699959,space,1.0,0.3004578000400215,None,,,,,,,,,,,,,,,,,,,,,,,,,,,,,,,,,,,,,,,,nback71,1.0,2024-01-23_16h41.22.558,untitled,2023.2.3,59.9244113440032,2024-01-23 17h04.31.855993 -0500,
11.0,"[-0.64, -0.4]",space,0.0,18.0,18.0,18.0,,,,,,,,,2098.194735899917,,,,,,,,,,,,,,,,,,,,,,,,,,,,2098.1786157999886,2098.194735899917,2098.194735899917,2098.678091699956,2098.6946361999726,2101.1780284999404,2101.1782079999102,space,1.0,0.4539064000127837,None,,,,,,,,,,,,,,,,,,,,,,,,,,,,,,,,,,,,,,,,nback71,1.0,2024-01-23_16h41.22.558,untitled,2023.2.3,59.9244113440032,2024-01-23 17h04.31.855993 -0500,
7.0,"[0.3, 0]",None,0.0,19.0,19.0,19.0,,,,,,,,,2101.194720099913,,,,,,,,,,,,,,,,,,,,,,,,,,,,2101.1791824999964,2101.194720099913,2101.194720099913,2101.6779141000006,2101.694545199978,2104.1780835998943,2104.1783398999837,None,1.0,,,,,,,,,,,,,,,,,,,,,,,,,,,,,,,,,,,,,,,,,,nback71,1.0,2024-01-23_16h41.22.558,untitled,2023.2.3,59.9244113440032,2024-01-23 17h04.31.855993 -0500,
3.0,"[0, 0.2]",None,0.0,20.0,20.0,20.0,,,,,,,,,2104.194508999936,,,,,,,,,,,,,,,,,,,,,,,,,,,,2104.179150799988,2104.194508999936,2104.194508999936,2104.6780053999973,2104.694729299983,2107.1780416999245,2107.178261199966,None,1.0,,,,,,,,,,,,,,,,,,,,,,,,,,,,,,,,,,,,,,,,,,nback71,1.0,2024-01-23_16h41.22.558,untitled,2023.2.3,59.9244113440032,2024-01-23 17h04.31.855993 -0500,
10.0,"[0, -0.2]",None,0.0,21.0,21.0,21.0,,,,,,,,,2107.194591499981,,,,,,,,,,,,,,,,,,,,,,,,,,,,2107.179108299897,2107.194591499981,2107.194591499981,2107.67783099995,2107.6944189999485,2110.177913899999,2110.178116499912,None,1.0,,,,,,,,,,,,,,,,,,,,,,,,,,,,,,,,,,,,,,,,,,nback71,1.0,2024-01-23_16h41.22.558,untitled,2023.2.3,59.9244113440032,2024-01-23 17h04.31.855993 -0500,
1.0,"[-0.64, 0.4]",None,0.0,22.0,22.0,22.0,,,,,,,,,2110.1945022,,,,,,,,,,,,,,,,,,,,,,,,,,,,2110.1788970999187,2110.1945022,2110.1945022,2110.677900999901,2110.694418899948,2113.1777736999798,2113.1779567999765,None,1.0,,,,,,,,,,,,,,,,,,,,,,,,,,,,,,,,,,,,,,,,,,nback71,1.0,2024-01-23_16h41.22.558,untitled,2023.2.3,59.9244113440032,2024-01-23 17h04.31.855993 -0500,
2.0,"[0.64, 0.4]",None,0.0,23.0,23.0,23.0,,,,,,,,,2113.1943670999026,,,,,,,,,,,,,,,,,,,,,,,,,,,,2113.178559999913,2113.1943670999026,2113.1943670999026,2113.6779045999283,2113.694484799984,2116.177659899928,2116.177826699917,None,1.0,,,,,,,,,,,,,,,,,,,,,,,,,,,,,,,,,,,,,,,,,,nback71,1.0,2024-01-23_16h41.22.558,untitled,2023.2.3,59.9244113440032,2024-01-23 17h04.31.855993 -0500,
6.0,"[-0.3, 0]",None,0.0,24.0,24.0,24.0,,,,,,,,,2116.1943696999224,,,,,,,,,,,,,,,,,,,,,,,,,,,,2116.178436799906,2116.1943696999224,2116.1943696999224,2116.6776566999038,2116.694412999903,2119.1777064999333,2119.1779023999115,None,1.0,,,,,,,,,,,,,,,,,,,,,,,,,,,,,,,,,,,,,,,,,,nback71,1.0,2024-01-23_16h41.22.558,untitled,2023.2.3,59.9244113440032,2024-01-23 17h04.31.855993 -0500,
3.0,"[0, 0.2]",None,0.0,25.0,25.0,25.0,,,,,,,,,2119.1943013999844,,,,,,,,,,,,,,,,,,,,,,,,,,,,2119.1787188999588,2119.1943013999844,2119.1943013999844,2119.6776359999785,2119.694457599893,2122.177460799925,2122.17759029998,None,1.0,,,,,,,,,,,,,,,,,,,,,,,,,,,,,,,,,,,,,,,,,,nback71,1.0,2024-01-23_16h41.22.558,untitled,2023.2.3,59.9244113440032,2024-01-23 17h04.31.855993 -0500,
11.0,"[-0.64, -0.4]",space,0.0,26.0,26.0,26.0,,,,,,,,,2122.194007899961,,,,,,,,,,,,,,,,,,,,,,,,,,,,2122.178103299928,2122.194007899961,2122.194007899961,2122.6775858999463,2122.69419989991,2125.17764499993,2125.1778373999987,space,1.0,0.4830828999402001,None,,,,,,,,,,,,,,,,,,,,,,,,,,,,,,,,,,,,,,,,nback71,1.0,2024-01-23_16h41.22.558,untitled,2023.2.3,59.9244113440032,2024-01-23 17h04.31.855993 -0500,
1.0,"[-0.64, 0.4]",None,0.0,27.0,27.0,27.0,,,,,,,,,2125.19417589996,,,,,,,,,,,,,,,,,,,,,,,,,,,,2125.178696399904,2125.19417589996,2125.19417589996,2125.6774655999616,2125.6942476999247,2128.1786973999115,2128.17901219998,None,1.0,,,,,,,,,,,,,,,,,,,,,,,,,,,,,,,,,,,,,,,,,,nback71,1.0,2024-01-23_16h41.22.558,untitled,2023.2.3,59.9244113440032,2024-01-23 17h04.31.855993 -0500,
3.0,"[0, 0.2]",None,0.0,28.0,28.0,28.0,,,,,,,,,2128.194923999952,,,,,,,,,,,,,,,,,,,,,,,,,,,,2128.179964399897,2128.194923999952,2128.194923999952,2128.67737619998,2128.694204099942,2131.1773875999497,2131.177561299992,None,1.0,,,,,,,,,,,,,,,,,,,,,,,,,,,,,,,,,,,,,,,,,,nback71,1.0,2024-01-23_16h41.22.558,untitled,2023.2.3,59.9244113440032,2024-01-23 17h04.31.855993 -0500,
9.0,"[0.2, -0.1]",None,0.0,29.0,29.0,29.0,,,,,,,,,2131.1940159999067,,,,,,,,,,,,,,,,,,,,,,,,,,,,2131.1782409999287,2131.1940159999067,2131.1940159999067,2131.677601399948,2131.694141499931,2134.1775157999946,2134.1777113999706,None,1.0,,,,,,,,,,,,,,,,,,,,,,,,,,,,,,,,,,,,,,,,,,nback71,1.0,2024-01-23_16h41.22.558,untitled,2023.2.3,59.9244113440032,2024-01-23 17h04.31.855993 -0500,
8.0,"[-0.2, -0.1]",None,0.0,30.0,30.0,30.0,,,,,,,,,2134.1940914998995,,,,,,,,,,,,,,,,,,,,,,,,,,,,2134.178465899895,2134.1940914998995,2134.1940914998995,2134.6775177998934,2134.6938822999364,2137.17732779996,2137.1774862998864,None,1.0,,,,,,,,,,,,,,,,,,,,,,,,,,,,,,,,,,,,,,,,,,nback71,1.0,2024-01-23_16h41.22.558,untitled,2023.2.3,59.9244113440032,2024-01-23 17h04.31.855993 -0500,
12.0,"[0.64, -0.4]",None,0.0,31.0,31.0,31.0,,,,,,,,,2137.19392469991,,,,,,,,,,,,,,,,,,,,,,,,,,,,2137.1781821999466,2137.19392469991,2137.19392469991,2137.677309299936,2137.6939954999834,2140.1773196998984,2140.1775272999657,None,1.0,,,,,,,,,,,,,,,,,,,,,,,,,,,,,,,,,,,,,,,,,,nback71,1.0,2024-01-23_16h41.22.558,untitled,2023.2.3,59.9244113440032,2024-01-23 17h04.31.855993 -0500,
9.0,"[0.2, -0.1]",None,0.0,32.0,32.0,32.0,,,,,,,,,2140.194039099966,,,,,,,,,,,,,,,,,,,,,,,,,,,,2140.1782873999327,2140.194039099966,2140.194039099966,2140.6773752999725,2140.6940150999,2143.1773702999344,2143.1775887999684,None,1.0,,,,,,,,,,,,,,,,,,,,,,,,,,,,,,,,,,,,,,,,,,nback71,1.0,2024-01-23_16h41.22.558,untitled,2023.2.3,59.9244113440032,2024-01-23 17h04.31.855993 -0500,
11.0,"[-0.64, -0.4]",space,0.0,33.0,33.0,33.0,,,,,,,,,2143.194017499918,,,,,,,,,,,,,,,,,,,,,,,,,,,,2143.1783484999323,2143.194017499918,2143.194017499918,2143.6770958999405,2143.6938138999976,2146.177142899949,2146.1773326999974,space,1.0,0.3043909999541938,None,,,,,,,,,,,,,,,,,,,,,,,,,,,,,,,,,,,,,,,,nback71,1.0,2024-01-23_16h41.22.558,untitled,2023.2.3,59.9244113440032,2024-01-23 17h04.31.855993 -0500,
7.0,"[0.3, 0]",None,0.0,34.0,34.0,34.0,,,,,,,,,2146.1939675998874,,,,,,,,,,,,,,,,,,,,,,,,,,,,2146.1781884999946,2146.1939675998874,2146.1939675998874,2146.6771319999825,2146.6937990000006,2149.176993299974,2149.1770899998955,None,1.0,,,,,,,,,,,,,,,,,,,,,,,,,,,,,,,,,,,,,,,,,,nback71,1.0,2024-01-23_16h41.22.558,untitled,2023.2.3,59.9244113440032,2024-01-23 17h04.31.855993 -0500,
11.0,"[-0.64, -0.4]",space,0.0,35.0,35.0,35.0,,,,,,,,,2149.193686099956,,,,,,,,,,,,,,,,,,,,,,,,,,,,2149.1774387999903,2149.193686099956,2149.193686099956,2149.677242299891,2149.6939982998883,2152.177225099993,2152.177413199912,space,1.0,0.3776314000133425,None,,,,,,,,,,,,,,,,,,,,,,,,,,,,,,,,,,,,,,,,nback71,1.0,2024-01-23_16h41.22.558,untitled,2023.2.3,59.9244113440032,2024-01-23 17h04.31.855993 -0500,
4.0,"[-0.2, 0.1]",None,0.0,36.0,36.0,36.0,,,,,,,,,2152.193792999955,,,,,,,,,,,,,,,,,,,,,,,,,,,,2152.178276599967,2152.193792999955,2152.193792999955,2152.6770005999133,2152.6936542999465,2155.17705869989,2155.1772446999094,None,1.0,,,,,,,,,,,,,,,,,,,,,,,,,,,,,,,,,,,,,,,,,,nback71,1.0,2024-01-23_16h41.22.558,untitled,2023.2.3,59.9244113440032,2024-01-23 17h04.31.855993 -0500,
5.0,"[0.2, 0.1]",None,0.0,37.0,37.0,37.0,,,,,,,,,2155.193817299907,,,,,,,,,,,,,,,,,,,,,,,,,,,,2155.177969399956,2155.193817299907,2155.193817299907,2155.677105599898,2155.693753799889,2158.1771191000007,2158.1773109999485,None,1.0,,,,,,,,,,,,,,,,,,,,,,,,,,,,,,,,,,,,,,,,,,nback71,1.0,2024-01-23_16h41.22.558,untitled,2023.2.3,59.9244113440032,2024-01-23 17h04.31.855993 -0500,
6.0,"[-0.3, 0]",None,0.0,38.0,38.0,38.0,,,,,,,,,2158.1937314999523,,,,,,,,,,,,,,,,,,,,,,,,,,,,2158.1780297999503,2158.1937314999523,2158.1937314999523,2158.677082899958,2158.69356699998,2161.1770732000005,2161.1772906999104,None,1.0,,,,,,,,,,,,,,,,,,,,,,,,,,,,,,,,,,,,,,,,,,nback71,1.0,2024-01-23_16h41.22.558,untitled,2023.2.3,59.9244113440032,2024-01-23 17h04.31.855993 -0500,
11.0,"[-0.64, -0.4]",space,0.0,39.0,39.0,39.0,,,,,,,,,2161.1936854999512,,,,,,,,,,,,,,,,,,,,,,,,,,,,2161.1781096999766,2161.1936854999512,2161.1936854999512,2161.676887699985,2161.6934148999862,2164.177010799991,2164.1772139999084,space,1.0,0.4712254999903962,None,,,,,,,,,,,,,,,,,,,,,,,,,,,,,,,,,,,,,,,,nback71,1.0,2024-01-23_16h41.22.558,untitled,2023.2.3,59.9244113440032,2024-01-23 17h04.31.855993 -0500,
,,,,,,,,,,,,,,,,,,,,,,,,,,,,,,,,,,,,,,,,,,,,,,,,,,,,,,2164.177935299929,2164.1936002,2164.1936002,2200.811298399931,space,36.607361100032,None,,,,,,,,,,,,,,,,,,,,,,,,,,,,,,,,,nback71,1.0,2024-01-23_16h41.22.558,untitled,2023.2.3,59.9244113440032,2024-01-23 17h04.31.855993 -0500,
10.0,"[0, -0.2]",None,,,,,0.0,0.0,0.0,0.0,,,,,2201.829117899993,,,,,,,,,,,,,,,,,,,,,,,,2200.8113458999437,2200.826275599888,2201.829117899993,2201.810796099948,,,,,,,,,,,,,,,,,,,2201.827100099996,2201.829117899993,2201.829117899993,2202.3259490999626,2202.3428531999234,2204.826286299969,2204.8264680999564,None,1.0,,,,,,,,,,,,,,,,,,,,,,,,nback71,1.0,2024-01-23_16h41.22.558,untitled,2023.2.3,59.9244113440032,2024-01-23 17h04.31.855993 -0500,
5.0,"[0.2, 0.1]",None,,,,,0.0,1.0,1.0,1.0,,,,,2204.842746799928,,,,,,,,,,,,,,,,,,,,,,,,,,,,,,,,,,,,,,,,,,,,,,2204.827324499958,2204.842746799928,2204.842746799928,2205.3265041999985,2205.342690999969,2207.8260700999526,2207.826243699994,None,1.0,,,,,,,,,,,,,,,,,,,,,,,,nback71,1.0,2024-01-23_16h41.22.558,untitled,2023.2.3,59.9244113440032,2024-01-23 17h04.31.855993 -0500,
6.0,"[-0.3, 0]",None,,,,,0.0,2.0,2.0,2.0,,,,,2207.8428460999858,,,,,,,,,,,,,,,,,,,,,,,,,,,,,,,,,,,,,,,,,,,,,,2207.8269899999723,2207.8428460999858,2207.8428460999858,2208.326124999905,2208.3427972999634,2210.826066499925,2210.826267699944,None,1.0,,,,,,,,,,,,,,,,,,,,,,,,nback71,1.0,2024-01-23_16h41.22.558,untitled,2023.2.3,59.9244113440032,2024-01-23 17h04.31.855993 -0500,
6.0,"[-0.3, 0]",space,,,,,0.0,3.0,3.0,3.0,,,,,2210.842820999911,,,,,,,,,,,,,,,,,,,,,,,,,,,,,,,,,,,,,,,,,,,,,,2210.827029899927,2210.842820999911,2210.842820999911,2211.32601119997,2211.3428513999097,2213.826003099908,2213.8261897999328,space,1.0,0.3128711000317707,None,,,,,,,,,,,,,,,,,,,,,,nback71,1.0,2024-01-23_16h41.22.558,untitled,2023.2.3,59.9244113440032,2024-01-23 17h04.31.855993 -0500,
12.0,"[0.64, -0.4]",None,,,,,0.0,4.0,4.0,4.0,,,,,2213.842641099938,,,,,,,,,,,,,,,,,,,,,,,,,,,,,,,,,,,,,,,,,,,,,,2213.8271700999467,2213.842641099938,2213.842641099938,2214.3260786999017,2214.342595999944,2216.8260066999355,2216.8262210999383,None,1.0,,,,,,,,,,,,,,,,,,,,,,,,nback71,1.0,2024-01-23_16h41.22.558,untitled,2023.2.3,59.9244113440032,2024-01-23 17h04.31.855993 -0500,
10.0,"[0, -0.2]",None,,,,,0.0,5.0,5.0,5.0,,,,,2216.842633299995,,,,,,,,,,,,,,,,,,,,,,,,,,,,,,,,,,,,,,,,,,,,,,2216.8270767999347,2216.842633299995,2216.842633299995,2217.326084099943,2217.3426268999465,2219.825909399893,2219.8260796999093,None,1.0,,,,,,,,,,,,,,,,,,,,,,,,nback71,1.0,2024-01-23_16h41.22.558,untitled,2023.2.3,59.9244113440032,2024-01-23 17h04.31.855993 -0500,
2.0,"[0.64, 0.4]",None,,,,,0.0,6.0,6.0,6.0,,,,,2219.8425281998934,,,,,,,,,,,,,,,,,,,,,,,,,,,,,,,,,,,,,,,,,,,,,,2219.826757599949,2219.8425281998934,2219.8425281998934,2220.325883799931,2220.342446699972,2222.825986999902,2222.826203799923,None,1.0,,,,,,,,,,,,,,,,,,,,,,,,nback71,1.0,2024-01-23_16h41.22.558,untitled,2023.2.3,59.9244113440032,2024-01-23 17h04.31.855993 -0500,
9.0,"[0.2, -0.1]",None,,,,,0.0,7.0,7.0,7.0,,,,,2222.842503999942,,,,,,,,,,,,,,,,,,,,,,,,,,,,,,,,,,,,,,,,,,,,,,2222.8270238999976,2222.842503999942,2222.842503999942,2223.325956299901,2223.3425331999315,2225.8259559998987,2225.826177799958,space,0.0,0.4264434999786317,None,,,,,,,,,,,,,,,,,,,,,,nback71,1.0,2024-01-23_16h41.22.558,untitled,2023.2.3,59.9244113440032,2024-01-23 17h04.31.855993 -0500,
9.0,"[0.2, -0.1]",space,,,,,0.0,8.0,8.0,8.0,,,,,2225.842379999929,,,,,,,,,,,,,,,,,,,,,,,,,,,,,,,,,,,,,,,,,,,,,,2225.8271452999907,2225.842379999929,2225.842379999929,2226.325738799991,2226.3424905999564,2228.8262337999186,2228.826450099936,None,0.0,,,,,,,,,,,,,,,,,,,,,,,,nback71,1.0,2024-01-23_16h41.22.558,untitled,2023.2.3,59.9244113440032,2024-01-23 17h04.31.855993 -0500,
6.0,"[-0.3, 0]",None,,,,,0.0,9.0,9.0,9.0,,,,,2228.8422375998925,,,,,,,,,,,,,,,,,,,,,,,,,,,,,,,,,,,,,,,,,,,,,,2228.827338299947,2228.8422375998925,2228.8422375998925,2229.325804799912,2229.3425372999627,2231.825639299932,2231.8258231999357,None,1.0,,,,,,,,,,,,,,,,,,,,,,,,nback71,1.0,2024-01-23_16h41.22.558,untitled,2023.2.3,59.9244113440032,2024-01-23 17h04.31.855993 -0500,
11.0,"[-0.64, -0.4]",None,,,,,0.0,10.0,10.0,10.0,,,,,2231.842265099985,,,,,,,,,,,,,,,,,,,,,,,,,,,,,,,,,,,,,,,,,,,,,,2231.8265664998908,2231.842265099985,2231.842265099985,2232.325529099908,2232.34220319998,2234.8256050999044,2234.8257769999327,None,1.0,,,,,,,,,,,,,,,,,,,,,,,,nback71,1.0,2024-01-23_16h41.22.558,untitled,2023.2.3,59.9244113440032,2024-01-23 17h04.31.855993 -0500,
11.0,"[-0.64, -0.4]",space,,,,,0.0,11.0,11.0,11.0,,,,,2234.8423632999184,,,,,,,,,,,,,,,,,,,,,,,,,,,,,,,,,,,,,,,,,,,,,,2234.8264185999287,2234.8423632999184,2234.8423632999184,2235.3254856999265,2235.3421817999333,2237.825501099928,2237.8257182999514,space,1.0,0.3291635999921709,None,,,,,,,,,,,,,,,,,,,,,,nback71,1.0,2024-01-23_16h41.22.558,untitled,2023.2.3,59.9244113440032,2024-01-23 17h04.31.855993 -0500,
4.0,"[-0.2, 0.1]",None,,,,,0.0,12.0,12.0,12.0,,,,,2237.842363099917,,,,,,,,,,,,,,,,,,,,,,,,,,,,,,,,,,,,,,,,,,,,,,2237.8267002999783,2237.842363099917,2237.842363099917,2238.3256878999528,2238.3422630999703,2240.825553299976,2240.8257331999484,None,1.0,,,,,,,,,,,,,,,,,,,,,,,,nback71,1.0,2024-01-23_16h41.22.558,untitled,2023.2.3,59.9244113440032,2024-01-23 17h04.31.855993 -0500,
3.0,"[0, 0.2]",None,,,,,0.0,13.0,13.0,13.0,,,,,2240.842283799895,,,,,,,,,,,,,,,,,,,,,,,,,,,,,,,,,,,,,,,,,,,,,,2240.8264322999166,2240.842283799895,2240.842283799895,2241.325539799989,2241.342284599901,2243.8256502998997,2243.8258148999885,None,1.0,,,,,,,,,,,,,,,,,,,,,,,,nback71,1.0,2024-01-23_16h41.22.558,untitled,2023.2.3,59.9244113440032,2024-01-23 17h04.31.855993 -0500,
3.0,"[0, 0.2]",space,,,,,0.0,14.0,14.0,14.0,,,,,2243.8421563999727,,,,,,,,,,,,,,,,,,,,,,,,,,,,,,,,,,,,,,,,,,,,,,2243.8264626999157,2243.8421563999727,2243.8421563999727,2244.3252555999206,2244.342174099991,2246.825551499962,2246.8257534999866,space,1.0,0.4363486999645829,None,,,,,,,,,,,,,,,,,,,,,,nback71,1.0,2024-01-23_16h41.22.558,untitled,2023.2.3,59.9244113440032,2024-01-23 17h04.31.855993 -0500,
8.0,"[-0.2, -0.1]",None,,,,,0.0,15.0,15.0,15.0,,,,,2246.8420435999287,,,,,,,,,,,,,,,,,,,,,,,,,,,,,,,,,,,,,,,,,,,,,,2246.8266752999043,2246.8420435999287,2246.8420435999287,2247.325296899886,2247.342160100001,2249.825418099994,2249.825608099927,None,1.0,,,,,,,,,,,,,,,,,,,,,,,,nback71,1.0,2024-01-23_16h41.22.558,untitled,2023.2.3,59.9244113440032,2024-01-23 17h04.31.855993 -0500,
1.0,"[-0.64, 0.4]",None,,,,,0.0,16.0,16.0,16.0,,,,,2249.842128699994,,,,,,,,,,,,,,,,,,,,,,,,,,,,,,,,,,,,,,,,,,,,,,2249.8263416999253,2249.842128699994,2249.842128699994,2250.3251565999817,2250.341982299928,2252.8254897999577,2252.825703599956,None,1.0,,,,,,,,,,,,,,,,,,,,,,,,nback71,1.0,2024-01-23_16h41.22.558,untitled,2023.2.3,59.9244113440032,2024-01-23 17h04.31.855993 -0500,
2.0,"[0.64, 0.4]",None,,,,,0.0,17.0,17.0,17.0,,,,,2252.84206039994,,,,,,,,,,,,,,,,,,,,,,,,,,,,,,,,,,,,,,,,,,,,,,2252.8265250999248,2252.84206039994,2252.84206039994,2253.325163099915,2253.3417721999576,2255.8252687999047,2255.8254604999674,None,1.0,,,,,,,,,,,,,,,,,,,,,,,,nback71,1.0,2024-01-23_16h41.22.558,untitled,2023.2.3,59.9244113440032,2024-01-23 17h04.31.855993 -0500,
4.0,"[-0.2, 0.1]",None,,,,,0.0,18.0,18.0,18.0,,,,,2255.841744299978,,,,,,,,,,,,,,,,,,,,,,,,,,,,,,,,,,,,,,,,,,,,,,2255.8262172999093,2255.841744299978,2255.841744299978,2256.325320199947,2256.3418053999776,2258.825220899889,2258.825401799986,None,1.0,,,,,,,,,,,,,,,,,,,,,,,,nback71,1.0,2024-01-23_16h41.22.558,untitled,2023.2.3,59.9244113440032,2024-01-23 17h04.31.855993 -0500,
4.0,"[-0.2, 0.1]",space,,,,,0.0,19.0,19.0,19.0,,,,,2258.8419903999893,,,,,,,,,,,,,,,,,,,,,,,,,,,,,,,,,,,,,,,,,,,,,,2258.8261032999726,2258.8419903999893,2258.8419903999893,2259.3253293999005,2259.3417816999136,2261.8250277999323,2261.8251706999727,space,1.0,0.3107975999591872,None,,,,,,,,,,,,,,,,,,,,,,nback71,1.0,2024-01-23_16h41.22.558,untitled,2023.2.3,59.9244113440032,2024-01-23 17h04.31.855993 -0500,
8.0,"[-0.2, -0.1]",None,,,,,0.0,20.0,20.0,20.0,,,,,2261.841679099947,,,,,,,,,,,,,,,,,,,,,,,,,,,,,,,,,,,,,,,,,,,,,,2261.8258296999848,2261.841679099947,2261.841679099947,2262.3250638999743,2262.3418433999177,2264.8251363999443,2264.825295699993,None,1.0,,,,,,,,,,,,,,,,,,,,,,,,nback71,1.0,2024-01-23_16h41.22.558,untitled,2023.2.3,59.9244113440032,2024-01-23 17h04.31.855993 -0500,
5.0,"[0.2, 0.1]",None,,,,,0.0,21.0,21.0,21.0,,,,,2264.8416479999432,,,,,,,,,,,,,,,,,,,,,,,,,,,,,,,,,,,,,,,,,,,,,,2264.825996699976,2264.8416479999432,2264.8416479999432,2265.325131299905,2265.341682999977,2267.8250126999337,2267.8252099999227,None,1.0,,,,,,,,,,,,,,,,,,,,,,,,nback71,1.0,2024-01-23_16h41.22.558,untitled,2023.2.3,59.9244113440032,2024-01-23 17h04.31.855993 -0500,
5.0,"[0.2, 0.1]",space,,,,,0.0,22.0,22.0,22.0,,,,,2267.841718899901,,,,,,,,,,,,,,,,,,,,,,,,,,,,,,,,,,,,,,,,,,,,,,2267.8259938999545,2267.841718899901,2267.841718899901,2268.325047899969,2268.3416686999844,2270.825034999987,2270.825233199983,space,1.0,0.3926658000564202,None,,,,,,,,,,,,,,,,,,,,,,nback71,1.0,2024-01-23_16h41.22.558,untitled,2023.2.3,59.9244113440032,2024-01-23 17h04.31.855993 -0500,
1.0,"[-0.64, 0.4]",None,,,,,0.0,23.0,23.0,23.0,,,,,2270.841665999964,,,,,,,,,,,,,,,,,,,,,,,,,,,,,,,,,,,,,,,,,,,,,,2270.8261501999805,2270.841665999964,2270.841665999964,2271.325070899911,2271.3417683999287,2273.825020999997,2273.8252444999525,None,1.0,,,,,,,,,,,,,,,,,,,,,,,,nback71,1.0,2024-01-23_16h41.22.558,untitled,2023.2.3,59.9244113440032,2024-01-23 17h04.31.855993 -0500,
3.0,"[0, 0.2]",None,,,,,0.0,24.0,24.0,24.0,,,,,2273.841781599913,,,,,,,,,,,,,,,,,,,,,,,,,,,,,,,,,,,,,,,,,,,,,,2273.826062899898,2273.841781599913,2273.841781599913,2274.325167599949,2274.3413325999863,2276.825021899888,2276.825208799913,None,1.0,,,,,,,,,,,,,,,,,,,,,,,,nback71,1.0,2024-01-23_16h41.22.558,untitled,2023.2.3,59.9244113440032,2024-01-23 17h04.31.855993 -0500,
6.0,"[-0.3, 0]",None,,,,,0.0,25.0,25.0,25.0,,,,,2276.8415898999665,,,,,,,,,,,,,,,,,,,,,,,,,,,,,,,,,,,,,,,,,,,,,,2276.8260191999143,2276.8415898999665,2276.8415898999665,2277.3250392999034,2277.3415843999246,2279.824959399993,2279.825160999899,None,1.0,,,,,,,,,,,,,,,,,,,,,,,,nback71,1.0,2024-01-23_16h41.22.558,untitled,2023.2.3,59.9244113440032,2024-01-23 17h04.31.855993 -0500,
1.0,"[-0.64, 0.4]",None,,,,,0.0,26.0,26.0,26.0,,,,,2279.841555599938,,,,,,,,,,,,,,,,,,,,,,,,,,,,,,,,,,,,,,,,,,,,,,2279.8259788999567,2279.841555599938,2279.841555599938,2280.3249821999343,2280.3417253999505,2282.8249501999235,2282.825142899994,None,1.0,,,,,,,,,,,,,,,,,,,,,,,,nback71,1.0,2024-01-23_16h41.22.558,untitled,2023.2.3,59.9244113440032,2024-01-23 17h04.31.855993 -0500,
1.0,"[-0.64, 0.4]",space,,,,,0.0,27.0,27.0,27.0,,,,,2282.841482399963,,,,,,,,,,,,,,,,,,,,,,,,,,,,,,,,,,,,,,,,,,,,,,2282.82590899989,2282.841482399963,2282.841482399963,2283.3248159999494,2283.34133309999,2285.824932099902,2285.825149699929,space,1.0,0.3081945000449195,None,,,,,,,,,,,,,,,,,,,,,,nback71,1.0,2024-01-23_16h41.22.558,untitled,2023.2.3,59.9244113440032,2024-01-23 17h04.31.855993 -0500,
1.0,"[-0.64, 0.4]",space,,,,,0.0,28.0,28.0,28.0,,,,,2285.8415002999827,,,,,,,,,,,,,,,,,,,,,,,,,,,,,,,,,,,,,,,,,,,,,,2285.826135499985,2285.8415002999827,2285.8415002999827,2286.324775699992,2286.3414476999315,2288.824711799971,2288.824913799996,None,0.0,,,,,,,,,,,,,,,,,,,,,,,,nback71,1.0,2024-01-23_16h41.22.558,untitled,2023.2.3,59.9244113440032,2024-01-23 17h04.31.855993 -0500,
3.0,"[0, 0.2]",None,,,,,0.0,29.0,29.0,29.0,,,,,2288.841391899972,,,,,,,,,,,,,,,,,,,,,,,,,,,,,,,,,,,,,,,,,,,,,,2288.825674499967,2288.841391899972,2288.841391899972,2289.324697599979,2289.341338899918,2291.8246964999707,2291.824899399886,None,1.0,,,,,,,,,,,,,,,,,,,,,,,,nback71,1.0,2024-01-23_16h41.22.558,untitled,2023.2.3,59.9244113440032,2024-01-23 17h04.31.855993 -0500,
12.0,"[0.64, -0.4]",None,,,,,0.0,30.0,30.0,30.0,,,,,2291.841315299971,,,,,,,,,,,,,,,,,,,,,,,,,,,,,,,,,,,,,,,,,,,,,,2291.825664899894,2291.841315299971,2291.841315299971,2292.324649499962,2292.341289899894,2294.824685300002,2294.824897899991,None,1.0,,,,,,,,,,,,,,,,,,,,,,,,nback71,1.0,2024-01-23_16h41.22.558,untitled,2023.2.3,59.9244113440032,2024-01-23 17h04.31.855993 -0500,
12.0,"[0.64, -0.4]",space,,,,,0.0,31.0,31.0,31.0,,,,,2294.841101799975,,,,,,,,,,,,,,,,,,,,,,,,,,,,,,,,,,,,,,,,,,,,,,2294.8257464999333,2294.841101799975,2294.841101799975,2295.324419099954,2295.3412358999485,2297.824500699993,2297.824712599977,space,1.0,0.404728400055319,None,,,,,,,,,,,,,,,,,,,,,,nback71,1.0,2024-01-23_16h41.22.558,untitled,2023.2.3,59.9244113440032,2024-01-23 17h04.31.855993 -0500,
2.0,"[0.64, 0.4]",None,,,,,0.0,32.0,32.0,32.0,,,,,2297.8413286999566,,,,,,,,,,,,,,,,,,,,,,,,,,,,,,,,,,,,,,,,,,,,,,2297.8257199999643,2297.8413286999566,2297.8413286999566,2298.324524399941,2298.341160699958,2300.8246364999795,2300.8248363999883,None,1.0,,,,,,,,,,,,,,,,,,,,,,,,nback71,1.0,2024-01-23_16h41.22.558,untitled,2023.2.3,59.9244113440032,2024-01-23 17h04.31.855993 -0500,
1.0,"[-0.64, 0.4]",None,,,,,0.0,33.0,33.0,33.0,,,,,2300.841102099977,,,,,,,,,,,,,,,,,,,,,,,,,,,,,,,,,,,,,,,,,,,,,,2300.8255884998944,2300.841102099977,2300.841102099977,2301.324401299935,2301.341100699967,2303.82442859991,2303.8246115999063,None,1.0,,,,,,,,,,,,,,,,,,,,,,,,nback71,1.0,2024-01-23_16h41.22.558,untitled,2023.2.3,59.9244113440032,2024-01-23 17h04.31.855993 -0500,
7.0,"[0.3, 0]",None,,,,,0.0,34.0,34.0,34.0,,,,,2303.841102099977,,,,,,,,,,,,,,,,,,,,,,,,,,,,,,,,,,,,,,,,,,,,,,2303.8253479999257,2303.841102099977,2303.841102099977,2304.324581099907,2304.3409572999226,2306.824570699944,2306.824775099987,None,1.0,,,,,,,,,,,,,,,,,,,,,,,,nback71,1.0,2024-01-23_16h41.22.558,untitled,2023.2.3,59.9244113440032,2024-01-23 17h04.31.855993 -0500,
7.0,"[0.3, 0]",space,,,,,0.0,35.0,35.0,35.0,,,,,2306.841117799981,,,,,,,,,,,,,,,,,,,,,,,,,,,,,,,,,,,,,,,,,,,,,,2306.8255367999664,2306.841117799981,2306.841117799981,2307.324358499958,2307.341156899929,2309.8245501999045,2309.824779699906,space,1.0,0.381153899943456,None,,,,,,,,,,,,,,,,,,,,,,nback71,1.0,2024-01-23_16h41.22.558,untitled,2023.2.3,59.9244113440032,2024-01-23 17h04.31.855993 -0500,
11.0,"[-0.64, -0.4]",None,,,,,0.0,36.0,36.0,36.0,,,,,2309.841020499938,,,,,,,,,,,,,,,,,,,,,,,,,,,,,,,,,,,,,,,,,,,,,,2309.825774699915,2309.841020499938,2309.841020499938,2310.3242966999533,2310.3410160999047,2312.824298099964,2312.824488899904,None,1.0,,,,,,,,,,,,,,,,,,,,,,,,nback71,1.0,2024-01-23_16h41.22.558,untitled,2023.2.3,59.9244113440032,2024-01-23 17h04.31.855993 -0500,
2.0,"[0.64, 0.4]",None,,,,,0.0,37.0,37.0,37.0,,,,,2312.8409439999377,,,,,,,,,,,,,,,,,,,,,,,,,,,,,,,,,,,,,,,,,,,,,,2312.825242699939,2312.8409439999377,2312.8409439999377,2313.324278499931,2313.340961399954,2315.824274899904,2315.8244891999057,None,1.0,,,,,,,,,,,,,,,,,,,,,,,,nback71,1.0,2024-01-23_16h41.22.558,untitled,2023.2.3,59.9244113440032,2024-01-23 17h04.31.855993 -0500,
6.0,"[-0.3, 0]",None,,,,,0.0,38.0,38.0,38.0,,,,,2315.840829499997,,,,,,,,,,,,,,,,,,,,,,,,,,,,,,,,,,,,,,,,,,,,,,2315.825326899998,2315.840829499997,2315.840829499997,2316.324297199957,2316.340743999928,2318.824215099914,2318.824418699951,None,1.0,,,,,,,,,,,,,,,,,,,,,,,,nback71,1.0,2024-01-23_16h41.22.558,untitled,2023.2.3,59.9244113440032,2024-01-23 17h04.31.855993 -0500,
10.0,"[0, -0.2]",None,,,,,0.0,39.0,39.0,39.0,,,,,2318.8408242999576,,,,,,,,,,,,,,,,,,,,,,,,,,,,,,,,,,,,,,,,,,,,,,2318.825154999969,2318.8408242999576,2318.8408242999576,2319.3243034998886,2319.3408311998937,2321.8241676999023,2321.8243732999545,None,1.0,,,,,,,,,,,,,,,,,,,,,,,,nback71,1.0,2024-01-23_16h41.22.558,untitled,2023.2.3,59.9244113440032,2024-01-23 17h04.31.855993 -0500,
,,,,,,,,,,,,,,,,,,,,,,,,,,,,,,,,,,,,,,,,,,,,,,,,,,,,,,,,,,,,,,,,,,,,,,,,2321.8249895999907,2321.840957199922,2321.840957199922,2348.208458599984,space,26.357808399945498,None,,,,,,,,,,,,,,,nback71,1.0,2024-01-23_16h41.22.558,untitled,2023.2.3,59.9244113440032,2024-01-23 17h04.31.855993 -0500,
,"[0.2, 0.1]",None,,,,,,,,,0.0,0.0,0.0,0.0,2349.224833699991,,,,,,,,,,,,,,,,,,,,,,,,2348.2085094999056,2348.2237096999306,2349.224833699991,2349.208043699968,,,,,,,,,,,,,,,,,,,,,,,,,,,,,,,,,,,,,2349.222928699921,2349.224833699991,2349.224833699991,2349.723733199993,2349.740206199931,2352.2236888998887,2352.223874199902,None,1.0,,,,,,nback71,1.0,2024-01-23_16h41.22.558,untitled,2023.2.3,59.9244113440032,2024-01-23 17h04.31.855993 -0500,
,"[0.64, 0.4]",None,,,,,,,,,0.0,1.0,1.0,1.0,2352.240287699969,,,,,,,,,,,,,,,,,,,,,,,,,,,,,,,,,,,,,,,,,,,,,,,,,,,,,,,,,,,,,,,,2352.224743300001,2352.240287699969,2352.240287699969,2352.7236190999392,2352.7402058999287,2355.223346999963,2355.223501599976,None,1.0,,,,,,nback71,1.0,2024-01-23_16h41.22.558,untitled,2023.2.3,59.9244113440032,2024-01-23 17h04.31.855993 -0500,
,"[-0.3, 0]",None,,,,,,,,,0.0,2.0,2.0,2.0,2355.2401109999046,,,,,,,,,,,,,,,,,,,,,,,,,,,,,,,,,,,,,,,,,,,,,,,,,,,,,,,,,,,,,,,,2355.2242150999373,2355.2401109999046,2355.2401109999046,2355.723471799982,2355.740181299974,2358.2235734999413,2358.223768799915,None,1.0,,,,,,nback71,1.0,2024-01-23_16h41.22.558,untitled,2023.2.3,59.9244113440032,2024-01-23 17h04.31.855993 -0500,
,"[0.2, -0.1]",None,,,,,,,,,0.0,3.0,3.0,3.0,2358.2402291999897,,,,,,,,,,,,,,,,,,,,,,,,,,,,,,,,,,,,,,,,,,,,,,,,,,,,,,,,,,,,,,,,2358.22448409989,2358.2402291999897,2358.2402291999897,2358.7235444999533,2358.740104199969,2361.2234982999507,2361.223715099972,None,1.0,,,,,,nback71,1.0,2024-01-23_16h41.22.558,untitled,2023.2.3,59.9244113440032,2024-01-23 17h04.31.855993 -0500,
,"[0, 0.2]",None,,,,,,,,,0.0,4.0,4.0,4.0,2361.2401206999784,,,,,,,,,,,,,,,,,,,,,,,,,,,,,,,,,,,,,,,,,,,,,,,,,,,,,,,,,,,,,,,,2361.2245353999315,2361.2401206999784,2361.2401206999784,2361.7234307999024,2361.739971699892,2364.223278399906,2364.223480499932,None,1.0,,,,,,nback71,1.0,2024-01-23_16h41.22.558,untitled,2023.2.3,59.9244113440032,2024-01-23 17h04.31.855993 -0500,
,"[0.2, -0.1]",space,,,,,,,,,0.0,5.0,5.0,5.0,2364.2399004999315,,,,,,,,,,,,,,,,,,,,,,,,,,,,,,,,,,,,,,,,,,,,,,,,,,,,,,,,,,,,,,,,2364.224219899974,2364.2399004999315,2364.2399004999315,2364.723274899996,2364.740014699986,2367.223532199976,2367.2237449999666,None,0.0,,,,,,nback71,1.0,2024-01-23_16h41.22.558,untitled,2023.2.3,59.9244113440032,2024-01-23 17h04.31.855993 -0500,
,"[0, -0.2]",None,,,,,,,,,0.0,6.0,6.0,6.0,2367.2397926999256,,,,,,,,,,,,,,,,,,,,,,,,,,,,,,,,,,,,,,,,,,,,,,,,,,,,,,,,,,,,,,,,2367.2245933999075,2367.2397926999256,2367.2397926999256,2367.723150999984,2367.739929699921,2370.2234673999483,2370.223688699887,None,1.0,,,,,,nback71,1.0,2024-01-23_16h41.22.558,untitled,2023.2.3,59.9244113440032,2024-01-23 17h04.31.855993 -0500,
,"[0.64, -0.4]",None,,,,,,,,,0.0,7.0,7.0,7.0,2370.239987299894,,,,,,,,,,,,,,,,,,,,,,,,,,,,,,,,,,,,,,,,,,,,,,,,,,,,,,,,,,,,,,,,2370.224524099962,2370.239987299894,2370.239987299894,2370.7232576999813,2370.7396879999437,2373.223334899987,2373.223532999982,None,1.0,,,,,,nback71,1.0,2024-01-23_16h41.22.558,untitled,2023.2.3,59.9244113440032,2024-01-23 17h04.31.855993 -0500,
,"[0.3, 0]",None,,,,,,,,,0.0,8.0,8.0,8.0,2373.239848799887,,,,,,,,,,,,,,,,,,,,,,,,,,,,,,,,,,,,,,,,,,,,,,,,,,,,,,,,,,,,,,,,2373.224347699899,2373.239848799887,2373.239848799887,2373.7231170999585,2373.73982649995,2376.2232015999034,2376.223430099897,None,1.0,,,,,,nback71,1.0,2024-01-23_16h41.22.558,untitled,2023.2.3,59.9244113440032,2024-01-23 17h04.31.855993 -0500,
,"[0.64, -0.4]",space,,,,,,,,,0.0,9.0,9.0,9.0,2376.2397753999103,,,,,,,,,,,,,,,,,,,,,,,,,,,,,,,,,,,,,,,,,,,,,,,,,,,,,,,,,,,,,,,,2376.2242558998987,2376.2397753999103,2376.2397753999103,2376.7232119999826,2376.739767399966,2379.2232286999933,2379.223466199939,space,1.0,2.011844899971038,None,,,,nback71,1.0,2024-01-23_16h41.22.558,untitled,2023.2.3,59.9244113440032,2024-01-23 17h04.31.855993 -0500,
,"[-0.64, 0.4]",None,,,,,,,,,0.0,10.0,10.0,10.0,2379.239709699992,,,,,,,,,,,,,,,,,,,,,,,,,,,,,,,,,,,,,,,,,,,,,,,,,,,,,,,,,,,,,,,,2379.22467149992,2379.239709699992,2379.239709699992,2379.723111099913,2379.739804899902,2382.2230669999262,2382.2232492999174,None,1.0,,,,,,nback71,1.0,2024-01-23_16h41.22.558,untitled,2023.2.3,59.9244113440032,2024-01-23 17h04.31.855993 -0500,
,"[0.2, 0.1]",None,,,,,,,,,0.0,11.0,11.0,11.0,2382.2397429998964,,,,,,,,,,,,,,,,,,,,,,,,,,,,,,,,,,,,,,,,,,,,,,,,,,,,,,,,,,,,,,,,2382.223934599897,2382.2397429998964,2382.2397429998964,2382.72310459998,2382.739461399964,2385.2231187999714,2385.223297899938,None,1.0,,,,,,nback71,1.0,2024-01-23_16h41.22.558,untitled,2023.2.3,59.9244113440032,2024-01-23 17h04.31.855993 -0500,
,"[0.3, 0]",None,,,,,,,,,0.0,12.0,12.0,12.0,2385.2396490999963,,,,,,,,,,,,,,,,,,,,,,,,,,,,,,,,,,,,,,,,,,,,,,,,,,,,,,,,,,,,,,,,2385.224001699942,2385.2396490999963,2385.2396490999963,2385.7230621998897,2385.739765499952,2388.2230362999253,2388.2232503999257,None,1.0,,,,,,nback71,1.0,2024-01-23_16h41.22.558,untitled,2023.2.3,59.9244113440032,2024-01-23 17h04.31.855993 -0500,
,"[0.2, 0.1]",space,,,,,,,,,0.0,13.0,13.0,13.0,2388.2396981999045,,,,,,,,,,,,,,,,,,,,,,,,,,,,,,,,,,,,,,,,,,,,,,,,,,,,,,,,,,,,,,,,2388.224182099919,2388.2396981999045,2388.2396981999045,2388.723019399913,2388.7396496,2391.222947699949,2391.223148899968,space,1.0,1.1676205999683589,None,,,,nback71,1.0,2024-01-23_16h41.22.558,untitled,2023.2.3,59.9244113440032,2024-01-23 17h04.31.855993 -0500,
,"[-0.3, 0]",None,,,,,,,,,0.0,14.0,14.0,14.0,2391.239700099919,,,,,,,,,,,,,,,,,,,,,,,,,,,,,,,,,,,,,,,,,,,,,,,,,,,,,,,,,,,,,,,,2391.224126099958,2391.239700099919,2391.239700099919,2391.72273499996,2391.739465099992,2394.222904699971,2394.223111099913,None,1.0,,,,,,nback71,1.0,2024-01-23_16h41.22.558,untitled,2023.2.3,59.9244113440032,2024-01-23 17h04.31.855993 -0500,
,"[0, 0.2]",None,,,,,,,,,0.0,15.0,15.0,15.0,2394.2396997999167,,,,,,,,,,,,,,,,,,,,,,,,,,,,,,,,,,,,,,,,,,,,,,,,,,,,,,,,,,,,,,,,2394.2238656999543,2394.2396997999167,2394.2396997999167,2394.722917099949,2394.739344099886,2397.222950699972,2397.223174399929,None,1.0,,,,,,nback71,1.0,2024-01-23_16h41.22.558,untitled,2023.2.3,59.9244113440032,2024-01-23 17h04.31.855993 -0500,
,"[-0.3, 0]",space,,,,,,,,,0.0,16.0,16.0,16.0,2397.239555299981,,,,,,,,,,,,,,,,,,,,,,,,,,,,,,,,,,,,,,,,,,,,,,,,,,,,,,,,,,,,,,,,2397.2240181999514,2397.239555299981,2397.239555299981,2397.722940199892,2397.739474599948,2400.2229504999705,2400.2231515999883,space,1.0,0.3693039999343455,None,,,,nback71,1.0,2024-01-23_16h41.22.558,untitled,2023.2.3,59.9244113440032,2024-01-23 17h04.31.855993 -0500,
,"[-0.64, -0.4]",None,,,,,,,,,0.0,17.0,17.0,17.0,2400.2392402999103,,,,,,,,,,,,,,,,,,,,,,,,,,,,,,,,,,,,,,,,,,,,,,,,,,,,,,,,,,,,,,,,2400.2241075999336,2400.2392402999103,2400.2392402999103,2400.723514399957,2400.7392289999407,2403.2227395999944,2403.222950199968,None,1.0,,,,,,nback71,1.0,2024-01-23_16h41.22.558,untitled,2023.2.3,59.9244113440032,2024-01-23 17h04.31.855993 -0500,
,"[-0.2, -0.1]",None,,,,,,,,,0.0,18.0,18.0,18.0,2403.23956659995,,,,,,,,,,,,,,,,,,,,,,,,,,,,,,,,,,,,,,,,,,,,,,,,,,,,,,,,,,,,,,,,2403.2237143999664,2403.23956659995,2403.23956659995,2403.7227137999143,2403.7394198999973,2406.2227319999365,2406.2229484999552,None,1.0,,,,,,nback71,1.0,2024-01-23_16h41.22.558,untitled,2023.2.3,59.9244113440032,2024-01-23 17h04.31.855993 -0500,
,"[0.2, -0.1]",None,,,,,,,,,0.0,19.0,19.0,19.0,2406.239305699942,,,,,,,,,,,,,,,,,,,,,,,,,,,,,,,,,,,,,,,,,,,,,,,,,,,,,,,,,,,,,,,,2406.223796199891,2406.239305699942,2406.239305699942,2406.7227953999536,2406.7395109999925,2409.222610699944,2409.2227886999026,None,1.0,,,,,,nback71,1.0,2024-01-23_16h41.22.558,untitled,2023.2.3,59.9244113440032,2024-01-23 17h04.31.855993 -0500,
,"[0.2, -0.1]",None,,,,,,,,,0.0,20.0,20.0,20.0,2409.239253199892,,,,,,,,,,,,,,,,,,,,,,,,,,,,,,,,,,,,,,,,,,,,,,,,,,,,,,,,,,,,,,,,2409.2234585999977,2409.239253199892,2409.239253199892,2409.722634099889,2409.739244799945,2412.2226441999665,2412.2228799998998,None,1.0,,,,,,nback71,1.0,2024-01-23_16h41.22.558,untitled,2023.2.3,59.9244113440032,2024-01-23 17h04.31.855993 -0500,
,"[-0.64, 0.4]",None,,,,,,,,,0.0,21.0,21.0,21.0,2412.239112099982,,,,,,,,,,,,,,,,,,,,,,,,,,,,,,,,,,,,,,,,,,,,,,,,,,,,,,,,,,,,,,,,2412.223688699887,2412.239112099982,2412.239112099982,2412.7226033998886,2412.739093799959,2415.222626499948,2415.2227933999384,None,1.0,,,,,,nback71,1.0,2024-01-23_16h41.22.558,untitled,2023.2.3,59.9244113440032,2024-01-23 17h04.31.855993 -0500,
,"[0, 0.2]",None,,,,,,,,,0.0,22.0,22.0,22.0,2415.238872499904,,,,,,,,,,,,,,,,,,,,,,,,,,,,,,,,,,,,,,,,,,,,,,,,,,,,,,,,,,,,,,,,2415.223341099918,2415.238872499904,2415.238872499904,2415.722461099969,2415.7392970999936,2418.222493999987,2418.222701299936,None,1.0,,,,,,nback71,1.0,2024-01-23_16h41.22.558,untitled,2023.2.3,59.9244113440032,2024-01-23 17h04.31.855993 -0500,
,"[0.64, -0.4]",None,,,,,,,,,0.0,23.0,23.0,23.0,2418.239214399946,,,,,,,,,,,,,,,,,,,,,,,,,,,,,,,,,,,,,,,,,,,,,,,,,,,,,,,,,,,,,,,,2418.2236091999803,2418.239214399946,2418.239214399946,2418.722522199969,2418.7390167999547,2421.2224335999927,2421.2226648998912,None,1.0,,,,,,nback71,1.0,2024-01-23_16h41.22.558,untitled,2023.2.3,59.9244113440032,2024-01-23 17h04.31.855993 -0500,
,"[0, 0.2]",space,,,,,,,,,0.0,24.0,24.0,24.0,2421.239331399905,,,,,,,,,,,,,,,,,,,,,,,,,,,,,,,,,,,,,,,,,,,,,,,,,,,,,,,,,,,,,,,,2421.2234995999606,2421.239331399905,2421.239331399905,2421.7224963998888,2421.7391283999896,2424.2224162999773,2424.222631899989,space,1.0,1.5526036000810564,None,,,,nback71,1.0,2024-01-23_16h41.22.558,untitled,2023.2.3,59.9244113440032,2024-01-23 17h04.31.855993 -0500,
,"[-0.2, 0.1]",None,,,,,,,,,0.0,25.0,25.0,25.0,2424.239060599939,,,,,,,,,,,,,,,,,,,,,,,,,,,,,,,,,,,,,,,,,,,,,,,,,,,,,,,,,,,,,,,,2424.223621299956,2424.239060599939,2424.239060599939,2424.722428899957,2424.7389197999146,2427.222338499967,2427.2225280998973,None,1.0,,,,,,nback71,1.0,2024-01-23_16h41.22.558,untitled,2023.2.3,59.9244113440032,2024-01-23 17h04.31.855993 -0500,
,"[0.3, 0]",None,,,,,,,,,0.0,26.0,26.0,26.0,2427.239013399929,,,,,,,,,,,,,,,,,,,,,,,,,,,,,,,,,,,,,,,,,,,,,,,,,,,,,,,,,,,,,,,,2427.223229899886,2427.239013399929,2427.239013399929,2427.7223293998977,2427.7389542999445,2430.222308999975,2430.2225223999703,None,1.0,,,,,,nback71,1.0,2024-01-23_16h41.22.558,untitled,2023.2.3,59.9244113440032,2024-01-23 17h04.31.855993 -0500,
,"[-0.2, 0.1]",space,,,,,,,,,0.0,27.0,27.0,27.0,2430.2386674999725,,,,,,,,,,,,,,,,,,,,,,,,,,,,,,,,,,,,,,,,,,,,,,,,,,,,,,,,,,,,,,,,2430.223235599929,2430.2386674999725,2430.2386674999725,2430.72240269999,2430.739029399934,2433.2223101999843,2433.222516599926,space,1.0,0.8609393000369892,None,,,,nback71,1.0,2024-01-23_16h41.22.558,untitled,2023.2.3,59.9244113440032,2024-01-23 17h04.31.855993 -0500,
,"[-0.2, 0.1]",None,,,,,,,,,0.0,28.0,28.0,28.0,2433.2389261999638,,,,,,,,,,,,,,,,,,,,,,,,,,,,,,,,,,,,,,,,,,,,,,,,,,,,,,,,,,,,,,,,2433.223525999929,2433.2389261999638,2433.2389261999638,2433.7221844999585,2433.7388805999653,2436.222320199944,2436.2225368999643,None,1.0,,,,,,nback71,1.0,2024-01-23_16h41.22.558,untitled,2023.2.3,59.9244113440032,2024-01-23 17h04.31.855993 -0500,
,"[0.2, 0.1]",None,,,,,,,,,0.0,29.0,29.0,29.0,2436.2388568999013,,,,,,,,,,,,,,,,,,,,,,,,,,,,,,,,,,,,,,,,,,,,,,,,,,,,,,,,,,,,,,,,2436.223357299925,2436.2388568999013,2436.2388568999013,2436.722321899957,2436.7388232999947,2439.2222134999465,2439.222417299985,None,1.0,,,,,,nback71,1.0,2024-01-23_16h41.22.558,untitled,2023.2.3,59.9244113440032,2024-01-23 17h04.31.855993 -0500,
,"[-0.64, -0.4]",None,,,,,,,,,0.0,30.0,30.0,30.0,2439.2387889999663,,,,,,,,,,,,,,,,,,,,,,,,,,,,,,,,,,,,,,,,,,,,,,,,,,,,,,,,,,,,,,,,2439.2231834999984,2439.2387889999663,2439.2387889999663,2439.722024199902,2439.738611499896,2442.222183099948,2442.222364899935,None,1.0,,,,,,nback71,1.0,2024-01-23_16h41.22.558,untitled,2023.2.3,59.9244113440032,2024-01-23 17h04.31.855993 -0500,
,"[0, -0.2]",None,,,,,,,,,0.0,31.0,31.0,31.0,2442.238620799966,,,,,,,,,,,,,,,,,,,,,,,,,,,,,,,,,,,,,,,,,,,,,,,,,,,,,,,,,,,,,,,,2442.2230963999173,2442.238620799966,2442.238620799966,2442.722004899988,2442.7387698999373,2445.2219174999045,2445.222058199928,None,1.0,,,,,,nback71,1.0,2024-01-23_16h41.22.558,untitled,2023.2.3,59.9244113440032,2024-01-23 17h04.31.855993 -0500,
,"[-0.64, -0.4]",space,,,,,,,,,0.0,32.0,32.0,32.0,2445.2384140999056,,,,,,,,,,,,,,,,,,,,,,,,,,,,,,,,,,,,,,,,,,,,,,,,,,,,,,,,,,,,,,,,2445.222604099894,2445.2384140999056,2445.2384140999056,2445.721874599927,2445.738601299934,2448.2219362999317,2448.2221644999227,space,1.0,0.4730327000143006,None,,,,nback71,1.0,2024-01-23_16h41.22.558,untitled,2023.2.3,59.9244113440032,2024-01-23 17h04.31.855993 -0500,
,"[0.64, 0.4]",None,,,,,,,,,0.0,33.0,33.0,33.0,2448.238375499961,,,,,,,,,,,,,,,,,,,,,,,,,,,,,,,,,,,,,,,,,,,,,,,,,,,,,,,,,,,,,,,,2448.2230606999947,2448.238375499961,2448.238375499961,2448.7218697998906,2448.7384919999167,2451.222017699969,2451.222190100001,None,1.0,,,,,,nback71,1.0,2024-01-23_16h41.22.558,untitled,2023.2.3,59.9244113440032,2024-01-23 17h04.31.855993 -0500,
,"[-0.3, 0]",None,,,,,,,,,0.0,34.0,34.0,34.0,2451.238593199989,,,,,,,,,,,,,,,,,,,,,,,,,,,,,,,,,,,,,,,,,,,,,,,,,,,,,,,,,,,,,,,,2451.22284339997,2451.238593199989,2451.238593199989,2451.7220584999304,2451.738634199952,2454.221953699948,2454.2221696999623,None,1.0,,,,,,nback71,1.0,2024-01-23_16h41.22.558,untitled,2023.2.3,59.9244113440032,2024-01-23 17h04.31.855993 -0500,
,"[0.3, 0]",None,,,,,,,,,0.0,35.0,35.0,35.0,2454.2385140999686,,,,,,,,,,,,,,,,,,,,,,,,,,,,,,,,,,,,,,,,,,,,,,,,,,,,,,,,,,,,,,,,2454.2229679999878,2454.2385140999686,2454.2385140999686,2454.721966399928,2454.738389799953,2457.2218080998864,2457.222023999901,None,1.0,,,,,,nback71,1.0,2024-01-23_16h41.22.558,untitled,2023.2.3,59.9244113440032,2024-01-23 17h04.31.855993 -0500,
,"[-0.3, 0]",space,,,,,,,,,0.0,36.0,36.0,36.0,2457.2384216999635,,,,,,,,,,,,,,,,,,,,,,,,,,,,,,,,,,,,,,,,,,,,,,,,,,,,,,,,,,,,,,,,2457.2228448999813,2457.2384216999635,2457.2384216999635,2457.721771399956,2457.7384625999257,2460.2218065999914,2460.222010699916,space,1.0,0.5747418000828475,None,,,,nback71,1.0,2024-01-23_16h41.22.558,untitled,2023.2.3,59.9244113440032,2024-01-23 17h04.31.855993 -0500,
,"[0, -0.2]",None,,,,,,,,,0.0,37.0,37.0,37.0,2460.238407199969,,,,,,,,,,,,,,,,,,,,,,,,,,,,,,,,,,,,,,,,,,,,,,,,,,,,,,,,,,,,,,,,2460.222997499979,2460.238407199969,2460.238407199969,2460.721938499948,2460.738429199904,2463.221618499956,2463.2218280999223,None,1.0,,,,,,nback71,1.0,2024-01-23_16h41.22.558,untitled,2023.2.3,59.9244113440032,2024-01-23 17h04.31.855993 -0500,
,"[0.3, 0]",None,,,,,,,,,0.0,38.0,38.0,38.0,2463.238215099904,,,,,,,,,,,,,,,,,,,,,,,,,,,,,,,,,,,,,,,,,,,,,,,,,,,,,,,,,,,,,,,,2463.222618999891,2463.238215099904,2463.238215099904,2463.7216858998872,2463.738217499922,2466.221613499918,2466.221818399965,None,1.0,,,,,,nback71,1.0,2024-01-23_16h41.22.558,untitled,2023.2.3,59.9244113440032,2024-01-23 17h04.31.855993 -0500,
,"[0.2, 0.1]",None,,,,,,,,,0.0,39.0,39.0,39.0,2466.238241599989,,,,,,,,,,,,,,,,,,,,,,,,,,,,,,,,,,,,,,,,,,,,,,,,,,,,,,,,,,,,,,,,2466.2225184999406,2466.238241599989,2466.238241599989,2466.721575499978,2466.738323699916,2469.2215186998947,2469.2217032999038,None,1.0,,,,,,nback71,1.0,2024-01-23_16h41.22.558,untitled,2023.2.3,59.9244113440032,2024-01-23 17h04.31.855993 -0500,
,,,,,,,,,,,,,,,,,,,,,,,,,,,,,,,,,,,,,,,,,,,,,,,,,,,,,,,,,,,,,,,,,,,,,,,,,,,,,,,,,,,,,,,,,,2469.222190499888,2469.238249899936,2472.221747299889,,,,,,,,
