square,location,corrAns,trials_0.thisRepN,trials_0.thisTrialN,trials_0.thisN,trials_0.thisIndex,trials_1.thisRepN,trials_1.thisTrialN,trials_1.thisN,trials_1.thisIndex,trials_2.thisRepN,trials_2.thisTrialN,trials_2.thisN,trials_2.thisIndex,thisRow.t,notes,Instructions.started,instructions.started,key_resp.started,inst_sq11.started,Instructions.stopped,key_resp.keys,key_resp.rt,key_resp.duration,All.started,sq_1.started,sq_2.started,sq_3.started,sq_4.started,sq_5.started,sq_6.started,sq_7.started,sq_8.started,sq_9.started,sq_10.started,sq_11.started,sq_12.started,All.stopped,Fixation.started,fixation_3.started,fixation_3.stopped,Fixation.stopped,N_back_0_Trial.started,target_square_0.started,response_0.started,fixation_0.started,target_square_0.stopped,fixation_0.stopped,N_back_0_Trial.stopped,response_0.keys,response_0.corr,response_0.rt,response_0.duration,Instructions_1.started,instructions_1.started,key_resp_1.started,Instructions_1.stopped,key_resp_1.keys,key_resp_1.rt,key_resp_1.duration,N_back_1_Trial.started,target_square_1.started,response_1.started,target_square_1.stopped,fixation_1.started,fixation_1.stopped,response_1.stopped,N_back_1_Trial.stopped,response_1.keys,response_1.corr,response_1.rt,response_1.duration,Instructions_2.started,instructions_2.started,key_resp_2.started,Instructions_2.stopped,key_resp_2.keys,key_resp_2.rt,key_resp_2.duration,N_back_2_trials.started,target_square_2.started,response_2.started,fixation_2.started,target_square_2.stopped,fixation_2.stopped,N_back_2_trials.stopped,response_2.keys,response_2.corr,response_2.rt,response_2.duration,End.started,thank_you.started,End.stopped,participant,session,date,expName,psychopyVersion,frameRate,expStart,
,,,,,,,,,,,,,,,,,0.0014391000149771571,0.0037932000122964382,0.0037932000122964382,0.0037932000122964382,1703.5594158000313,space,1703.545137600042,None,,,,,,,,,,,,,,,,,,,,,,,,,,,,,,,,,,,,,,,,,,,,,,,,,,,,,,,,,,,,,,,,,,,,,,nback62,001,2024-01-19_15h27.04.947,untitled,2023.2.3,60.031144150132995,2024-01-19 15h49.54.572113 -0500,
6,"[-0.3, 0]",None,0,0,0,0,,,,,,,,,1705.5784700000077,,,,,,,,,,1703.5594593000133,1703.574691100046,1703.574691100046,1703.574691100046,1703.574691100046,1703.574691100046,1703.574691100046,1703.574691100046,1703.574691100046,1703.574691100046,1703.574691100046,1703.574691100046,1703.574691100046,1704.5587421000237,1704.558768899995,1704.5747305999976,1705.5784700000077,1705.5588933000108,1705.5766071000253,1705.5784700000077,1705.5784700000077,1706.0580213000067,1706.091411900008,1708.5578661000472,1708.5749020000221,None,1,,,,,,,,,,,,,,,,,,,,,,,,,,,,,,,,,,,,,,,,,,,nback62,001,2024-01-19_15h27.04.947,untitled,2023.2.3,60.031144150132995,2024-01-19 15h49.54.572113 -0500,
10,"[0, -0.2]",None,0,1,1,1,,,,,,,,,1708.5912657000008,,,,,,,,,,,,,,,,,,,,,,,,,,,,1708.575360900024,1708.5912657000008,1708.5912657000008,1709.0579117000452,1709.0912480000407,1711.5580362000037,1711.5749404000235,None,1,,,,,,,,,,,,,,,,,,,,,,,,,,,,,,,,,,,,,,,,,,,nback62,001,2024-01-19_15h27.04.947,untitled,2023.2.3,60.031144150132995,2024-01-19 15h49.54.572113 -0500,
11,"[-0.64, -0.4]",space,0,2,2,2,,,,,,,,,1711.5913623000379,,,,,,,,,,,,,,,,,,,,,,,,,,,,1711.575706200034,1711.5913623000379,1711.5913623000379,1712.0579128999962,1712.0911207000026,1714.5578925000154,1714.5748472000123,space,1,0.458719199988991,None,,,,,,,,,,,,,,,,,,,,,,,,,,,,,,,,,,,,,,,,,nback62,001,2024-01-19_15h27.04.947,untitled,2023.2.3,60.031144150132995,2024-01-19 15h49.54.572113 -0500,
12,"[0.64, -0.4]",None,0,3,3,3,,,,,,,,,1714.5911042999942,,,,,,,,,,,,,,,,,,,,,,,,,,,,1714.5760368999909,1714.5911042999942,1714.5911042999942,1715.0579521000036,1715.0912031999906,1717.5578543000156,1717.574626000016,None,1,,,,,,,,,,,,,,,,,,,,,,,,,,,,,,,,,,,,,,,,,,,nback62,001,2024-01-19_15h27.04.947,untitled,2023.2.3,60.031144150132995,2024-01-19 15h49.54.572113 -0500,
1,"[-0.64, 0.4]",None,0,4,4,4,,,,,,,,,1717.5912347999983,,,,,,,,,,,,,,,,,,,,,,,,,,,,1717.5753199000028,1717.5912347999983,1717.5912347999983,1718.0577342000324,1718.0913238000358,1720.5579606000101,1720.5747121000313,None,1,,,,,,,,,,,,,,,,,,,,,,,,,,,,,,,,,,,,,,,,,,,nback62,001,2024-01-19_15h27.04.947,untitled,2023.2.3,60.031144150132995,2024-01-19 15h49.54.572113 -0500,
1,"[-0.64, 0.4]",None,0,5,5,5,,,,,,,,,1720.5913160000346,,,,,,,,,,,,,,,,,,,,,,,,,,,,1720.5755380000337,1720.5913160000346,1720.5913160000346,1721.0579758000094,1721.0913351000054,1723.5577677999972,1723.5747207000386,None,1,,,,,,,,,,,,,,,,,,,,,,,,,,,,,,,,,,,,,,,,,,,nback62,001,2024-01-19_15h27.04.947,untitled,2023.2.3,60.031144150132995,2024-01-19 15h49.54.572113 -0500,
4,"[-0.2, 0.1]",None,0,6,6,6,,,,,,,,,1723.5911366000073,,,,,,,,,,,,,,,,,,,,,,,,,,,,1723.5755360000185,1723.5911366000073,1723.5911366000073,1724.0745355000254,1724.0910654000472,1726.5742699000402,1726.5744243999943,None,1,,,,,,,,,,,,,,,,,,,,,,,,,,,,,,,,,,,,,,,,,,,nback62,001,2024-01-19_15h27.04.947,untitled,2023.2.3,60.031144150132995,2024-01-19 15h49.54.572113 -0500,
5,"[0.2, 0.1]",None,0,7,7,7,,,,,,,,,1726.5909470000188,,,,,,,,,,,,,,,,,,,,,,,,,,,,1726.5749978999957,1726.5909470000188,1726.5909470000188,1727.0743883000105,1727.091060900013,1729.5744481000002,1729.5746246000053,None,1,,,,,,,,,,,,,,,,,,,,,,,,,,,,,,,,,,,,,,,,,,,nback62,001,2024-01-19_15h27.04.947,untitled,2023.2.3,60.031144150132995,2024-01-19 15h49.54.572113 -0500,
11,"[-0.64, -0.4]",space,0,8,8,8,,,,,,,,,1729.591014000005,,,,,,,,,,,,,,,,,,,,,,,,,,,,1729.575324000034,1729.591014000005,1729.591014000005,1730.0741022000439,1730.0906930000056,1732.5742296000244,1732.574496300018,space,1,0.4348584999679588,None,,,,,,,,,,,,,,,,,,,,,,,,,,,,,,,,,,,,,,,,,nback62,001,2024-01-19_15h27.04.947,untitled,2023.2.3,60.031144150132995,2024-01-19 15h49.54.572113 -0500,
9,"[0.2, -0.1]",None,0,9,9,9,,,,,,,,,1732.5908281000447,,,,,,,,,,,,,,,,,,,,,,,,,,,,1732.5753242000355,1732.5908281000447,1732.5908281000447,1733.0742705000448,1733.0908581000404,1735.5743531000335,1735.5745294000371,None,1,,,,,,,,,,,,,,,,,,,,,,,,,,,,,,,,,,,,,,,,,,,nback62,001,2024-01-19_15h27.04.947,untitled,2023.2.3,60.031144150132995,2024-01-19 15h49.54.572113 -0500,
8,"[-0.2, -0.1]",None,0,10,10,10,,,,,,,,,1735.5909897999954,,,,,,,,,,,,,,,,,,,,,,,,,,,,1735.5752231000224,1735.5909897999954,1735.5909897999954,1736.0742559999926,1736.0907713000197,1738.5741429000045,1738.5742993000313,None,1,,,,,,,,,,,,,,,,,,,,,,,,,,,,,,,,,,,,,,,,,,,nback62,001,2024-01-19_15h27.04.947,untitled,2023.2.3,60.031144150132995,2024-01-19 15h49.54.572113 -0500,
9,"[0.2, -0.1]",None,0,11,11,11,,,,,,,,,1738.59081220004,,,,,,,,,,,,,,,,,,,,,,,,,,,,1738.5749114000355,1738.59081220004,1738.59081220004,1739.0742454000283,1739.0908353000414,1741.5739357999992,1741.5740717000444,None,1,,,,,,,,,,,,,,,,,,,,,,,,,,,,,,,,,,,,,,,,,,,nback62,001,2024-01-19_15h27.04.947,untitled,2023.2.3,60.031144150132995,2024-01-19 15h49.54.572113 -0500,
6,"[-0.3, 0]",None,0,12,12,12,,,,,,,,,1741.5905974000343,,,,,,,,,,,,,,,,,,,,,,,,,,,,1741.5745969000272,1741.5905974000343,1741.5905974000343,1742.0740508000017,1742.0907647000276,1744.5742461000336,1744.5744352000183,None,1,,,,,,,,,,,,,,,,,,,,,,,,,,,,,,,,,,,,,,,,,,,nback62,001,2024-01-19_15h27.04.947,untitled,2023.2.3,60.031144150132995,2024-01-19 15h49.54.572113 -0500,
9,"[0.2, -0.1]",None,0,13,13,13,,,,,,,,,1744.59076370002,,,,,,,,,,,,,,,,,,,,,,,,,,,,1744.5751740999985,1744.59076370002,1744.59076370002,1745.0741187999956,1745.090675799991,1747.5739615000202,1747.5741314000334,None,1,,,,,,,,,,,,,,,,,,,,,,,,,,,,,,,,,,,,,,,,,,,nback62,001,2024-01-19_15h27.04.947,untitled,2023.2.3,60.031144150132995,2024-01-19 15h49.54.572113 -0500,
7,"[0.3, 0]",None,0,14,14,14,,,,,,,,,1747.5907237000065,,,,,,,,,,,,,,,,,,,,,,,,,,,,1747.5747758999933,1747.5907237000065,1747.5907237000065,1748.0738947000355,1748.0907171000144,1750.5741318000364,1750.574368200032,None,1,,,,,,,,,,,,,,,,,,,,,,,,,,,,,,,,,,,,,,,,,,,nback62,001,2024-01-19_15h27.04.947,untitled,2023.2.3,60.031144150132995,2024-01-19 15h49.54.572113 -0500,
2,"[0.64, 0.4]",None,0,15,15,15,,,,,,,,,1750.5905377000454,,,,,,,,,,,,,,,,,,,,,,,,,,,,1750.5752213000087,1750.5905377000454,1750.5905377000454,1751.0740446000127,1751.0905085999984,1753.5739514000015,1753.574109200039,None,1,,,,,,,,,,,,,,,,,,,,,,,,,,,,,,,,,,,,,,,,,,,nback62,001,2024-01-19_15h27.04.947,untitled,2023.2.3,60.031144150132995,2024-01-19 15h49.54.572113 -0500,
2,"[0.64, 0.4]",None,0,16,16,16,,,,,,,,,1753.5904413000098,,,,,,,,,,,,,,,,,,,,,,,,,,,,1753.5748036000296,1753.5904413000098,1753.5904413000098,1754.0740402000374,1754.0904817000264,1756.573903600045,1756.5740762000205,None,1,,,,,,,,,,,,,,,,,,,,,,,,,,,,,,,,,,,,,,,,,,,nback62,001,2024-01-19_15h27.04.947,untitled,2023.2.3,60.031144150132995,2024-01-19 15h49.54.572113 -0500,
11,"[-0.64, -0.4]",space,0,17,17,17,,,,,,,,,1756.5904456000426,,,,,,,,,,,,,,,,,,,,,,,,,,,,1756.5747094000108,1756.5904456000426,1756.5904456000426,1757.0738222000073,1757.0903449000325,1759.5739050999982,1759.574114100018,space,1,0.4104630000074394,None,,,,,,,,,,,,,,,,,,,,,,,,,,,,,,,,,,,,,,,,,nback62,001,2024-01-19_15h27.04.947,untitled,2023.2.3,60.031144150132995,2024-01-19 15h49.54.572113 -0500,
11,"[-0.64, -0.4]",space,0,18,18,18,,,,,,,,,1759.590605400037,,,,,,,,,,,,,,,,,,,,,,,,,,,,1759.5750934000243,1759.590605400037,1759.590605400037,1760.0737529000035,1760.0903642000048,1762.573958699999,1762.5741689000279,space,1,0.44618459994671866,None,,,,,,,,,,,,,,,,,,,,,,,,,,,,,,,,,,,,,,,,,nback62,001,2024-01-19_15h27.04.947,untitled,2023.2.3,60.031144150132995,2024-01-19 15h49.54.572113 -0500,
7,"[0.3, 0]",None,0,19,19,19,,,,,,,,,1762.590313200024,,,,,,,,,,,,,,,,,,,,,,,,,,,,1762.5751848000218,1762.590313200024,1762.590313200024,1763.073720400047,1763.0905249000061,1765.5737408000277,1765.5739161000238,None,1,,,,,,,,,,,,,,,,,,,,,,,,,,,,,,,,,,,,,,,,,,,nback62,001,2024-01-19_15h27.04.947,untitled,2023.2.3,60.031144150132995,2024-01-19 15h49.54.572113 -0500,
3,"[0, 0.2]",None,0,20,20,20,,,,,,,,,1765.5903085000464,,,,,,,,,,,,,,,,,,,,,,,,,,,,1765.5746276000282,1765.5903085000464,1765.5903085000464,1766.0735838999972,1766.090406900039,1768.573680600035,1768.573868700012,None,1,,,,,,,,,,,,,,,,,,,,,,,,,,,,,,,,,,,,,,,,,,,nback62,001,2024-01-19_15h27.04.947,untitled,2023.2.3,60.031144150132995,2024-01-19 15h49.54.572113 -0500,
10,"[0, -0.2]",None,0,21,21,21,,,,,,,,,1768.5903124000179,,,,,,,,,,,,,,,,,,,,,,,,,,,,1768.5746064000414,1768.5903124000179,1768.5903124000179,1769.0735717000207,1769.090286599996,1771.5736609000014,1771.5738376000081,None,1,,,,,,,,,,,,,,,,,,,,,,,,,,,,,,,,,,,,,,,,,,,nback62,001,2024-01-19_15h27.04.947,untitled,2023.2.3,60.031144150132995,2024-01-19 15h49.54.572113 -0500,
1,"[-0.64, 0.4]",None,0,22,22,22,,,,,,,,,1771.5902425000095,,,,,,,,,,,,,,,,,,,,,,,,,,,,1771.574642200023,1771.5902425000095,1771.5902425000095,1772.073416500003,1772.09000190004,1774.5734599000425,1774.5736164000118,None,1,,,,,,,,,,,,,,,,,,,,,,,,,,,,,,,,,,,,,,,,,,,nback62,001,2024-01-19_15h27.04.947,untitled,2023.2.3,60.031144150132995,2024-01-19 15h49.54.572113 -0500,
2,"[0.64, 0.4]",None,0,23,23,23,,,,,,,,,1774.590069900034,,,,,,,,,,,,,,,,,,,,,,,,,,,,1774.5742350000073,1774.590069900034,1774.590069900034,1775.0734396000043,1775.0901131000137,1777.5736218999955,1777.5738432999933,None,1,,,,,,,,,,,,,,,,,,,,,,,,,,,,,,,,,,,,,,,,,,,nback62,001,2024-01-19_15h27.04.947,untitled,2023.2.3,60.031144150132995,2024-01-19 15h49.54.572113 -0500,
6,"[-0.3, 0]",None,0,24,24,24,,,,,,,,,1777.5901487999945,,,,,,,,,,,,,,,,,,,,,,,,,,,,1777.5746543999994,1777.5901487999945,1777.5901487999945,1778.0735386000015,1778.0901011000387,1780.573524700012,1780.5737037000363,None,1,,,,,,,,,,,,,,,,,,,,,,,,,,,,,,,,,,,,,,,,,,,nback62,001,2024-01-19_15h27.04.947,untitled,2023.2.3,60.031144150132995,2024-01-19 15h49.54.572113 -0500,
3,"[0, 0.2]",None,0,25,25,25,,,,,,,,,1780.5900777000352,,,,,,,,,,,,,,,,,,,,,,,,,,,,1780.5743843000382,1780.5900777000352,1780.5900777000352,1781.073405400035,1781.0901065000216,1783.5735197000322,1783.5737176000257,None,1,,,,,,,,,,,,,,,,,,,,,,,,,,,,,,,,,,,,,,,,,,,nback62,001,2024-01-19_15h27.04.947,untitled,2023.2.3,60.031144150132995,2024-01-19 15h49.54.572113 -0500,
11,"[-0.64, -0.4]",space,0,26,26,26,,,,,,,,,1783.590096400003,,,,,,,,,,,,,,,,,,,,,,,,,,,,1783.574477599992,1783.590096400003,1783.590096400003,1784.0733929999988,1784.0900323000387,1786.5732103000046,1786.573376400047,space,1,0.49395100004039705,None,,,,,,,,,,,,,,,,,,,,,,,,,,,,,,,,,,,,,,,,,nback62,001,2024-01-19_15h27.04.947,untitled,2023.2.3,60.031144150132995,2024-01-19 15h49.54.572113 -0500,
1,"[-0.64, 0.4]",None,0,27,27,27,,,,,,,,,1786.5900400000392,,,,,,,,,,,,,,,,,,,,,,,,,,,,1786.5742638999945,1786.5900400000392,1786.5900400000392,1787.073270199995,1787.0897770000156,1789.5732916000416,1789.5734457999934,None,1,,,,,,,,,,,,,,,,,,,,,,,,,,,,,,,,,,,,,,,,,,,nback62,001,2024-01-19_15h27.04.947,untitled,2023.2.3,60.031144150132995,2024-01-19 15h49.54.572113 -0500,
3,"[0, 0.2]",None,0,28,28,28,,,,,,,,,1789.58991650003,,,,,,,,,,,,,,,,,,,,,,,,,,,,1789.5740364000085,1789.58991650003,1789.58991650003,1790.073254499992,1790.0899258000427,1792.5732030000072,1792.573370500002,None,1,,,,,,,,,,,,,,,,,,,,,,,,,,,,,,,,,,,,,,,,,,,nback62,001,2024-01-19_15h27.04.947,untitled,2023.2.3,60.031144150132995,2024-01-19 15h49.54.572113 -0500,
9,"[0.2, -0.1]",None,0,29,29,29,,,,,,,,,1792.5897222000058,,,,,,,,,,,,,,,,,,,,,,,,,,,,1792.574095399992,1792.5897222000058,1792.5897222000058,1793.073221400031,1793.0898520000046,1795.5732605000376,1795.5734613999957,None,1,,,,,,,,,,,,,,,,,,,,,,,,,,,,,,,,,,,,,,,,,,,nback62,001,2024-01-19_15h27.04.947,untitled,2023.2.3,60.031144150132995,2024-01-19 15h49.54.572113 -0500,
8,"[-0.2, -0.1]",None,0,30,30,30,,,,,,,,,1795.5899420999922,,,,,,,,,,,,,,,,,,,,,,,,,,,,1795.5742228000308,1795.5899420999922,1795.5899420999922,1796.073316599999,1796.0899073000182,1798.5730938999914,1798.5732901000301,None,1,,,,,,,,,,,,,,,,,,,,,,,,,,,,,,,,,,,,,,,,,,,nback62,001,2024-01-19_15h27.04.947,untitled,2023.2.3,60.031144150132995,2024-01-19 15h49.54.572113 -0500,
12,"[0.64, -0.4]",None,0,31,31,31,,,,,,,,,1798.5896988000022,,,,,,,,,,,,,,,,,,,,,,,,,,,,1798.574046600028,1798.5896988000022,1798.5896988000022,1799.0731131000211,1799.0897433999926,1801.5730380000314,1801.5732302000397,None,1,,,,,,,,,,,,,,,,,,,,,,,,,,,,,,,,,,,,,,,,,,,nback62,001,2024-01-19_15h27.04.947,untitled,2023.2.3,60.031144150132995,2024-01-19 15h49.54.572113 -0500,
9,"[0.2, -0.1]",None,0,32,32,32,,,,,,,,,1801.5896337000304,,,,,,,,,,,,,,,,,,,,,,,,,,,,1801.5738664999953,1801.5896337000304,1801.5896337000304,1802.0730331999948,1802.089701000019,1804.5731291000266,1804.5733088999987,None,1,,,,,,,,,,,,,,,,,,,,,,,,,,,,,,,,,,,,,,,,,,,nback62,001,2024-01-19_15h27.04.947,untitled,2023.2.3,60.031144150132995,2024-01-19 15h49.54.572113 -0500,
11,"[-0.64, -0.4]",space,0,33,33,33,,,,,,,,,1804.5897773000179,,,,,,,,,,,,,,,,,,,,,,,,,,,,1804.5740181000438,1804.5897773000179,1804.5897773000179,1805.073017399991,1805.0896023000241,1807.5730907000252,1807.5732898000279,space,1,0.40513889997964725,None,,,,,,,,,,,,,,,,,,,,,,,,,,,,,,,,,,,,,,,,,nback62,001,2024-01-19_15h27.04.947,untitled,2023.2.3,60.031144150132995,2024-01-19 15h49.54.572113 -0500,
7,"[0.3, 0]",None,0,34,34,34,,,,,,,,,1807.5895923000062,,,,,,,,,,,,,,,,,,,,,,,,,,,,1807.574150200002,1807.5895923000062,1807.5895923000062,1808.0730942999944,1808.0895997000043,1810.5728735000012,1810.573062200041,None,1,,,,,,,,,,,,,,,,,,,,,,,,,,,,,,,,,,,,,,,,,,,nback62,001,2024-01-19_15h27.04.947,untitled,2023.2.3,60.031144150132995,2024-01-19 15h49.54.572113 -0500,
11,"[-0.64, -0.4]",space,0,35,35,35,,,,,,,,,1810.589613899996,,,,,,,,,,,,,,,,,,,,,,,,,,,,1810.5738589999964,1810.589613899996,1810.589613899996,1811.0729216000182,1811.0893775000004,1813.5729724999983,1813.5731602000305,space,1,0.5336229999666102,None,,,,,,,,,,,,,,,,,,,,,,,,,,,,,,,,,,,,,,,,,nback62,001,2024-01-19_15h27.04.947,untitled,2023.2.3,60.031144150132995,2024-01-19 15h49.54.572113 -0500,
4,"[-0.2, 0.1]",None,0,36,36,36,,,,,,,,,1813.5896085000131,,,,,,,,,,,,,,,,,,,,,,,,,,,,1813.5740258000442,1813.5896085000131,1813.5896085000131,1814.073016600043,1814.0895996000036,1816.5728611000231,1816.5730586000136,None,1,,,,,,,,,,,,,,,,,,,,,,,,,,,,,,,,,,,,,,,,,,,nback62,001,2024-01-19_15h27.04.947,untitled,2023.2.3,60.031144150132995,2024-01-19 15h49.54.572113 -0500,
5,"[0.2, 0.1]",None,0,37,37,37,,,,,,,,,1816.5894621000043,,,,,,,,,,,,,,,,,,,,,,,,,,,,1816.5738026000326,1816.5894621000043,1816.5894621000043,1817.0728088000324,1817.0894729000283,1819.5725415000343,1819.5726421000436,None,1,,,,,,,,,,,,,,,,,,,,,,,,,,,,,,,,,,,,,,,,,,,nback62,001,2024-01-19_15h27.04.947,untitled,2023.2.3,60.031144150132995,2024-01-19 15h49.54.572113 -0500,
6,"[-0.3, 0]",None,0,38,38,38,,,,,,,,,1819.589250500023,,,,,,,,,,,,,,,,,,,,,,,,,,,,1819.5730142000248,1819.589250500023,1819.589250500023,1820.0727185000433,1820.0892818000284,1822.5725161000155,1822.5726135000004,None,1,,,,,,,,,,,,,,,,,,,,,,,,,,,,,,,,,,,,,,,,,,,nback62,001,2024-01-19_15h27.04.947,untitled,2023.2.3,60.031144150132995,2024-01-19 15h49.54.572113 -0500,
11,"[-0.64, -0.4]",space,0,39,39,39,,,,,,,,,1822.589217700006,,,,,,,,,,,,,,,,,,,,,,,,,,,,1822.5729734000051,1822.589217700006,1822.589217700006,1823.0725347000407,1823.0892363000312,1825.5725227000075,1825.5726208999986,space,1,0.3510482999845408,None,,,,,,,,,,,,,,,,,,,,,,,,,,,,,,,,,,,,,,,,,nback62,001,2024-01-19_15h27.04.947,untitled,2023.2.3,60.031144150132995,2024-01-19 15h49.54.572113 -0500,
,,,,,,,,,,,,,,,,,,,,,,,,,,,,,,,,,,,,,,,,,,,,,,,,,,,,,,1825.5729524000199,1825.5893306999933,1825.5893306999933,1840.6906332999934,space,15.089918800047599,None,,,,,,,,,,,,,,,,,,,,,,,,,,,,,,,,,,nback62,001,2024-01-19_15h27.04.947,untitled,2023.2.3,60.031144150132995,2024-01-19 15h49.54.572113 -0500,
10,"[0, -0.2]",None,,,,,0,0,0,0,,,,,1841.7063256000401,,,,,,,,,,,,,,,,,,,,,,,,1840.6906761000282,1840.7056691999896,1841.7063256000401,1841.6897763000452,,,,,,,,,,,,,,,,,,,1841.7043148000375,1841.7063256000401,1841.7063256000401,1842.2056516000303,1842.2056516000303,1844.7056239999947,1844.7056239999947,1844.6896949000075,None,1,,,,,,,,,,,,,,,,,,,,,,,,nback62,001,2024-01-19_15h27.04.947,untitled,2023.2.3,60.031144150132995,2024-01-19 15h49.54.572113 -0500,
5,"[0.2, 0.1]",None,,,,,0,1,1,1,,,,,1844.7056239999947,,,,,,,,,,,,,,,,,,,,,,,,,,,,,,,,,,,,,,,,,,,,,,1844.6906799999997,1844.7056239999947,1844.7056239999947,1845.205760700046,1845.205760700046,1847.7054901000229,1847.7054901000229,1847.6897795000114,None,1,,,,,,,,,,,,,,,,,,,,,,,,nback62,001,2024-01-19_15h27.04.947,untitled,2023.2.3,60.031144150132995,2024-01-19 15h49.54.572113 -0500,
6,"[-0.3, 0]",None,,,,,0,2,2,2,,,,,1847.7054901000229,,,,,,,,,,,,,,,,,,,,,,,,,,,,,,,,,,,,,,,,,,,,,,1847.6904704000335,1847.7054901000229,1847.7054901000229,1848.2055886000162,1848.2055886000162,1850.7055161000462,1850.7055161000462,1850.6897995999898,None,1,,,,,,,,,,,,,,,,,,,,,,,,nback62,001,2024-01-19_15h27.04.947,untitled,2023.2.3,60.031144150132995,2024-01-19 15h49.54.572113 -0500,
6,"[-0.3, 0]",space,,,,,0,3,3,3,,,,,1850.7055161000462,,,,,,,,,,,,,,,,,,,,,,,,,,,,,,,,,,,,,,,,,,,,,,1850.6905628000386,1850.7055161000462,1850.7055161000462,1851.2054281000164,1851.2054281000164,1853.7054016000475,1853.7054016000475,1853.689668200037,space,1,0.704158800013829,None,,,,,,,,,,,,,,,,,,,,,,nback62,001,2024-01-19_15h27.04.947,untitled,2023.2.3,60.031144150132995,2024-01-19 15h49.54.572113 -0500,
12,"[0.64, -0.4]",None,,,,,0,4,4,4,,,,,1853.7054016000475,,,,,,,,,,,,,,,,,,,,,,,,,,,,,,,,,,,,,,,,,,,,,,1853.690728400019,1853.7054016000475,1853.7054016000475,1854.2056927999947,1854.2056927999947,1856.7054348000092,1856.7054348000092,1856.6895635999972,None,1,,,,,,,,,,,,,,,,,,,,,,,,nback62,001,2024-01-19_15h27.04.947,untitled,2023.2.3,60.031144150132995,2024-01-19 15h49.54.572113 -0500,
10,"[0, -0.2]",None,,,,,0,5,5,5,,,,,1856.7054348000092,,,,,,,,,,,,,,,,,,,,,,,,,,,,,,,,,,,,,,,,,,,,,,1856.690170900023,1856.7054348000092,1856.7054348000092,1857.2055967000197,1857.2055967000197,1859.705274100008,1859.705274100008,1859.6894504000084,None,1,,,,,,,,,,,,,,,,,,,,,,,,nback62,001,2024-01-19_15h27.04.947,untitled,2023.2.3,60.031144150132995,2024-01-19 15h49.54.572113 -0500,
2,"[0.64, 0.4]",None,,,,,0,6,6,6,,,,,1859.705274100008,,,,,,,,,,,,,,,,,,,,,,,,,,,,,,,,,,,,,,,,,,,,,,1859.6899857000099,1859.705274100008,1859.705274100008,1860.2054732000106,1860.2054732000106,1862.7052627000376,1862.7052627000376,1862.689722900046,None,1,,,,,,,,,,,,,,,,,,,,,,,,nback62,001,2024-01-19_15h27.04.947,untitled,2023.2.3,60.031144150132995,2024-01-19 15h49.54.572113 -0500,
9,"[0.2, -0.1]",None,,,,,0,7,7,7,,,,,1862.7052627000376,,,,,,,,,,,,,,,,,,,,,,,,,,,,,,,,,,,,,,,,,,,,,,1862.6904978000093,1862.7052627000376,1862.7052627000376,1863.2053212000174,1863.2053212000174,1865.7052029999904,1865.7052029999904,1865.6888408000232,None,1,,,,,,,,,,,,,,,,,,,,,,,,nback62,001,2024-01-19_15h27.04.947,untitled,2023.2.3,60.031144150132995,2024-01-19 15h49.54.572113 -0500,
9,"[0.2, -0.1]",space,,,,,0,8,8,8,,,,,1865.7052029999904,,,,,,,,,,,,,,,,,,,,,,,,,,,,,,,,,,,,,,,,,,,,,,1865.6891541000223,1865.7052029999904,1865.7052029999904,1866.2053074000287,1866.2053074000287,1868.7051903000101,1868.7051903000101,1868.6897178000072,space,1,0.3592229000059888,None,,,,,,,,,,,,,,,,,,,,,,nback62,001,2024-01-19_15h27.04.947,untitled,2023.2.3,60.031144150132995,2024-01-19 15h49.54.572113 -0500,
6,"[-0.3, 0]",None,,,,,0,9,9,9,,,,,1868.7051903000101,,,,,,,,,,,,,,,,,,,,,,,,,,,,,,,,,,,,,,,,,,,,,,1868.6907086000429,1868.7051903000101,1868.7051903000101,1869.2053796999971,1869.2053796999971,1871.7051429999992,1871.7051429999992,1871.6893632000429,None,1,,,,,,,,,,,,,,,,,,,,,,,,nback62,001,2024-01-19_15h27.04.947,untitled,2023.2.3,60.031144150132995,2024-01-19 15h49.54.572113 -0500,
11,"[-0.64, -0.4]",None,,,,,0,10,10,10,,,,,1871.7051429999992,,,,,,,,,,,,,,,,,,,,,,,,,,,,,,,,,,,,,,,,,,,,,,1871.6899965000339,1871.7051429999992,1871.7051429999992,1872.2050980000058,1872.2050980000058,1874.7051006000256,1874.7051006000256,1874.6891887999955,None,1,,,,,,,,,,,,,,,,,,,,,,,,nback62,001,2024-01-19_15h27.04.947,untitled,2023.2.3,60.031144150132995,2024-01-19 15h49.54.572113 -0500,
11,"[-0.64, -0.4]",space,,,,,0,11,11,11,,,,,1874.7051006000256,,,,,,,,,,,,,,,,,,,,,,,,,,,,,,,,,,,,,,,,,,,,,,1874.6898013000027,1874.7051006000256,1874.7051006000256,1875.2057128000306,1875.2057128000306,1877.7051176000386,1877.7051176000386,1877.689244600013,space,1,0.45071309997001663,None,,,,,,,,,,,,,,,,,,,,,,nback62,001,2024-01-19_15h27.04.947,untitled,2023.2.3,60.031144150132995,2024-01-19 15h49.54.572113 -0500,
4,"[-0.2, 0.1]",None,,,,,0,12,12,12,,,,,1877.7051176000386,,,,,,,,,,,,,,,,,,,,,,,,,,,,,,,,,,,,,,,,,,,,,,1877.6900550000137,1877.7051176000386,1877.7051176000386,1878.2051082000253,1878.2051082000253,1880.705111999996,1880.705111999996,1880.6894351000083,None,1,,,,,,,,,,,,,,,,,,,,,,,,nback62,001,2024-01-19_15h27.04.947,untitled,2023.2.3,60.031144150132995,2024-01-19 15h49.54.572113 -0500,
3,"[0, 0.2]",None,,,,,0,13,13,13,,,,,1880.705111999996,,,,,,,,,,,,,,,,,,,,,,,,,,,,,,,,,,,,,,,,,,,,,,1880.6902529000072,1880.705111999996,1880.705111999996,1881.2050397000276,1881.2050397000276,1883.7050617000205,1883.7050617000205,1883.6894651000039,None,1,,,,,,,,,,,,,,,,,,,,,,,,nback62,001,2024-01-19_15h27.04.947,untitled,2023.2.3,60.031144150132995,2024-01-19 15h49.54.572113 -0500,
3,"[0, 0.2]",space,,,,,0,14,14,14,,,,,1883.7050617000205,,,,,,,,,,,,,,,,,,,,,,,,,,,,,,,,,,,,,,,,,,,,,,1883.6903040999896,1883.7050617000205,1883.7050617000205,1884.2049636000302,1884.2049636000302,1886.7051471000304,1886.7051471000304,1886.6894148000283,space,1,0.4102322000544518,None,,,,,,,,,,,,,,,,,,,,,,nback62,001,2024-01-19_15h27.04.947,untitled,2023.2.3,60.031144150132995,2024-01-19 15h49.54.572113 -0500,
8,"[-0.2, -0.1]",None,,,,,0,15,15,15,,,,,1886.7051471000304,,,,,,,,,,,,,,,,,,,,,,,,,,,,,,,,,,,,,,,,,,,,,,1886.6904258000432,1886.7051471000304,1886.7051471000304,1887.2050441000029,1887.2050441000029,1889.7048246000195,1889.7048246000195,1889.6890793000348,None,1,,,,,,,,,,,,,,,,,,,,,,,,nback62,001,2024-01-19_15h27.04.947,untitled,2023.2.3,60.031144150132995,2024-01-19 15h49.54.572113 -0500,
1,"[-0.64, 0.4]",None,,,,,0,16,16,16,,,,,1889.7048246000195,,,,,,,,,,,,,,,,,,,,,,,,,,,,,,,,,,,,,,,,,,,,,,1889.6898155999952,1889.7048246000195,1889.7048246000195,1890.2049535000115,1890.2049535000115,1892.7047203000402,1892.7047203000402,1892.6887577000307,None,1,,,,,,,,,,,,,,,,,,,,,,,,nback62,001,2024-01-19_15h27.04.947,untitled,2023.2.3,60.031144150132995,2024-01-19 15h49.54.572113 -0500,
2,"[0.64, 0.4]",None,,,,,0,17,17,17,,,,,1892.7047203000402,,,,,,,,,,,,,,,,,,,,,,,,,,,,,,,,,,,,,,,,,,,,,,1892.6892739000032,1892.7047203000402,1892.7047203000402,1893.2048597999965,1893.2048597999965,1895.7048253000248,1895.7048253000248,1895.688884800009,None,1,,,,,,,,,,,,,,,,,,,,,,,,nback62,001,2024-01-19_15h27.04.947,untitled,2023.2.3,60.031144150132995,2024-01-19 15h49.54.572113 -0500,
4,"[-0.2, 0.1]",None,,,,,0,18,18,18,,,,,1895.7048253000248,,,,,,,,,,,,,,,,,,,,,,,,,,,,,,,,,,,,,,,,,,,,,,1895.689528100018,1895.7048253000248,1895.7048253000248,1896.2048006000114,1896.2048006000114,1898.7046662000357,1898.7046662000357,1898.6888383000041,None,1,,,,,,,,,,,,,,,,,,,,,,,,nback62,001,2024-01-19_15h27.04.947,untitled,2023.2.3,60.031144150132995,2024-01-19 15h49.54.572113 -0500,
4,"[-0.2, 0.1]",space,,,,,0,19,19,19,,,,,1898.7046662000357,,,,,,,,,,,,,,,,,,,,,,,,,,,,,,,,,,,,,,,,,,,,,,1898.689368900028,1898.7046662000357,1898.7046662000357,1899.2048081000103,1899.2048081000103,1901.7047134000459,1901.7047134000459,1901.6890536000137,space,1,0.6168588000000454,None,,,,,,,,,,,,,,,,,,,,,,nback62,001,2024-01-19_15h27.04.947,untitled,2023.2.3,60.031144150132995,2024-01-19 15h49.54.572113 -0500,
8,"[-0.2, -0.1]",None,,,,,0,20,20,20,,,,,1901.7047134000459,,,,,,,,,,,,,,,,,,,,,,,,,,,,,,,,,,,,,,,,,,,,,,1901.6900277000386,1901.7047134000459,1901.7047134000459,1902.2047528999974,1902.2047528999974,1904.7046940000146,1904.7046940000146,1904.6888507000403,None,1,,,,,,,,,,,,,,,,,,,,,,,,nback62,001,2024-01-19_15h27.04.947,untitled,2023.2.3,60.031144150132995,2024-01-19 15h49.54.572113 -0500,
5,"[0.2, 0.1]",None,,,,,0,21,21,21,,,,,1904.7046940000146,,,,,,,,,,,,,,,,,,,,,,,,,,,,,,,,,,,,,,,,,,,,,,1904.6896652000141,1904.7046940000146,1904.7046940000146,1905.2046890000347,1905.2046890000347,1907.7045580000267,1907.7045580000267,1907.6886641000165,None,1,,,,,,,,,,,,,,,,,,,,,,,,nback62,001,2024-01-19_15h27.04.947,untitled,2023.2.3,60.031144150132995,2024-01-19 15h49.54.572113 -0500,
5,"[0.2, 0.1]",space,,,,,0,22,22,22,,,,,1907.7045580000267,,,,,,,,,,,,,,,,,,,,,,,,,,,,,,,,,,,,,,,,,,,,,,1907.689389200008,1907.7045580000267,1907.7045580000267,1908.2046500000288,1908.2046500000288,1910.704573600029,1910.704573600029,1910.6886711000116,space,1,0.46691349998582155,None,,,,,,,,,,,,,,,,,,,,,,nback62,001,2024-01-19_15h27.04.947,untitled,2023.2.3,60.031144150132995,2024-01-19 15h49.54.572113 -0500,
1,"[-0.64, 0.4]",None,,,,,0,23,23,23,,,,,1910.704573600029,,,,,,,,,,,,,,,,,,,,,,,,,,,,,,,,,,,,,,,,,,,,,,1910.6894219000242,1910.704573600029,1910.704573600029,1911.2045130000333,1911.2045130000333,1913.7046111000236,1913.7046111000236,1913.6885438000318,None,1,,,,,,,,,,,,,,,,,,,,,,,,nback62,001,2024-01-19_15h27.04.947,untitled,2023.2.3,60.031144150132995,2024-01-19 15h49.54.572113 -0500,
3,"[0, 0.2]",None,,,,,0,24,24,24,,,,,1913.7046111000236,,,,,,,,,,,,,,,,,,,,,,,,,,,,,,,,,,,,,,,,,,,,,,1913.689138900023,1913.7046111000236,1913.7046111000236,1914.20434570004,1914.20434570004,1916.7044727000175,1916.7044727000175,1916.688462399994,None,1,,,,,,,,,,,,,,,,,,,,,,,,nback62,001,2024-01-19_15h27.04.947,untitled,2023.2.3,60.031144150132995,2024-01-19 15h49.54.572113 -0500,
6,"[-0.3, 0]",None,,,,,0,25,25,25,,,,,1916.7044727000175,,,,,,,,,,,,,,,,,,,,,,,,,,,,,,,,,,,,,,,,,,,,,,1916.6890791000333,1916.7044727000175,1916.7044727000175,1917.204403300013,1917.204403300013,1919.7043483000016,1919.7043483000016,1919.6883046000148,None,1,,,,,,,,,,,,,,,,,,,,,,,,nback62,001,2024-01-19_15h27.04.947,untitled,2023.2.3,60.031144150132995,2024-01-19 15h49.54.572113 -0500,
1,"[-0.64, 0.4]",None,,,,,0,26,26,26,,,,,1919.7043483000016,,,,,,,,,,,,,,,,,,,,,,,,,,,,,,,,,,,,,,,,,,,,,,1919.6888740000431,1919.7043483000016,1919.7043483000016,1920.2043492000084,1920.2043492000084,1922.7043259000056,1922.7043259000056,1922.6887832999928,None,1,,,,,,,,,,,,,,,,,,,,,,,,nback62,001,2024-01-19_15h27.04.947,untitled,2023.2.3,60.031144150132995,2024-01-19 15h49.54.572113 -0500,
1,"[-0.64, 0.4]",space,,,,,0,27,27,27,,,,,1922.7043259000056,,,,,,,,,,,,,,,,,,,,,,,,,,,,,,,,,,,,,,,,,,,,,,1922.6896247999975,1922.7043259000056,1922.7043259000056,1923.2040993000264,1923.2040993000264,1925.704022800026,1925.704022800026,1925.687801400025,space,1,0.3264849000261165,None,,,,,,,,,,,,,,,,,,,,,,nback62,001,2024-01-19_15h27.04.947,untitled,2023.2.3,60.031144150132995,2024-01-19 15h49.54.572113 -0500,
1,"[-0.64, 0.4]",space,,,,,0,28,28,28,,,,,1925.704022800026,,,,,,,,,,,,,,,,,,,,,,,,,,,,,,,,,,,,,,,,,,,,,,1925.6881869999925,1925.704022800026,1925.704022800026,1926.2041822000174,1926.2041822000174,1928.7041125000105,1928.7041125000105,1928.6882773000398,space,1,0.4843985000043176,None,,,,,,,,,,,,,,,,,,,,,,nback62,001,2024-01-19_15h27.04.947,untitled,2023.2.3,60.031144150132995,2024-01-19 15h49.54.572113 -0500,
3,"[0, 0.2]",None,,,,,0,29,29,29,,,,,1928.7041125000105,,,,,,,,,,,,,,,,,,,,,,,,,,,,,,,,,,,,,,,,,,,,,,1928.6890098000295,1928.7041125000105,1928.7041125000105,1929.2041029999964,1929.2041029999964,1931.704324099992,1931.704324099992,1931.6886303999927,None,1,,,,,,,,,,,,,,,,,,,,,,,,nback62,001,2024-01-19_15h27.04.947,untitled,2023.2.3,60.031144150132995,2024-01-19 15h49.54.572113 -0500,
12,"[0.64, -0.4]",None,,,,,0,30,30,30,,,,,1931.704324099992,,,,,,,,,,,,,,,,,,,,,,,,,,,,,,,,,,,,,,,,,,,,,,1931.689459700021,1931.704324099992,1931.704324099992,1932.2042497000075,1932.2042497000075,1934.7041369000217,1934.7041369000217,1934.6883898000233,None,1,,,,,,,,,,,,,,,,,,,,,,,,nback62,001,2024-01-19_15h27.04.947,untitled,2023.2.3,60.031144150132995,2024-01-19 15h49.54.572113 -0500,
12,"[0.64, -0.4]",space,,,,,0,31,31,31,,,,,1934.7041369000217,,,,,,,,,,,,,,,,,,,,,,,,,,,,,,,,,,,,,,,,,,,,,,1934.6891856000293,1934.7041369000217,1934.7041369000217,1935.2040644999943,1935.2040644999943,1937.7041638999945,1937.7041638999945,1937.6881025000475,space,1,0.537561499979347,None,,,,,,,,,,,,,,,,,,,,,,nback62,001,2024-01-19_15h27.04.947,untitled,2023.2.3,60.031144150132995,2024-01-19 15h49.54.572113 -0500,
2,"[0.64, 0.4]",None,,,,,0,32,32,32,,,,,1937.7041638999945,,,,,,,,,,,,,,,,,,,,,,,,,,,,,,,,,,,,,,,,,,,,,,1937.6889283999917,1937.7041638999945,1937.7041638999945,1938.2041988000274,1938.2041988000274,1940.7039075000212,1940.7039075000212,1940.6879961999948,None,1,,,,,,,,,,,,,,,,,,,,,,,,nback62,001,2024-01-19_15h27.04.947,untitled,2023.2.3,60.031144150132995,2024-01-19 15h49.54.572113 -0500,
1,"[-0.64, 0.4]",None,,,,,0,33,33,33,,,,,1940.7039075000212,,,,,,,,,,,,,,,,,,,,,,,,,,,,,,,,,,,,,,,,,,,,,,1940.6886680000462,1940.7039075000212,1940.7039075000212,1941.2039941000403,1941.2039941000403,1943.7037267000414,1943.7037267000414,1943.6883731000125,None,1,,,,,,,,,,,,,,,,,,,,,,,,nback62,001,2024-01-19_15h27.04.947,untitled,2023.2.3,60.031144150132995,2024-01-19 15h49.54.572113 -0500,
7,"[0.3, 0]",None,,,,,0,34,34,34,,,,,1943.7037267000414,,,,,,,,,,,,,,,,,,,,,,,,,,,,,,,,,,,,,,,,,,,,,,1943.6891979000065,1943.7037267000414,1943.7037267000414,1944.2039161000284,1944.2039161000284,1946.703975500015,1946.703975500015,1946.6883130000206,None,1,,,,,,,,,,,,,,,,,,,,,,,,nback62,001,2024-01-19_15h27.04.947,untitled,2023.2.3,60.031144150132995,2024-01-19 15h49.54.572113 -0500,
7,"[0.3, 0]",space,,,,,0,35,35,35,,,,,1946.703975500015,,,,,,,,,,,,,,,,,,,,,,,,,,,,,,,,,,,,,,,,,,,,,,1946.6891390000237,1946.703975500015,1946.703975500015,1947.2039814000018,1947.2039814000018,1949.7037485000328,1949.7037485000328,1949.6881636999897,space,1,0.5382271999842487,None,,,,,,,,,,,,,,,,,,,,,,nback62,001,2024-01-19_15h27.04.947,untitled,2023.2.3,60.031144150132995,2024-01-19 15h49.54.572113 -0500,
11,"[-0.64, -0.4]",None,,,,,0,36,36,36,,,,,1949.7037485000328,,,,,,,,,,,,,,,,,,,,,,,,,,,,,,,,,,,,,,,,,,,,,,1949.6892294000136,1949.7037485000328,1949.7037485000328,1950.2037909000064,1950.2037909000064,1952.7037942000316,1952.7037942000316,1952.6880400000373,None,1,,,,,,,,,,,,,,,,,,,,,,,,nback62,001,2024-01-19_15h27.04.947,untitled,2023.2.3,60.031144150132995,2024-01-19 15h49.54.572113 -0500,
2,"[0.64, 0.4]",None,,,,,0,37,37,37,,,,,1952.7037942000316,,,,,,,,,,,,,,,,,,,,,,,,,,,,,,,,,,,,,,,,,,,,,,1952.688854500011,1952.7037942000316,1952.7037942000316,1953.2038095000316,1953.2038095000316,1955.703673800046,1955.703673800046,1955.6879975000047,None,1,,,,,,,,,,,,,,,,,,,,,,,,nback62,001,2024-01-19_15h27.04.947,untitled,2023.2.3,60.031144150132995,2024-01-19 15h49.54.572113 -0500,
6,"[-0.3, 0]",None,,,,,0,38,38,38,,,,,1955.703673800046,,,,,,,,,,,,,,,,,,,,,,,,,,,,,,,,,,,,,,,,,,,,,,1955.688682600041,1955.703673800046,1955.703673800046,1956.2036844000104,1956.2036844000104,1958.7036835000035,1958.7036835000035,1958.687898700009,None,1,,,,,,,,,,,,,,,,,,,,,,,,nback62,001,2024-01-19_15h27.04.947,untitled,2023.2.3,60.031144150132995,2024-01-19 15h49.54.572113 -0500,
10,"[0, -0.2]",None,,,,,0,39,39,39,,,,,1958.7036835000035,,,,,,,,,,,,,,,,,,,,,,,,,,,,,,,,,,,,,,,,,,,,,,1958.6886325000087,1958.7036835000035,1958.7036835000035,1959.2037794000353,1959.2037794000353,1961.7036760000046,1961.7036760000046,1961.687914900016,None,1,,,,,,,,,,,,,,,,,,,,,,,,nback62,001,2024-01-19_15h27.04.947,untitled,2023.2.3,60.031144150132995,2024-01-19 15h49.54.572113 -0500,
,,,,,,,,,,,,,,,,,,,,,,,,,,,,,,,,,,,,,,,,,,,,,,,,,,,,,,,,,,,,,,,,,,,,,,,,,1961.6883864999982,1961.7036760000046,1961.7036760000046,1989.5549606000423,space,27.833972799999174,None,,,,,,,,,,,,,,,nback62,001,2024-01-19_15h27.04.947,untitled,2023.2.3,60.031144150132995,2024-01-19 15h49.54.572113 -0500,
,"[0.2, 0.1]",None,,,,,,,,,0,0,0,0,1990.57198290003,,,,,,,,,,,,,,,,,,,,,,,,1989.5550175000099,1989.5698173000128,1990.57198290003,1990.5538253000122,,,,,,,,,,,,,,,,,,,,,,,,,,,,,,,,,,,,,,1990.5699600999942,1990.57198290003,1990.57198290003,1991.0696756000398,1991.0863594000111,1993.5697465999983,1993.5699372999952,None,1,,,,,,nback62,001,2024-01-19_15h27.04.947,untitled,2023.2.3,60.031144150132995,2024-01-19 15h49.54.572113 -0500,
,"[0.64, 0.4]",None,,,,,,,,,0,1,1,1,1993.5862939000363,,,,,,,,,,,,,,,,,,,,,,,,,,,,,,,,,,,,,,,,,,,,,,,,,,,,,,,,,,,,,,,,,1993.57086420001,1993.5862939000363,1993.5862939000363,1994.0697278000298,1994.0863040999975,1996.5695497000124,1996.5697159999982,None,1,,,,,,nback62,001,2024-01-19_15h27.04.947,untitled,2023.2.3,60.031144150132995,2024-01-19 15h49.54.572113 -0500,
,"[-0.3, 0]",None,,,,,,,,,0,2,2,2,1996.5863131000078,,,,,,,,,,,,,,,,,,,,,,,,,,,,,,,,,,,,,,,,,,,,,,,,,,,,,,,,,,,,,,,,,1996.5704345999984,1996.5863131000078,1996.5863131000078,1997.0696867000079,1997.0863867000444,1999.569530900044,1999.5696895000292,None,1,,,,,,nback62,001,2024-01-19_15h27.04.947,untitled,2023.2.3,60.031144150132995,2024-01-19 15h49.54.572113 -0500,
,"[0.2, -0.1]",None,,,,,,,,,0,3,3,3,1999.5861117000459,,,,,,,,,,,,,,,,,,,,,,,,,,,,,,,,,,,,,,,,,,,,,,,,,,,,,,,,,,,,,,,,,1999.5703841000213,1999.5861117000459,1999.5861117000459,2000.069512200018,2000.0863079000264,2002.5695004000445,2002.5696535000461,None,1,,,,,,nback62,001,2024-01-19_15h27.04.947,untitled,2023.2.3,60.031144150132995,2024-01-19 15h49.54.572113 -0500,
,"[0, 0.2]",None,,,,,,,,,0,4,4,4,2002.5859901999938,,,,,,,,,,,,,,,,,,,,,,,,,,,,,,,,,,,,,,,,,,,,,,,,,,,,,,,,,,,,,,,,,2002.570250299992,2002.5859901999938,2002.5859901999938,2003.0694997000392,2003.0860924000153,2005.5696600000374,2005.569876499998,None,1,,,,,,nback62,001,2024-01-19_15h27.04.947,untitled,2023.2.3,60.031144150132995,2024-01-19 15h49.54.572113 -0500,
,"[0.2, -0.1]",space,,,,,,,,,0,5,5,5,2005.5860262000351,,,,,,,,,,,,,,,,,,,,,,,,,,,,,,,,,,,,,,,,,,,,,,,,,,,,,,,,,,,,,,,,,2005.5707646000083,2005.5860262000351,2005.5860262000351,2006.069424300047,2006.0861621000222,2008.5695730000152,2008.5697346000234,space,1,0.3409628999652341,None,,,,nback62,001,2024-01-19_15h27.04.947,untitled,2023.2.3,60.031144150132995,2024-01-19 15h49.54.572113 -0500,
,"[0, -0.2]",None,,,,,,,,,0,6,6,6,2008.58598600002,,,,,,,,,,,,,,,,,,,,,,,,,,,,,,,,,,,,,,,,,,,,,,,,,,,,,,,,,,,,,,,,,2008.5707078000414,2008.58598600002,2008.58598600002,2009.069520900026,2009.0860553000239,2011.5695836000377,2011.5698083000025,None,1,,,,,,nback62,001,2024-01-19_15h27.04.947,untitled,2023.2.3,60.031144150132995,2024-01-19 15h49.54.572113 -0500,
,"[0.64, -0.4]",None,,,,,,,,,0,7,7,7,2011.586102500034,,,,,,,,,,,,,,,,,,,,,,,,,,,,,,,,,,,,,,,,,,,,,,,,,,,,,,,,,,,,,,,,,2011.5706487999996,2011.586102500034,2011.586102500034,2012.0693874999997,2012.0859113000333,2014.5694793000002,2014.5696781000006,None,1,,,,,,nback62,001,2024-01-19_15h27.04.947,untitled,2023.2.3,60.031144150132995,2024-01-19 15h49.54.572113 -0500,
,"[0.3, 0]",None,,,,,,,,,0,8,8,8,2014.5862269999925,,,,,,,,,,,,,,,,,,,,,,,,,,,,,,,,,,,,,,,,,,,,,,,,,,,,,,,,,,,,,,,,,2014.5704652999993,2014.5862269999925,2014.5862269999925,2015.0694630999933,2015.086069300014,2017.5693380000303,2017.5695242999936,None,1,,,,,,nback62,001,2024-01-19_15h27.04.947,untitled,2023.2.3,60.031144150132995,2024-01-19 15h49.54.572113 -0500,
,"[0.64, -0.4]",space,,,,,,,,,0,9,9,9,2017.5859669999918,,,,,,,,,,,,,,,,,,,,,,,,,,,,,,,,,,,,,,,,,,,,,,,,,,,,,,,,,,,,,,,,,2017.5703466000268,2017.5859669999918,2017.5859669999918,2018.0693718999973,2018.0860187000362,2020.569230300025,2020.5694006000413,space,1,0.37611259997356683,None,,,,nback62,001,2024-01-19_15h27.04.947,untitled,2023.2.3,60.031144150132995,2024-01-19 15h49.54.572113 -0500,
,"[-0.64, 0.4]",None,,,,,,,,,0,10,10,10,2020.5859032000299,,,,,,,,,,,,,,,,,,,,,,,,,,,,,,,,,,,,,,,,,,,,,,,,,,,,,,,,,,,,,,,,,2020.5701902,2020.5859032000299,2020.5859032000299,2021.0693449000246,2021.08596570004,2023.5692800999968,2023.5694826000254,None,1,,,,,,nback62,001,2024-01-19_15h27.04.947,untitled,2023.2.3,60.031144150132995,2024-01-19 15h49.54.572113 -0500,
,"[0.2, 0.1]",None,,,,,,,,,0,11,11,11,2023.585983900004,,,,,,,,,,,,,,,,,,,,,,,,,,,,,,,,,,,,,,,,,,,,,,,,,,,,,,,,,,,,,,,,,2023.570279000036,2023.585983900004,2023.585983900004,2024.0691886999994,2024.0858380999998,2026.5693391000386,2026.569552800036,None,1,,,,,,nback62,001,2024-01-19_15h27.04.947,untitled,2023.2.3,60.031144150132995,2024-01-19 15h49.54.572113 -0500,
,"[0.3, 0]",None,,,,,,,,,0,12,12,12,2026.5858412000234,,,,,,,,,,,,,,,,,,,,,,,,,,,,,,,,,,,,,,,,,,,,,,,,,,,,,,,,,,,,,,,,,2026.5703720000456,2026.5858412000234,2026.5858412000234,2027.0691074000206,2027.0857533999952,2029.5688837000052,2029.5690344000468,None,1,,,,,,nback62,001,2024-01-19_15h27.04.947,untitled,2023.2.3,60.031144150132995,2024-01-19 15h49.54.572113 -0500,
,"[0.2, 0.1]",space,,,,,,,,,0,13,13,13,2029.5854913000367,,,,,,,,,,,,,,,,,,,,,,,,,,,,,,,,,,,,,,,,,,,,,,,,,,,,,,,,,,,,,,,,,2029.5694224000326,2029.5854913000367,2029.5854913000367,2030.06903350004,2030.085627900029,2032.5690711000352,2032.5692781000398,space,1,0.32621229998767376,None,,,,nback62,001,2024-01-19_15h27.04.947,untitled,2023.2.3,60.031144150132995,2024-01-19 15h49.54.572113 -0500,
,"[-0.3, 0]",None,,,,,,,,,0,14,14,14,2032.5855699999956,,,,,,,,,,,,,,,,,,,,,,,,,,,,,,,,,,,,,,,,,,,,,,,,,,,,,,,,,,,,,,,,,2032.5702431999962,2032.5855699999956,2032.5855699999956,2033.0691062000114,2033.0856455000467,2035.5690858000307,2035.5692899000132,None,1,,,,,,nback62,001,2024-01-19_15h27.04.947,untitled,2023.2.3,60.031144150132995,2024-01-19 15h49.54.572113 -0500,
,"[0, 0.2]",None,,,,,,,,,0,15,15,15,2035.585719100025,,,,,,,,,,,,,,,,,,,,,,,,,,,,,,,,,,,,,,,,,,,,,,,,,,,,,,,,,,,,,,,,,2035.5700356000452,2035.585719100025,2035.585719100025,2036.0689852000214,2036.08566099999,2038.5689711000305,2038.5691297000158,None,1,,,,,,nback62,001,2024-01-19_15h27.04.947,untitled,2023.2.3,60.031144150132995,2024-01-19 15h49.54.572113 -0500,
,"[-0.3, 0]",space,,,,,,,,,0,16,16,16,2038.585566600028,,,,,,,,,,,,,,,,,,,,,,,,,,,,,,,,,,,,,,,,,,,,,,,,,,,,,,,,,,,,,,,,,2038.569738399994,2038.585566600028,2038.585566600028,2039.068849900039,2039.0856865000096,2041.569052900013,2041.5692428000038,space,1,0.34158030000980943,None,,,,nback62,001,2024-01-19_15h27.04.947,untitled,2023.2.3,60.031144150132995,2024-01-19 15h49.54.572113 -0500,
,"[-0.64, -0.4]",None,,,,,,,,,0,17,17,17,2041.5854745000252,,,,,,,,,,,,,,,,,,,,,,,,,,,,,,,,,,,,,,,,,,,,,,,,,,,,,,,,,,,,,,,,,2041.5701509999926,2041.5854745000252,2041.5854745000252,2042.0687832999974,2042.085521800036,2044.5688445999986,2044.5690307000186,None,1,,,,,,nback62,001,2024-01-19_15h27.04.947,untitled,2023.2.3,60.031144150132995,2024-01-19 15h49.54.572113 -0500,
,"[-0.2, -0.1]",None,,,,,,,,,0,18,18,18,2044.5854666000232,,,,,,,,,,,,,,,,,,,,,,,,,,,,,,,,,,,,,,,,,,,,,,,,,,,,,,,,,,,,,,,,,2044.5697768999962,2044.5854666000232,2044.5854666000232,2045.0687739000423,2045.0854370000307,2047.5687875000294,2047.5689732000465,None,1,,,,,,nback62,001,2024-01-19_15h27.04.947,untitled,2023.2.3,60.031144150132995,2024-01-19 15h49.54.572113 -0500,
,"[0.2, -0.1]",None,,,,,,,,,0,19,19,19,2047.585214700026,,,,,,,,,,,,,,,,,,,,,,,,,,,,,,,,,,,,,,,,,,,,,,,,,,,,,,,,,,,,,,,,,2047.5697133000358,2047.585214700026,2047.585214700026,2048.068807100004,2048.085465900018,2050.5687061999924,2050.5688826999976,None,1,,,,,,nback62,001,2024-01-19_15h27.04.947,untitled,2023.2.3,60.031144150132995,2024-01-19 15h49.54.572113 -0500,
,"[0.2, -0.1]",None,,,,,,,,,0,20,20,20,2050.585365200008,,,,,,,,,,,,,,,,,,,,,,,,,,,,,,,,,,,,,,,,,,,,,,,,,,,,,,,,,,,,,,,,,2050.569595400011,2050.585365200008,2050.585365200008,2051.0686884000315,2051.085433,2053.5687613000046,2053.5689728000434,None,1,,,,,,nback62,001,2024-01-19_15h27.04.947,untitled,2023.2.3,60.031144150132995,2024-01-19 15h49.54.572113 -0500,
,"[-0.64, 0.4]",None,,,,,,,,,0,21,21,21,2053.5853015000466,,,,,,,,,,,,,,,,,,,,,,,,,,,,,,,,,,,,,,,,,,,,,,,,,,,,,,,,,,,,,,,,,2053.5697963000275,2053.5853015000466,2053.5853015000466,2054.0685981000424,2054.0852815000108,2056.5687029000255,2056.5688993000076,None,1,,,,,,nback62,001,2024-01-19_15h27.04.947,untitled,2023.2.3,60.031144150132995,2024-01-19 15h49.54.572113 -0500,
,"[0, 0.2]",None,,,,,,,,,0,22,22,22,2056.585366700019,,,,,,,,,,,,,,,,,,,,,,,,,,,,,,,,,,,,,,,,,,,,,,,,,,,,,,,,,,,,,,,,,2056.569666000025,2056.585366700019,2056.585366700019,2057.0686325000133,2057.085311600007,2059.568411300017,2059.568564200017,None,1,,,,,,nback62,001,2024-01-19_15h27.04.947,untitled,2023.2.3,60.031144150132995,2024-01-19 15h49.54.572113 -0500,
,"[0.64, -0.4]",None,,,,,,,,,0,23,23,23,2059.5850744000054,,,,,,,,,,,,,,,,,,,,,,,,,,,,,,,,,,,,,,,,,,,,,,,,,,,,,,,,,,,,,,,,,2059.569261400029,2059.5850744000054,2059.5850744000054,2060.0685912999907,2060.0847692000098,2062.568389300024,2062.5686010000063,None,1,,,,,,nback62,001,2024-01-19_15h27.04.947,untitled,2023.2.3,60.031144150132995,2024-01-19 15h49.54.572113 -0500,
,"[0, 0.2]",space,,,,,,,,,0,24,24,24,2062.5851822000113,,,,,,,,,,,,,,,,,,,,,,,,,,,,,,,,,,,,,,,,,,,,,,,,,,,,,,,,,,,,,,,,,2062.5690929000266,2062.5851822000113,2062.5851822000113,2063.0685387999984,2063.0849219000083,2065.568611900031,2065.568820400047,space,1,0.3532601000042632,None,,,,nback62,001,2024-01-19_15h27.04.947,untitled,2023.2.3,60.031144150132995,2024-01-19 15h49.54.572113 -0500,
,"[-0.2, 0.1]",None,,,,,,,,,0,25,25,25,2065.5851054000086,,,,,,,,,,,,,,,,,,,,,,,,,,,,,,,,,,,,,,,,,,,,,,,,,,,,,,,,,,,,,,,,,2065.5698398000095,2065.5851054000086,2065.5851054000086,2066.068441200012,2066.08514879999,2068.568374900031,2068.5685298000462,None,1,,,,,,nback62,001,2024-01-19_15h27.04.947,untitled,2023.2.3,60.031144150132995,2024-01-19 15h49.54.572113 -0500,
,"[0.3, 0]",None,,,,,,,,,0,26,26,26,2068.584963100031,,,,,,,,,,,,,,,,,,,,,,,,,,,,,,,,,,,,,,,,,,,,,,,,,,,,,,,,,,,,,,,,,2068.569133400044,2068.584963100031,2068.584963100031,2069.0685032000183,2069.0850487000425,2071.56833129999,2071.5685097000096,None,1,,,,,,nback62,001,2024-01-19_15h27.04.947,untitled,2023.2.3,60.031144150132995,2024-01-19 15h49.54.572113 -0500,
,"[-0.2, 0.1]",space,,,,,,,,,0,27,27,27,2071.585014500015,,,,,,,,,,,,,,,,,,,,,,,,,,,,,,,,,,,,,,,,,,,,,,,,,,,,,,,,,,,,,,,,,2071.569213300012,2071.585014500015,2071.585014500015,2072.0684037000174,2072.0850961999968,2074.5681640999974,2074.5683076000423,space,1,0.5028230000170879,None,,,,nback62,001,2024-01-19_15h27.04.947,untitled,2023.2.3,60.031144150132995,2024-01-19 15h49.54.572113 -0500,
,"[-0.2, 0.1]",None,,,,,,,,,0,28,28,28,2074.5848708000267,,,,,,,,,,,,,,,,,,,,,,,,,,,,,,,,,,,,,,,,,,,,,,,,,,,,,,,,,,,,,,,,,2074.568859699997,2074.5848708000267,2074.5848708000267,2075.068370599998,2075.084597900044,2077.568269200041,2077.568452000036,None,1,,,,,,nback62,001,2024-01-19_15h27.04.947,untitled,2023.2.3,60.031144150132995,2024-01-19 15h49.54.572113 -0500,
,"[0.2, 0.1]",None,,,,,,,,,0,29,29,29,2077.5847477000207,,,,,,,,,,,,,,,,,,,,,,,,,,,,,,,,,,,,,,,,,,,,,,,,,,,,,,,,,,,,,,,,,2077.569212500006,2077.5847477000207,2077.5847477000207,2078.06829200004,2078.084841600037,2080.568223600043,2080.568398100033,space,0,0.6218431000015698,None,,,,nback62,001,2024-01-19_15h27.04.947,untitled,2023.2.3,60.031144150132995,2024-01-19 15h49.54.572113 -0500,
,"[-0.64, -0.4]",None,,,,,,,,,0,30,30,30,2080.584895200038,,,,,,,,,,,,,,,,,,,,,,,,,,,,,,,,,,,,,,,,,,,,,,,,,,,,,,,,,,,,,,,,,2080.5693305000314,2080.584895200038,2080.584895200038,2081.068109899992,2081.084797599993,2083.568254600046,2083.568455600005,None,1,,,,,,nback62,001,2024-01-19_15h27.04.947,untitled,2023.2.3,60.031144150132995,2024-01-19 15h49.54.572113 -0500,
,"[0, -0.2]",None,,,,,,,,,0,31,31,31,2083.584835899994,,,,,,,,,,,,,,,,,,,,,,,,,,,,,,,,,,,,,,,,,,,,,,,,,,,,,,,,,,,,,,,,,2083.5692165000364,2083.584835899994,2083.584835899994,2084.0679971000063,2084.0846507000388,2086.5681673000217,2086.568346200045,None,1,,,,,,nback62,001,2024-01-19_15h27.04.947,untitled,2023.2.3,60.031144150132995,2024-01-19 15h49.54.572113 -0500,
,"[-0.64, -0.4]",space,,,,,,,,,0,32,32,32,2086.5846922000055,,,,,,,,,,,,,,,,,,,,,,,,,,,,,,,,,,,,,,,,,,,,,,,,,,,,,,,,,,,,,,,,,2086.569025100034,2086.5846922000055,2086.5846922000055,2087.068155899993,2087.0847315000137,2089.568263699999,2089.568466400029,space,1,0.5582157000317238,None,,,,nback62,001,2024-01-19_15h27.04.947,untitled,2023.2.3,60.031144150132995,2024-01-19 15h49.54.572113 -0500,
,"[0.64, 0.4]",None,,,,,,,,,0,33,33,33,2089.584668299998,,,,,,,,,,,,,,,,,,,,,,,,,,,,,,,,,,,,,,,,,,,,,,,,,,,,,,,,,,,,,,,,,2089.5693316000397,2089.584668299998,2089.584668299998,2090.0681323000463,2090.084730600007,2092.5678610000177,2092.5679481000407,None,1,,,,,,nback62,001,2024-01-19_15h27.04.947,untitled,2023.2.3,60.031144150132995,2024-01-19 15h49.54.572113 -0500,
,"[-0.3, 0]",None,,,,,,,,,0,34,34,34,2092.5846662000404,,,,,,,,,,,,,,,,,,,,,,,,,,,,,,,,,,,,,,,,,,,,,,,,,,,,,,,,,,,,,,,,,2092.5683932999964,2092.5846662000404,2092.5846662000404,2093.0679818000062,2093.0846408000216,2095.5679698000313,2095.568161000032,None,1,,,,,,nback62,001,2024-01-19_15h27.04.947,untitled,2023.2.3,60.031144150132995,2024-01-19 15h49.54.572113 -0500,
,"[0.3, 0]",None,,,,,,,,,0,35,35,35,2095.5846246000146,,,,,,,,,,,,,,,,,,,,,,,,,,,,,,,,,,,,,,,,,,,,,,,,,,,,,,,,,,,,,,,,,2095.5688799000345,2095.5846246000146,2095.5846246000146,2096.067921400012,2096.0846972000436,2098.5680148000247,2098.5682318999898,None,1,,,,,,nback62,001,2024-01-19_15h27.04.947,untitled,2023.2.3,60.031144150132995,2024-01-19 15h49.54.572113 -0500,
,"[-0.3, 0]",space,,,,,,,,,0,36,36,36,2098.5844054000336,,,,,,,,,,,,,,,,,,,,,,,,,,,,,,,,,,,,,,,,,,,,,,,,,,,,,,,,,,,,,,,,,2098.5690589000005,2098.5844054000336,2098.5844054000336,2099.0678744000033,2099.0845989999943,2101.5679261000478,2101.5681401000475,space,1,0.4687218999606557,None,,,,nback62,001,2024-01-19_15h27.04.947,untitled,2023.2.3,60.031144150132995,2024-01-19 15h49.54.572113 -0500,
,"[0, -0.2]",None,,,,,,,,,0,37,37,37,2101.584543300036,,,,,,,,,,,,,,,,,,,,,,,,,,,,,,,,,,,,,,,,,,,,,,,,,,,,,,,,,,,,,,,,,2101.5691241000313,2101.584543300036,2101.584543300036,2102.0677566000377,2102.0843711000052,2104.567812699999,2104.5680231000297,None,1,,,,,,nback62,001,2024-01-19_15h27.04.947,untitled,2023.2.3,60.031144150132995,2024-01-19 15h49.54.572113 -0500,
,"[0.3, 0]",None,,,,,,,,,0,38,38,38,2104.58448640001,,,,,,,,,,,,,,,,,,,,,,,,,,,,,,,,,,,,,,,,,,,,,,,,,,,,,,,,,,,,,,,,,2104.568868500006,2104.58448640001,2104.58448640001,2105.0677551000263,2105.0844045000267,2107.5675362000475,2107.5676836000057,None,1,,,,,,nback62,001,2024-01-19_15h27.04.947,untitled,2023.2.3,60.031144150132995,2024-01-19 15h49.54.572113 -0500,
,"[0.2, 0.1]",None,,,,,,,,,0,39,39,39,2107.584161900042,,,,,,,,,,,,,,,,,,,,,,,,,,,,,,,,,,,,,,,,,,,,,,,,,,,,,,,,,,,,,,,,,2107.5681654000073,2107.584161900042,2107.584161900042,2108.0677524000057,2108.08439969999,2110.5676841000095,2110.567861800024,None,1,,,,,,nback62,001,2024-01-19_15h27.04.947,untitled,2023.2.3,60.031144150132995,2024-01-19 15h49.54.572113 -0500,
,,,,,,,,,,,,,,,,,,,,,,,,,,,,,,,,,,,,,,,,,,,,,,,,,,,,,,,,,,,,,,,,,,,,,,,,,,,,,,,,,,,,,,,,,,,2110.56833790004,2110.5844365000376,2113.567950299999,,,,,,,,
