square,location,corrAns,trials_0.thisRepN,trials_0.thisTrialN,trials_0.thisN,trials_0.thisIndex,trials_1.thisRepN,trials_1.thisTrialN,trials_1.thisN,trials_1.thisIndex,trials_2.thisRepN,trials_2.thisTrialN,trials_2.thisN,trials_2.thisIndex,thisRow.t,notes,Instructions.started,instructions.started,key_resp.started,inst_sq11.started,Instructions.stopped,key_resp.keys,key_resp.rt,key_resp.duration,All.started,sq_1.started,sq_2.started,sq_3.started,sq_4.started,sq_5.started,sq_6.started,sq_7.started,sq_8.started,sq_9.started,sq_10.started,sq_11.started,sq_12.started,All.stopped,Fixation.started,fixation_3.started,fixation_3.stopped,Fixation.stopped,N_back_0_Trial.started,target_square_0.started,response_0.started,fixation_0.started,target_square_0.stopped,fixation_0.stopped,N_back_0_Trial.stopped,response_0.keys,response_0.corr,response_0.rt,response_0.duration,Instructions_1.started,instructions_1.started,key_resp_1.started,Instructions_1.stopped,key_resp_1.keys,key_resp_1.rt,key_resp_1.duration,N_back_1_Trial.started,target_square_1.started,response_1.started,target_square_1.stopped,fixation_1.started,fixation_1.stopped,response_1.stopped,N_back_1_Trial.stopped,response_1.keys,response_1.corr,response_1.rt,response_1.duration,Instructions_2.started,instructions_2.started,key_resp_2.started,Instructions_2.stopped,key_resp_2.keys,key_resp_2.rt,key_resp_2.duration,N_back_2_trials.started,target_square_2.started,response_2.started,fixation_2.started,target_square_2.stopped,fixation_2.stopped,response_2.stopped,N_back_2_trials.stopped,response_2.keys,response_2.corr,response_2.rt,response_2.duration,End.started,thank_you.started,thank_you.stopped,End.stopped,participant,session,date,expName,psychopyVersion,frameRate,expStart,
,,,,,,,,,,,,,,,,,0.0013686999445781112,0.003709099953994155,0.003709099953994155,0.003709099953994155,3861.276153999963,space,3861.2562547000125,None,,,,,,,,,,,,,,,,,,,,,,,,,,,,,,,,,,,,,,,,,,,,,,,,,,,,,,,,,,,,,,,,,,,,,,,,nback4,001,2023-12-07_16h19.18.069,untitled,2023.2.3,59.833626632597756,2023-12-07 16h19.36.138566 -0500,
6,"[-0.3, 0]",None,0,0,0,0,,,,,,,,,3863.298754599993,,,,,,,,,,3861.2761884999927,3861.291240200051,3861.291240200051,3861.291240200051,3861.291240200051,3861.291240200051,3861.291240200051,3861.291240200051,3861.291240200051,3861.291240200051,3861.291240200051,3861.291240200051,3861.291240200051,3862.275047400035,3862.275062300032,3862.2910969000077,3863.298754599993,3863.275098999962,3863.2966524000512,3863.298754599993,3863.298754599993,3863.7745444000466,3863.807831299957,3866.2744917999953,3866.2914240000537,None,1,,,,,,,,,,,,,,,,,,,,,,,,,,,,,,,,,,,,,,,,,,,,,nback4,001,2023-12-07_16h19.18.069,untitled,2023.2.3,59.833626632597756,2023-12-07 16h19.36.138566 -0500,
10,"[0, -0.2]",None,0,1,1,1,,,,,,,,,3866.307895999984,,,,,,,,,,,,,,,,,,,,,,,,,,,,3866.2924581000116,3866.307895999984,3866.307895999984,3866.7743188999593,3866.8077692999505,3869.2743698999984,3869.291223300039,None,1,,,,,,,,,,,,,,,,,,,,,,,,,,,,,,,,,,,,,,,,,,,,,nback4,001,2023-12-07_16h19.18.069,untitled,2023.2.3,59.833626632597756,2023-12-07 16h19.36.138566 -0500,
11,"[-0.64, -0.4]",space,0,2,2,2,,,,,,,,,3869.3078066000016,,,,,,,,,,,,,,,,,,,,,,,,,,,,3869.2918629000196,3869.3078066000016,3869.3078066000016,3869.7742369000334,3869.8078625999624,3872.2744095999515,3872.291319699958,space,1,0.5292678999248892,None,,,,,,,,,,,,,,,,,,,,,,,,,,,,,,,,,,,,,,,,,,,nback4,001,2023-12-07_16h19.18.069,untitled,2023.2.3,59.833626632597756,2023-12-07 16h19.36.138566 -0500,
12,"[0.64, -0.4]",None,0,3,3,3,,,,,,,,,3872.3077572999755,,,,,,,,,,,,,,,,,,,,,,,,,,,,3872.292455399991,3872.3077572999755,3872.3077572999755,3872.774462500005,3872.807731000008,3875.2743058999768,3875.2911511999555,None,1,,,,,,,,,,,,,,,,,,,,,,,,,,,,,,,,,,,,,,,,,,,,,nback4,001,2023-12-07_16h19.18.069,untitled,2023.2.3,59.833626632597756,2023-12-07 16h19.36.138566 -0500,
1,"[-0.64, 0.4]",None,0,4,4,4,,,,,,,,,3875.3078637999715,,,,,,,,,,,,,,,,,,,,,,,,,,,,3875.291884099948,3875.3078637999715,3875.3078637999715,3875.7741243999917,3875.8076772999484,3878.2743212999776,3878.291134299943,None,1,,,,,,,,,,,,,,,,,,,,,,,,,,,,,,,,,,,,,,,,,,,,,nback4,001,2023-12-07_16h19.18.069,untitled,2023.2.3,59.833626632597756,2023-12-07 16h19.36.138566 -0500,
1,"[-0.64, 0.4]",None,0,5,5,5,,,,,,,,,3878.3076809999766,,,,,,,,,,,,,,,,,,,,,,,,,,,,3878.2918599999975,3878.3076809999766,3878.3076809999766,3878.774373800028,3878.8077274999814,3881.2742416999536,3881.2911426000064,None,1,,,,,,,,,,,,,,,,,,,,,,,,,,,,,,,,,,,,,,,,,,,,,nback4,001,2023-12-07_16h19.18.069,untitled,2023.2.3,59.833626632597756,2023-12-07 16h19.36.138566 -0500,
4,"[-0.2, 0.1]",None,0,6,6,6,,,,,,,,,3881.3076507999795,,,,,,,,,,,,,,,,,,,,,,,,,,,,3881.2918916000053,3881.3076507999795,3881.3076507999795,3881.7741768000415,3881.80758360005,3884.274382899981,3884.2912179999985,None,1,,,,,,,,,,,,,,,,,,,,,,,,,,,,,,,,,,,,,,,,,,,,,nback4,001,2023-12-07_16h19.18.069,untitled,2023.2.3,59.833626632597756,2023-12-07 16h19.36.138566 -0500,
5,"[0.2, 0.1]",None,0,7,7,7,,,,,,,,,3884.3075006,,,,,,,,,,,,,,,,,,,,,,,,,,,,3884.2920559999766,3884.3075006,3884.3075006,3884.77417530003,3884.8075761999935,3887.274249900016,3887.291044399957,None,1,,,,,,,,,,,,,,,,,,,,,,,,,,,,,,,,,,,,,,,,,,,,,nback4,001,2023-12-07_16h19.18.069,untitled,2023.2.3,59.833626632597756,2023-12-07 16h19.36.138566 -0500,
11,"[-0.64, -0.4]",space,0,8,8,8,,,,,,,,,3887.3075450999895,,,,,,,,,,,,,,,,,,,,,,,,,,,,3887.2918251999654,3887.3075450999895,3887.3075450999895,3887.790869600023,3887.8075220000464,3890.2907527999487,3890.29090719996,space,1,0.38894059997983277,None,,,,,,,,,,,,,,,,,,,,,,,,,,,,,,,,,,,,,,,,,,,nback4,001,2023-12-07_16h19.18.069,untitled,2023.2.3,59.833626632597756,2023-12-07 16h19.36.138566 -0500,
9,"[0.2, -0.1]",None,0,9,9,9,,,,,,,,,3890.3074283000315,,,,,,,,,,,,,,,,,,,,,,,,,,,,3890.291639299947,3890.3074283000315,3890.3074283000315,3890.7907314000186,3890.8073661000235,3893.290781000047,3893.2909649000503,None,1,,,,,,,,,,,,,,,,,,,,,,,,,,,,,,,,,,,,,,,,,,,,,nback4,001,2023-12-07_16h19.18.069,untitled,2023.2.3,59.833626632597756,2023-12-07 16h19.36.138566 -0500,
8,"[-0.2, -0.1]",None,0,10,10,10,,,,,,,,,3893.3074867000105,,,,,,,,,,,,,,,,,,,,,,,,,,,,3893.2916802000254,3893.3074867000105,3893.3074867000105,3893.773930400028,3893.80740099994,3896.274019900011,3896.290803299984,None,1,,,,,,,,,,,,,,,,,,,,,,,,,,,,,,,,,,,,,,,,,,,,,nback4,001,2023-12-07_16h19.18.069,untitled,2023.2.3,59.833626632597756,2023-12-07 16h19.36.138566 -0500,
9,"[0.2, -0.1]",None,0,11,11,11,,,,,,,,,3896.307275100029,,,,,,,,,,,,,,,,,,,,,,,,,,,,3896.291504999972,3896.307275100029,3896.307275100029,3896.7739344999427,3896.8074535999913,3899.273948700051,3899.290821200004,None,1,,,,,,,,,,,,,,,,,,,,,,,,,,,,,,,,,,,,,,,,,,,,,nback4,001,2023-12-07_16h19.18.069,untitled,2023.2.3,59.833626632597756,2023-12-07 16h19.36.138566 -0500,
6,"[-0.3, 0]",None,0,12,12,12,,,,,,,,,3899.3072835999774,,,,,,,,,,,,,,,,,,,,,,,,,,,,3899.2915655999677,3899.3072835999774,3899.3072835999774,3899.7905176000204,3899.807237299974,3902.2905914000003,3902.2907694999594,None,1,,,,,,,,,,,,,,,,,,,,,,,,,,,,,,,,,,,,,,,,,,,,,nback4,001,2023-12-07_16h19.18.069,untitled,2023.2.3,59.833626632597756,2023-12-07 16h19.36.138566 -0500,
9,"[0.2, -0.1]",None,0,13,13,13,,,,,,,,,3902.3074181999546,,,,,,,,,,,,,,,,,,,,,,,,,,,,3902.2914501000196,3902.3074181999546,3902.3074181999546,3902.7740717999404,3902.807306300034,3905.273984199972,3905.290801699972,None,1,,,,,,,,,,,,,,,,,,,,,,,,,,,,,,,,,,,,,,,,,,,,,nback4,001,2023-12-07_16h19.18.069,untitled,2023.2.3,59.833626632597756,2023-12-07 16h19.36.138566 -0500,
7,"[0.3, 0]",None,0,14,14,14,,,,,,,,,3905.3071837000316,,,,,,,,,,,,,,,,,,,,,,,,,,,,3905.2916720999638,3905.3071837000316,3905.3071837000316,3905.7906335999724,3905.807131999987,3908.2905758999987,3908.290745300008,None,1,,,,,,,,,,,,,,,,,,,,,,,,,,,,,,,,,,,,,,,,,,,,,nback4,001,2023-12-07_16h19.18.069,untitled,2023.2.3,59.833626632597756,2023-12-07 16h19.36.138566 -0500,
2,"[0.64, 0.4]",None,0,15,15,15,,,,,,,,,3908.3069941999856,,,,,,,,,,,,,,,,,,,,,,,,,,,,3908.2914208000293,3908.3069941999856,3908.3069941999856,3908.79051359999,3908.8071628999896,3911.290525499964,3911.2906927999575,None,1,,,,,,,,,,,,,,,,,,,,,,,,,,,,,,,,,,,,,,,,,,,,,nback4,001,2023-12-07_16h19.18.069,untitled,2023.2.3,59.833626632597756,2023-12-07 16h19.36.138566 -0500,
2,"[0.64, 0.4]",None,0,16,16,16,,,,,,,,,3911.3071654000087,,,,,,,,,,,,,,,,,,,,,,,,,,,,3911.2913440000266,3911.3071654000087,3911.3071654000087,3911.7903860999504,3911.807151100016,3914.290361799998,3914.290535600041,None,1,,,,,,,,,,,,,,,,,,,,,,,,,,,,,,,,,,,,,,,,,,,,,nback4,001,2023-12-07_16h19.18.069,untitled,2023.2.3,59.833626632597756,2023-12-07 16h19.36.138566 -0500,
11,"[-0.64, -0.4]",space,0,17,17,17,,,,,,,,,3914.3072716000024,,,,,,,,,,,,,,,,,,,,,,,,,,,,3914.291214799974,3914.3072716000024,3914.3072716000024,3914.790406199987,3914.8069998000283,3917.290254099993,3917.290422799997,space,1,0.42621459998190403,None,,,,,,,,,,,,,,,,,,,,,,,,,,,,,,,,,,,,,,,,,,,nback4,001,2023-12-07_16h19.18.069,untitled,2023.2.3,59.833626632597756,2023-12-07 16h19.36.138566 -0500,
11,"[-0.64, -0.4]",space,0,18,18,18,,,,,,,,,3917.3070019000443,,,,,,,,,,,,,,,,,,,,,,,,,,,,3917.2911583000096,3917.3070019000443,3917.3070019000443,3917.79018380004,3917.8068412999855,3920.2901056000264,3920.290230200044,space,1,0.42541450005955994,None,,,,,,,,,,,,,,,,,,,,,,,,,,,,,,,,,,,,,,,,,,,nback4,001,2023-12-07_16h19.18.069,untitled,2023.2.3,59.833626632597756,2023-12-07 16h19.36.138566 -0500,
7,"[0.3, 0]",None,0,19,19,19,,,,,,,,,3920.3068907000124,,,,,,,,,,,,,,,,,,,,,,,,,,,,3920.290708699962,3920.3068907000124,3920.3068907000124,3920.79032359994,3920.8069754999597,3923.2899927999824,3923.2901052000234,None,1,,,,,,,,,,,,,,,,,,,,,,,,,,,,,,,,,,,,,,,,,,,,,nback4,001,2023-12-07_16h19.18.069,untitled,2023.2.3,59.833626632597756,2023-12-07 16h19.36.138566 -0500,
3,"[0, 0.2]",None,0,20,20,20,,,,,,,,,3923.306636500056,,,,,,,,,,,,,,,,,,,,,,,,,,,,3923.2905278999824,3923.306636500056,3923.306636500056,3923.790144199971,3923.8066675999435,3926.290190299973,3926.2903646000195,None,1,,,,,,,,,,,,,,,,,,,,,,,,,,,,,,,,,,,,,,,,,,,,,nback4,001,2023-12-07_16h19.18.069,untitled,2023.2.3,59.833626632597756,2023-12-07 16h19.36.138566 -0500,
10,"[0, -0.2]",None,0,21,21,21,,,,,,,,,3926.307011099998,,,,,,,,,,,,,,,,,,,,,,,,,,,,3926.2910531000234,3926.307011099998,3926.307011099998,3926.7902151000453,3926.806905800011,3929.2901043000165,3929.2902666999726,None,1,,,,,,,,,,,,,,,,,,,,,,,,,,,,,,,,,,,,,,,,,,,,,nback4,001,2023-12-07_16h19.18.069,untitled,2023.2.3,59.833626632597756,2023-12-07 16h19.36.138566 -0500,
1,"[-0.64, 0.4]",None,0,22,22,22,,,,,,,,,3929.3067821000004,,,,,,,,,,,,,,,,,,,,,,,,,,,,3929.2909108999884,3929.3067821000004,3929.3067821000004,3929.7899413999403,3929.806650900049,3932.2900289000245,3932.290167500032,None,1,,,,,,,,,,,,,,,,,,,,,,,,,,,,,,,,,,,,,,,,,,,,,nback4,001,2023-12-07_16h19.18.069,untitled,2023.2.3,59.833626632597756,2023-12-07 16h19.36.138566 -0500,
2,"[0.64, 0.4]",None,0,23,23,23,,,,,,,,,3932.3068020000355,,,,,,,,,,,,,,,,,,,,,,,,,,,,3932.290664799977,3932.3068020000355,3932.3068020000355,3932.790047300048,3932.806644700002,3935.290014100028,3935.2901895999676,None,1,,,,,,,,,,,,,,,,,,,,,,,,,,,,,,,,,,,,,,,,,,,,,nback4,001,2023-12-07_16h19.18.069,untitled,2023.2.3,59.833626632597756,2023-12-07 16h19.36.138566 -0500,
6,"[-0.3, 0]",None,0,24,24,24,,,,,,,,,3935.306699299952,,,,,,,,,,,,,,,,,,,,,,,,,,,,3935.2908408000367,3935.306699299952,3935.306699299952,3935.790039899992,3935.806590500055,3938.2900475000497,3938.2902186999563,None,1,,,,,,,,,,,,,,,,,,,,,,,,,,,,,,,,,,,,,,,,,,,,,nback4,001,2023-12-07_16h19.18.069,untitled,2023.2.3,59.833626632597756,2023-12-07 16h19.36.138566 -0500,
3,"[0, 0.2]",None,0,25,25,25,,,,,,,,,3938.3067250000313,,,,,,,,,,,,,,,,,,,,,,,,,,,,3938.2908755999524,3938.3067250000313,3938.3067250000313,3938.7899753999664,3938.8066099999705,3941.289869499975,3941.2900255999994,None,1,,,,,,,,,,,,,,,,,,,,,,,,,,,,,,,,,,,,,,,,,,,,,nback4,001,2023-12-07_16h19.18.069,untitled,2023.2.3,59.833626632597756,2023-12-07 16h19.36.138566 -0500,
11,"[-0.64, -0.4]",space,0,26,26,26,,,,,,,,,3941.306541500031,,,,,,,,,,,,,,,,,,,,,,,,,,,,3941.290754699963,3941.306541500031,3941.306541500031,3941.78980030003,3941.806551299989,3944.289825899992,3944.2899898999603,space,1,0.35521870001684874,None,,,,,,,,,,,,,,,,,,,,,,,,,,,,,,,,,,,,,,,,,,,nback4,001,2023-12-07_16h19.18.069,untitled,2023.2.3,59.833626632597756,2023-12-07 16h19.36.138566 -0500,
1,"[-0.64, 0.4]",None,0,27,27,27,,,,,,,,,3944.3064732999774,,,,,,,,,,,,,,,,,,,,,,,,,,,,3944.2909232999664,3944.3064732999774,3944.3064732999774,3944.7897132999497,3944.806345100049,3947.2898385999724,3947.2900055999635,None,1,,,,,,,,,,,,,,,,,,,,,,,,,,,,,,,,,,,,,,,,,,,,,nback4,001,2023-12-07_16h19.18.069,untitled,2023.2.3,59.833626632597756,2023-12-07 16h19.36.138566 -0500,
3,"[0, 0.2]",None,0,28,28,28,,,,,,,,,3947.306525400025,,,,,,,,,,,,,,,,,,,,,,,,,,,,3947.290660599945,3947.306525400025,3947.306525400025,3947.789774999954,3947.806403400027,3950.289961099974,3950.2901709999423,None,1,,,,,,,,,,,,,,,,,,,,,,,,,,,,,,,,,,,,,,,,,,,,,nback4,001,2023-12-07_16h19.18.069,untitled,2023.2.3,59.833626632597756,2023-12-07 16h19.36.138566 -0500,
9,"[0.2, -0.1]",None,0,29,29,29,,,,,,,,,3950.306513800053,,,,,,,,,,,,,,,,,,,,,,,,,,,,3950.2910189999966,3950.306513800053,3950.306513800053,3950.7897426999407,3950.806397099979,3953.2896902000066,3953.28989200003,None,1,,,,,,,,,,,,,,,,,,,,,,,,,,,,,,,,,,,,,,,,,,,,,nback4,001,2023-12-07_16h19.18.069,untitled,2023.2.3,59.833626632597756,2023-12-07 16h19.36.138566 -0500,
8,"[-0.2, -0.1]",None,0,30,30,30,,,,,,,,,3953.3062797000166,,,,,,,,,,,,,,,,,,,,,,,,,,,,3953.2905696999514,3953.3062797000166,3953.3062797000166,3953.7897996000247,3953.8065146999434,3956.2897840000223,3956.289987999946,None,1,,,,,,,,,,,,,,,,,,,,,,,,,,,,,,,,,,,,,,,,,,,,,nback4,001,2023-12-07_16h19.18.069,untitled,2023.2.3,59.833626632597756,2023-12-07 16h19.36.138566 -0500,
12,"[0.64, -0.4]",None,0,31,31,31,,,,,,,,,3956.3062830000417,,,,,,,,,,,,,,,,,,,,,,,,,,,,3956.290798199945,3956.3062830000417,3956.3062830000417,3956.7897643999895,3956.8064675000496,3959.2895621999633,3959.2897408000426,None,1,,,,,,,,,,,,,,,,,,,,,,,,,,,,,,,,,,,,,,,,,,,,,nback4,001,2023-12-07_16h19.18.069,untitled,2023.2.3,59.833626632597756,2023-12-07 16h19.36.138566 -0500,
9,"[0.2, -0.1]",None,0,32,32,32,,,,,,,,,3959.306357500027,,,,,,,,,,,,,,,,,,,,,,,,,,,,3959.290435199975,3959.306357500027,3959.306357500027,3959.7895041999873,3959.8061669999734,3962.289540000027,3962.2896988999564,None,1,,,,,,,,,,,,,,,,,,,,,,,,,,,,,,,,,,,,,,,,,,,,,nback4,001,2023-12-07_16h19.18.069,untitled,2023.2.3,59.833626632597756,2023-12-07 16h19.36.138566 -0500,
11,"[-0.64, -0.4]",space,0,33,33,33,,,,,,,,,3962.306169299991,,,,,,,,,,,,,,,,,,,,,,,,,,,,3962.2903114999644,3962.306169299991,3962.306169299991,3962.78955700004,3962.8063368999865,3965.289600600023,3965.2897980000125,space,1,0.3376754999626428,None,,,,,,,,,,,,,,,,,,,,,,,,,,,,,,,,,,,,,,,,,,,nback4,001,2023-12-07_16h19.18.069,untitled,2023.2.3,59.833626632597756,2023-12-07 16h19.36.138566 -0500,
7,"[0.3, 0]",None,0,34,34,34,,,,,,,,,3965.306176800048,,,,,,,,,,,,,,,,,,,,,,,,,,,,3965.290699300007,3965.306176800048,3965.306176800048,3965.7895424000453,3965.806169599993,3968.289449600037,3968.2896268999903,None,1,,,,,,,,,,,,,,,,,,,,,,,,,,,,,,,,,,,,,,,,,,,,,nback4,001,2023-12-07_16h19.18.069,untitled,2023.2.3,59.833626632597756,2023-12-07 16h19.36.138566 -0500,
11,"[-0.64, -0.4]",space,0,35,35,35,,,,,,,,,3968.306193000055,,,,,,,,,,,,,,,,,,,,,,,,,,,,3968.2903191000223,3968.306193000055,3968.306193000055,3968.7896991999587,3968.806207900052,3971.289445400005,3971.2896315000253,space,1,0.4630709000630304,None,,,,,,,,,,,,,,,,,,,,,,,,,,,,,,,,,,,,,,,,,,,nback4,001,2023-12-07_16h19.18.069,untitled,2023.2.3,59.833626632597756,2023-12-07 16h19.36.138566 -0500,
4,"[-0.2, 0.1]",None,0,36,36,36,,,,,,,,,3971.306112500024,,,,,,,,,,,,,,,,,,,,,,,,,,,,3971.2905701999553,3971.306112500024,3971.306112500024,3971.789473699988,3971.806188700022,3974.289374700049,3974.289535899996,None,1,,,,,,,,,,,,,,,,,,,,,,,,,,,,,,,,,,,,,,,,,,,,,nback4,001,2023-12-07_16h19.18.069,untitled,2023.2.3,59.833626632597756,2023-12-07 16h19.36.138566 -0500,
5,"[0.2, 0.1]",None,0,37,37,37,,,,,,,,,3974.3059580000117,,,,,,,,,,,,,,,,,,,,,,,,,,,,3974.290169600048,3974.3059580000117,3974.3059580000117,3974.7893235000083,3974.8059961999534,3977.2894535999512,3977.2897016999777,None,1,,,,,,,,,,,,,,,,,,,,,,,,,,,,,,,,,,,,,,,,,,,,,nback4,001,2023-12-07_16h19.18.069,untitled,2023.2.3,59.833626632597756,2023-12-07 16h19.36.138566 -0500,
6,"[-0.3, 0]",None,0,38,38,38,,,,,,,,,3977.3060360000236,,,,,,,,,,,,,,,,,,,,,,,,,,,,3977.290536100045,3977.3060360000236,3977.3060360000236,3977.7892761999974,3977.8059109000023,3980.2890892999712,3980.2892109999666,None,1,,,,,,,,,,,,,,,,,,,,,,,,,,,,,,,,,,,,,,,,,,,,,nback4,001,2023-12-07_16h19.18.069,untitled,2023.2.3,59.833626632597756,2023-12-07 16h19.36.138566 -0500,
11,"[-0.64, -0.4]",space,0,39,39,39,,,,,,,,,3980.3057502999436,,,,,,,,,,,,,,,,,,,,,,,,,,,,3980.289765099995,3980.3057502999436,3980.3057502999436,3980.7892855999526,3980.8059001000365,3983.2893337999703,3983.28951589996,space,1,0.31184879993088543,None,,,,,,,,,,,,,,,,,,,,,,,,,,,,,,,,,,,,,,,,,,,nback4,001,2023-12-07_16h19.18.069,untitled,2023.2.3,59.833626632597756,2023-12-07 16h19.36.138566 -0500,
,,,,,,,,,,,,,,,,,,,,,,,,,,,,,,,,,,,,,,,,,,,,,,,,,,,,,,3983.2901546000503,3983.3059559999965,3983.3059559999965,4001.7568158999784,space,18.436675400007516,None,,,,,,,,,,,,,,,,,,,,,,,,,,,,,,,,,,,,nback4,001,2023-12-07_16h19.18.069,untitled,2023.2.3,59.833626632597756,2023-12-07 16h19.36.138566 -0500,
10,"[0, -0.2]",None,,,,,0,0,0,0,,,,,4002.7721004999476,,,,,,,,,,,,,,,,,,,,,,,,4001.756851300015,4001.772173400037,4002.7721004999476,4002.7558261000086,,,,,,,,,,,,,,,,,,,4002.7686614999548,4002.7721004999476,4002.7721004999476,4003.2723372000037,4003.2723372000037,4005.772140200017,4005.772140200017,4005.7562798999716,None,1,,,,,,,,,,,,,,,,,,,,,,,,,,nback4,001,2023-12-07_16h19.18.069,untitled,2023.2.3,59.833626632597756,2023-12-07 16h19.36.138566 -0500,
5,"[0.2, 0.1]",None,,,,,0,1,1,1,,,,,4005.772140200017,,,,,,,,,,,,,,,,,,,,,,,,,,,,,,,,,,,,,,,,,,,,,,4005.757132999948,4005.772140200017,4005.772140200017,4006.2720625000075,4006.2720625000075,4008.7721051999833,4008.7721051999833,4008.756214000052,None,1,,,,,,,,,,,,,,,,,,,,,,,,,,nback4,001,2023-12-07_16h19.18.069,untitled,2023.2.3,59.833626632597756,2023-12-07 16h19.36.138566 -0500,
6,"[-0.3, 0]",None,,,,,0,2,2,2,,,,,4008.7721051999833,,,,,,,,,,,,,,,,,,,,,,,,,,,,,,,,,,,,,,,,,,,,,,4008.756854700041,4008.7721051999833,4008.7721051999833,4009.2720774000045,4009.2720774000045,4011.7720868999604,4011.7720868999604,4011.7563064999413,None,1,,,,,,,,,,,,,,,,,,,,,,,,,,nback4,001,2023-12-07_16h19.18.069,untitled,2023.2.3,59.833626632597756,2023-12-07 16h19.36.138566 -0500,
6,"[-0.3, 0]",space,,,,,0,3,3,3,,,,,4011.7720868999604,,,,,,,,,,,,,,,,,,,,,,,,,,,,,,,,,,,,,,,,,,,,,,4011.757070999942,4011.7720868999604,4011.7720868999604,4012.271969499998,4012.271969499998,4014.7720594999846,4014.7720594999846,4014.75621589995,space,1,0.6704267000313848,None,,,,,,,,,,,,,,,,,,,,,,,,nback4,001,2023-12-07_16h19.18.069,untitled,2023.2.3,59.833626632597756,2023-12-07 16h19.36.138566 -0500,
12,"[0.64, -0.4]",None,,,,,0,4,4,4,,,,,4014.7720594999846,,,,,,,,,,,,,,,,,,,,,,,,,,,,,,,,,,,,,,,,,,,,,,4014.757121599978,4014.7720594999846,4014.7720594999846,4015.271709499997,4015.271709499997,4017.7719111000188,4017.7719111000188,4017.7560327999527,None,1,,,,,,,,,,,,,,,,,,,,,,,,,,nback4,001,2023-12-07_16h19.18.069,untitled,2023.2.3,59.833626632597756,2023-12-07 16h19.36.138566 -0500,
10,"[0, -0.2]",None,,,,,0,5,5,5,,,,,4017.7719111000188,,,,,,,,,,,,,,,,,,,,,,,,,,,,,,,,,,,,,,,,,,,,,,4017.75667849998,4017.7719111000188,4017.7719111000188,4018.2718487000093,4018.2718487000093,4020.7720053000376,4020.7720053000376,4020.7560846999986,None,1,,,,,,,,,,,,,,,,,,,,,,,,,,nback4,001,2023-12-07_16h19.18.069,untitled,2023.2.3,59.833626632597756,2023-12-07 16h19.36.138566 -0500,
2,"[0.64, 0.4]",None,,,,,0,6,6,6,,,,,4020.7720053000376,,,,,,,,,,,,,,,,,,,,,,,,,,,,,,,,,,,,,,,,,,,,,,4020.7567101999884,4020.7720053000376,4020.7720053000376,4021.271656899946,4021.271656899946,4023.7718695000513,4023.7718695000513,4023.756020699977,None,1,,,,,,,,,,,,,,,,,,,,,,,,,,nback4,001,2023-12-07_16h19.18.069,untitled,2023.2.3,59.833626632597756,2023-12-07 16h19.36.138566 -0500,
9,"[0.2, -0.1]",None,,,,,0,7,7,7,,,,,4023.7718695000513,,,,,,,,,,,,,,,,,,,,,,,,,,,,,,,,,,,,,,,,,,,,,,4023.756675099954,4023.7718695000513,4023.7718695000513,4024.2719145000447,4024.2719145000447,4026.7717652999563,4026.7717652999563,4026.755843300023,None,1,,,,,,,,,,,,,,,,,,,,,,,,,,nback4,001,2023-12-07_16h19.18.069,untitled,2023.2.3,59.833626632597756,2023-12-07 16h19.36.138566 -0500,
9,"[0.2, -0.1]",space,,,,,0,8,8,8,,,,,4026.7717652999563,,,,,,,,,,,,,,,,,,,,,,,,,,,,,,,,,,,,,,,,,,,,,,4026.7565328000346,4026.7717652999563,4026.7717652999563,4027.2718745999737,4027.2718745999737,4029.7717639999464,4029.7717639999464,4029.7559195000213,None,0,,,,,,,,,,,,,,,,,,,,,,,,,,nback4,001,2023-12-07_16h19.18.069,untitled,2023.2.3,59.833626632597756,2023-12-07 16h19.36.138566 -0500,
6,"[-0.3, 0]",None,,,,,0,9,9,9,,,,,4029.7717639999464,,,,,,,,,,,,,,,,,,,,,,,,,,,,,,,,,,,,,,,,,,,,,,4029.756569099962,4029.7717639999464,4029.7717639999464,4030.2715670999605,4030.2715670999605,4032.771777200047,4032.771777200047,4032.7561342000263,None,1,,,,,,,,,,,,,,,,,,,,,,,,,,nback4,001,2023-12-07_16h19.18.069,untitled,2023.2.3,59.833626632597756,2023-12-07 16h19.36.138566 -0500,
11,"[-0.64, -0.4]",None,,,,,0,10,10,10,,,,,4032.771777200047,,,,,,,,,,,,,,,,,,,,,,,,,,,,,,,,,,,,,,,,,,,,,,4032.7568247000454,4032.771777200047,4032.771777200047,4033.2716867000563,4033.2716867000563,4035.771508899983,4035.771508899983,4035.7559023000067,None,1,,,,,,,,,,,,,,,,,,,,,,,,,,nback4,001,2023-12-07_16h19.18.069,untitled,2023.2.3,59.833626632597756,2023-12-07 16h19.36.138566 -0500,
11,"[-0.64, -0.4]",space,,,,,0,11,11,11,,,,,4035.771508899983,,,,,,,,,,,,,,,,,,,,,,,,,,,,,,,,,,,,,,,,,,,,,,4035.756575700012,4035.771508899983,4035.771508899983,4036.271488099941,4036.271488099941,4038.771464499994,4038.771464499994,4038.7555122999474,None,0,,,,,,,,,,,,,,,,,,,,,,,,,,nback4,001,2023-12-07_16h19.18.069,untitled,2023.2.3,59.833626632597756,2023-12-07 16h19.36.138566 -0500,
4,"[-0.2, 0.1]",None,,,,,0,12,12,12,,,,,4038.771464499994,,,,,,,,,,,,,,,,,,,,,,,,,,,,,,,,,,,,,,,,,,,,,,4038.756088700029,4038.771464499994,4038.771464499994,4039.27148580004,4039.27148580004,4041.771649800008,4041.771649800008,4041.755467299954,None,1,,,,,,,,,,,,,,,,,,,,,,,,,,nback4,001,2023-12-07_16h19.18.069,untitled,2023.2.3,59.833626632597756,2023-12-07 16h19.36.138566 -0500,
3,"[0, 0.2]",None,,,,,0,13,13,13,,,,,4041.771649800008,,,,,,,,,,,,,,,,,,,,,,,,,,,,,,,,,,,,,,,,,,,,,,4041.7560399000067,4041.771649800008,4041.771649800008,4042.271537499968,4042.271537499968,4044.771516500041,4044.771516500041,4044.755777299986,None,1,,,,,,,,,,,,,,,,,,,,,,,,,,nback4,001,2023-12-07_16h19.18.069,untitled,2023.2.3,59.833626632597756,2023-12-07 16h19.36.138566 -0500,
3,"[0, 0.2]",space,,,,,0,14,14,14,,,,,4044.771516500041,,,,,,,,,,,,,,,,,,,,,,,,,,,,,,,,,,,,,,,,,,,,,,4044.756467500003,4044.771516500041,4044.771516500041,4045.271477399976,4045.271477399976,4047.7714259000495,4047.7714259000495,4047.7553072000155,None,0,,,,,,,,,,,,,,,,,,,,,,,,,,nback4,001,2023-12-07_16h19.18.069,untitled,2023.2.3,59.833626632597756,2023-12-07 16h19.36.138566 -0500,
8,"[-0.2, -0.1]",None,,,,,0,15,15,15,,,,,4047.7714259000495,,,,,,,,,,,,,,,,,,,,,,,,,,,,,,,,,,,,,,,,,,,,,,4047.755838299985,4047.7714259000495,4047.7714259000495,4048.271419800003,4048.271419800003,4050.7713902000105,4050.7713902000105,4050.755876500043,None,1,,,,,,,,,,,,,,,,,,,,,,,,,,nback4,001,2023-12-07_16h19.18.069,untitled,2023.2.3,59.833626632597756,2023-12-07 16h19.36.138566 -0500,
1,"[-0.64, 0.4]",None,,,,,0,16,16,16,,,,,4050.7713902000105,,,,,,,,,,,,,,,,,,,,,,,,,,,,,,,,,,,,,,,,,,,,,,4050.7567296000198,4050.7713902000105,4050.7713902000105,4051.2713319000322,4051.2713319000322,4053.7712696000235,4053.7712696000235,4053.755222299951,None,1,,,,,,,,,,,,,,,,,,,,,,,,,,nback4,001,2023-12-07_16h19.18.069,untitled,2023.2.3,59.833626632597756,2023-12-07 16h19.36.138566 -0500,
2,"[0.64, 0.4]",None,,,,,0,17,17,17,,,,,4053.7712696000235,,,,,,,,,,,,,,,,,,,,,,,,,,,,,,,,,,,,,,,,,,,,,,4053.755899699987,4053.7712696000235,4053.7712696000235,4054.271133800037,4054.271133800037,4056.771259699948,4056.771259699948,4056.7554171000374,None,1,,,,,,,,,,,,,,,,,,,,,,,,,,nback4,001,2023-12-07_16h19.18.069,untitled,2023.2.3,59.833626632597756,2023-12-07 16h19.36.138566 -0500,
4,"[-0.2, 0.1]",None,,,,,0,18,18,18,,,,,4056.771259699948,,,,,,,,,,,,,,,,,,,,,,,,,,,,,,,,,,,,,,,,,,,,,,4056.7560800999636,4056.771259699948,4056.771259699948,4057.271259399946,4057.271259399946,4059.771136999945,4059.771136999945,4059.7556136000203,None,1,,,,,,,,,,,,,,,,,,,,,,,,,,nback4,001,2023-12-07_16h19.18.069,untitled,2023.2.3,59.833626632597756,2023-12-07 16h19.36.138566 -0500,
4,"[-0.2, 0.1]",space,,,,,0,19,19,19,,,,,4059.771136999945,,,,,,,,,,,,,,,,,,,,,,,,,,,,,,,,,,,,,,,,,,,,,,4059.7564167999662,4059.771136999945,4059.771136999945,4060.2710978999967,4060.2710978999967,4062.7710501999827,4062.7710501999827,4062.7554800000507,None,0,,,,,,,,,,,,,,,,,,,,,,,,,,nback4,001,2023-12-07_16h19.18.069,untitled,2023.2.3,59.833626632597756,2023-12-07 16h19.36.138566 -0500,
8,"[-0.2, -0.1]",None,,,,,0,20,20,20,,,,,4062.7710501999827,,,,,,,,,,,,,,,,,,,,,,,,,,,,,,,,,,,,,,,,,,,,,,4062.756100700004,4062.7710501999827,4062.7710501999827,4063.271124299965,4063.271124299965,4065.771211800049,4065.771211800049,4065.755184800015,None,1,,,,,,,,,,,,,,,,,,,,,,,,,,nback4,001,2023-12-07_16h19.18.069,untitled,2023.2.3,59.833626632597756,2023-12-07 16h19.36.138566 -0500,
5,"[0.2, 0.1]",None,,,,,0,21,21,21,,,,,4065.771211800049,,,,,,,,,,,,,,,,,,,,,,,,,,,,,,,,,,,,,,,,,,,,,,4065.7557980000274,4065.771211800049,4065.771211800049,4066.2711350000463,4066.2711350000463,4068.7711325000273,4068.7711325000273,4068.7552821999416,None,1,,,,,,,,,,,,,,,,,,,,,,,,,,nback4,001,2023-12-07_16h19.18.069,untitled,2023.2.3,59.833626632597756,2023-12-07 16h19.36.138566 -0500,
5,"[0.2, 0.1]",space,,,,,0,22,22,22,,,,,4068.7711325000273,,,,,,,,,,,,,,,,,,,,,,,,,,,,,,,,,,,,,,,,,,,,,,4068.7559135999763,4068.7711325000273,4068.7711325000273,4069.270883499994,4069.270883499994,4071.7710770999547,4071.7710770999547,4071.75570530002,None,0,,,,,,,,,,,,,,,,,,,,,,,,,,nback4,001,2023-12-07_16h19.18.069,untitled,2023.2.3,59.833626632597756,2023-12-07 16h19.36.138566 -0500,
1,"[-0.64, 0.4]",None,,,,,0,23,23,23,,,,,4071.7710770999547,,,,,,,,,,,,,,,,,,,,,,,,,,,,,,,,,,,,,,,,,,,,,,4071.756461599958,4071.7710770999547,4071.7710770999547,4072.2709164000116,4072.2709164000116,4074.7707942000125,4074.7707942000125,4074.755154800019,None,1,,,,,,,,,,,,,,,,,,,,,,,,,,nback4,001,2023-12-07_16h19.18.069,untitled,2023.2.3,59.833626632597756,2023-12-07 16h19.36.138566 -0500,
3,"[0, 0.2]",None,,,,,0,24,24,24,,,,,4074.7707942000125,,,,,,,,,,,,,,,,,,,,,,,,,,,,,,,,,,,,,,,,,,,,,,4074.755816400051,4074.7707942000125,4074.7707942000125,4075.2708593000425,4075.2708593000425,4077.770879299962,4077.770879299962,4077.755565700005,None,1,,,,,,,,,,,,,,,,,,,,,,,,,,nback4,001,2023-12-07_16h19.18.069,untitled,2023.2.3,59.833626632597756,2023-12-07 16h19.36.138566 -0500,
6,"[-0.3, 0]",None,,,,,0,25,25,25,,,,,4077.770879299962,,,,,,,,,,,,,,,,,,,,,,,,,,,,,,,,,,,,,,,,,,,,,,4077.755875700037,4077.770879299962,4077.770879299962,4078.2710511999903,4078.2710511999903,4080.7709233999485,4080.7709233999485,4080.75500200002,None,1,,,,,,,,,,,,,,,,,,,,,,,,,,nback4,001,2023-12-07_16h19.18.069,untitled,2023.2.3,59.833626632597756,2023-12-07 16h19.36.138566 -0500,
1,"[-0.64, 0.4]",None,,,,,0,26,26,26,,,,,4080.7709233999485,,,,,,,,,,,,,,,,,,,,,,,,,,,,,,,,,,,,,,,,,,,,,,4080.7556523999665,4080.7709233999485,4080.7709233999485,4081.2707494000206,4081.2707494000206,4083.7708428000333,4083.7708428000333,4083.7548556999536,None,1,,,,,,,,,,,,,,,,,,,,,,,,,,nback4,001,2023-12-07_16h19.18.069,untitled,2023.2.3,59.833626632597756,2023-12-07 16h19.36.138566 -0500,
1,"[-0.64, 0.4]",space,,,,,0,27,27,27,,,,,4083.7708428000333,,,,,,,,,,,,,,,,,,,,,,,,,,,,,,,,,,,,,,,,,,,,,,4083.7554942000424,4083.7708428000333,4083.7708428000333,4084.270798600046,4084.270798600046,4086.770791399991,4086.770791399991,4086.7548084999435,space,1,0.3849897999316454,None,,,,,,,,,,,,,,,,,,,,,,,,nback4,001,2023-12-07_16h19.18.069,untitled,2023.2.3,59.833626632597756,2023-12-07 16h19.36.138566 -0500,
1,"[-0.64, 0.4]",space,,,,,0,28,28,28,,,,,4086.770791399991,,,,,,,,,,,,,,,,,,,,,,,,,,,,,,,,,,,,,,,,,,,,,,4086.7555778999813,4086.770791399991,4086.770791399991,4087.2708171999548,4087.2708171999548,4089.770693099941,4089.770693099941,4089.7548953000223,None,0,,,,,,,,,,,,,,,,,,,,,,,,,,nback4,001,2023-12-07_16h19.18.069,untitled,2023.2.3,59.833626632597756,2023-12-07 16h19.36.138566 -0500,
3,"[0, 0.2]",None,,,,,0,29,29,29,,,,,4089.770693099941,,,,,,,,,,,,,,,,,,,,,,,,,,,,,,,,,,,,,,,,,,,,,,4089.7554524999578,4089.770693099941,4089.770693099941,4090.2707456999924,4090.2707456999924,4092.7705953000113,4092.7705953000113,4092.75477270002,None,1,,,,,,,,,,,,,,,,,,,,,,,,,,nback4,001,2023-12-07_16h19.18.069,untitled,2023.2.3,59.833626632597756,2023-12-07 16h19.36.138566 -0500,
12,"[0.64, -0.4]",None,,,,,0,30,30,30,,,,,4092.7705953000113,,,,,,,,,,,,,,,,,,,,,,,,,,,,,,,,,,,,,,,,,,,,,,4092.7554064999567,4092.7705953000113,4092.7705953000113,4093.270578399999,4093.270578399999,4095.7706234999932,4095.7706234999932,4095.754738699994,None,1,,,,,,,,,,,,,,,,,,,,,,,,,,nback4,001,2023-12-07_16h19.18.069,untitled,2023.2.3,59.833626632597756,2023-12-07 16h19.36.138566 -0500,
12,"[0.64, -0.4]",space,,,,,0,31,31,31,,,,,4095.7706234999932,,,,,,,,,,,,,,,,,,,,,,,,,,,,,,,,,,,,,,,,,,,,,,4095.7553452999564,4095.7706234999932,4095.7706234999932,4096.270302899997,4096.270302899997,4098.770494799945,4098.770494799945,4098.7547048999695,space,1,0.900918599916622,None,,,,,,,,,,,,,,,,,,,,,,,,nback4,001,2023-12-07_16h19.18.069,untitled,2023.2.3,59.833626632597756,2023-12-07 16h19.36.138566 -0500,
2,"[0.64, 0.4]",None,,,,,0,32,32,32,,,,,4098.770494799945,,,,,,,,,,,,,,,,,,,,,,,,,,,,,,,,,,,,,,,,,,,,,,4098.755438399967,4098.770494799945,4098.770494799945,4099.270484899986,4099.270484899986,4101.770437599975,4101.770437599975,4101.754598599975,None,1,,,,,,,,,,,,,,,,,,,,,,,,,,nback4,001,2023-12-07_16h19.18.069,untitled,2023.2.3,59.833626632597756,2023-12-07 16h19.36.138566 -0500,
1,"[-0.64, 0.4]",None,,,,,0,33,33,33,,,,,4101.770437599975,,,,,,,,,,,,,,,,,,,,,,,,,,,,,,,,,,,,,,,,,,,,,,4101.755245400011,4101.770437599975,4101.770437599975,4102.2704009000445,4102.2704009000445,4104.77056189999,4104.77056189999,4104.755006700056,None,1,,,,,,,,,,,,,,,,,,,,,,,,,,nback4,001,2023-12-07_16h19.18.069,untitled,2023.2.3,59.833626632597756,2023-12-07 16h19.36.138566 -0500,
7,"[0.3, 0]",None,,,,,0,34,34,34,,,,,4104.77056189999,,,,,,,,,,,,,,,,,,,,,,,,,,,,,,,,,,,,,,,,,,,,,,4104.755865999963,4104.77056189999,4104.77056189999,4105.27053400001,4105.27053400001,4107.770320700016,4107.770320700016,4107.754870699951,None,1,,,,,,,,,,,,,,,,,,,,,,,,,,nback4,001,2023-12-07_16h19.18.069,untitled,2023.2.3,59.833626632597756,2023-12-07 16h19.36.138566 -0500,
7,"[0.3, 0]",space,,,,,0,35,35,35,,,,,4107.770320700016,,,,,,,,,,,,,,,,,,,,,,,,,,,,,,,,,,,,,,,,,,,,,,4107.755644400022,4107.770320700016,4107.770320700016,4108.270529299974,4108.270529299974,4110.77047410002,4110.77047410002,4110.75456869998,space,1,0.6425060000037774,None,,,,,,,,,,,,,,,,,,,,,,,,nback4,001,2023-12-07_16h19.18.069,untitled,2023.2.3,59.833626632597756,2023-12-07 16h19.36.138566 -0500,
11,"[-0.64, -0.4]",None,,,,,0,36,36,36,,,,,4110.77047410002,,,,,,,,,,,,,,,,,,,,,,,,,,,,,,,,,,,,,,,,,,,,,,4110.755276800017,4110.77047410002,4110.77047410002,4111.270160999964,4111.270160999964,4113.770380900009,4113.770380900009,4113.754338799976,None,1,,,,,,,,,,,,,,,,,,,,,,,,,,nback4,001,2023-12-07_16h19.18.069,untitled,2023.2.3,59.833626632597756,2023-12-07 16h19.36.138566 -0500,
2,"[0.64, 0.4]",None,,,,,0,37,37,37,,,,,4113.770380900009,,,,,,,,,,,,,,,,,,,,,,,,,,,,,,,,,,,,,,,,,,,,,,4113.754945500055,4113.770380900009,4113.770380900009,4114.270092000021,4114.270092000021,4116.770116699976,4116.770116699976,4116.754245999968,None,1,,,,,,,,,,,,,,,,,,,,,,,,,,nback4,001,2023-12-07_16h19.18.069,untitled,2023.2.3,59.833626632597756,2023-12-07 16h19.36.138566 -0500,
6,"[-0.3, 0]",None,,,,,0,38,38,38,,,,,4116.770116699976,,,,,,,,,,,,,,,,,,,,,,,,,,,,,,,,,,,,,,,,,,,,,,4116.754801000003,4116.770116699976,4116.770116699976,4117.270214500022,4117.270214500022,4119.770355200046,4119.770355200046,4119.75448620005,None,1,,,,,,,,,,,,,,,,,,,,,,,,,,nback4,001,2023-12-07_16h19.18.069,untitled,2023.2.3,59.833626632597756,2023-12-07 16h19.36.138566 -0500,
10,"[0, -0.2]",None,,,,,0,39,39,39,,,,,4119.770355200046,,,,,,,,,,,,,,,,,,,,,,,,,,,,,,,,,,,,,,,,,,,,,,4119.75521740003,4119.770355200046,4119.770355200046,4120.270272399997,4120.270272399997,4122.770166000002,4122.770166000002,4122.754274899955,None,1,,,,,,,,,,,,,,,,,,,,,,,,,,nback4,001,2023-12-07_16h19.18.069,untitled,2023.2.3,59.833626632597756,2023-12-07 16h19.36.138566 -0500,
,,,,,,,,,,,,,,,,,,,,,,,,,,,,,,,,,,,,,,,,,,,,,,,,,,,,,,,,,,,,,,,,,,,,,,,,,4122.754810499959,4122.770166000002,4122.770166000002,4146.020715199993,space,23.24248160002753,None,,,,,,,,,,,,,,,,,nback4,001,2023-12-07_16h19.18.069,untitled,2023.2.3,59.833626632597756,2023-12-07 16h19.36.138566 -0500,
,"[0.2, 0.1]",None,,,,,,,,,0,0,0,0,4147.037357000052,,,,,,,,,,,,,,,,,,,,,,,,4146.020747000002,4146.036609299947,4147.037357000052,4147.020687800017,,,,,,,,,,,,,,,,,,,,,,,,,,,,,,,,,,,,,,4147.035260500037,4147.037357000052,4147.037357000052,4147.519613899989,4147.552951600053,4150.019651400042,4150.036361300037,4150.020574499969,None,1,,,,,,,nback4,001,2023-12-07_16h19.18.069,untitled,2023.2.3,59.833626632597756,2023-12-07 16h19.36.138566 -0500,
,"[0.64, 0.4]",None,,,,,,,,,0,1,1,1,4150.036361300037,,,,,,,,,,,,,,,,,,,,,,,,,,,,,,,,,,,,,,,,,,,,,,,,,,,,,,,,,,,,,,,,,4150.021391100017,4150.036361300037,4150.036361300037,4150.519581299974,4150.536443499965,4153.019688099972,4153.03645689995,4153.020512999967,None,1,,,,,,,nback4,001,2023-12-07_16h19.18.069,untitled,2023.2.3,59.833626632597756,2023-12-07 16h19.36.138566 -0500,
,"[-0.3, 0]",None,,,,,,,,,0,2,2,2,4153.03645689995,,,,,,,,,,,,,,,,,,,,,,,,,,,,,,,,,,,,,,,,,,,,,,,,,,,,,,,,,,,,,,,,,4153.0212193999905,4153.03645689995,4153.03645689995,4153.536317600054,4153.536317600054,4156.036387600005,4156.036387600005,4156.020356400055,None,1,,,,,,,nback4,001,2023-12-07_16h19.18.069,untitled,2023.2.3,59.833626632597756,2023-12-07 16h19.36.138566 -0500,
,"[0.2, -0.1]",None,,,,,,,,,0,3,3,3,4156.036387600005,,,,,,,,,,,,,,,,,,,,,,,,,,,,,,,,,,,,,,,,,,,,,,,,,,,,,,,,,,,,,,,,,4156.0210046999855,4156.036387600005,4156.036387600005,4156.536362400046,4156.536362400046,4159.036220500013,4159.036220500013,4159.020135600003,None,1,,,,,,,nback4,001,2023-12-07_16h19.18.069,untitled,2023.2.3,59.833626632597756,2023-12-07 16h19.36.138566 -0500,
,"[0, 0.2]",None,,,,,,,,,0,4,4,4,4159.036220500013,,,,,,,,,,,,,,,,,,,,,,,,,,,,,,,,,,,,,,,,,,,,,,,,,,,,,,,,,,,,,,,,,4159.020695699961,4159.036220500013,4159.036220500013,4159.519426199957,4159.536155399983,4162.019411599962,4162.036199999973,4162.02022419998,None,1,,,,,,,nback4,001,2023-12-07_16h19.18.069,untitled,2023.2.3,59.833626632597756,2023-12-07 16h19.36.138566 -0500,
,"[0.2, -0.1]",space,,,,,,,,,0,5,5,5,4162.036199999973,,,,,,,,,,,,,,,,,,,,,,,,,,,,,,,,,,,,,,,,,,,,,,,,,,,,,,,,,,,,,,,,,4162.020847399952,4162.036199999973,4162.036199999973,4162.536165799946,4162.536165799946,4165.036178700044,4165.036178700044,4165.020479299943,space,1,0.7499931999482214,None,,,,,nback4,001,2023-12-07_16h19.18.069,untitled,2023.2.3,59.833626632597756,2023-12-07 16h19.36.138566 -0500,
,"[0, -0.2]",None,,,,,,,,,0,6,6,6,4165.036178700044,,,,,,,,,,,,,,,,,,,,,,,,,,,,,,,,,,,,,,,,,,,,,,,,,,,,,,,,,,,,,,,,,4165.02154700004,4165.036178700044,4165.036178700044,4165.536275799968,4165.536275799968,4168.036236500018,4168.036236500018,4168.020679899957,None,1,,,,,,,nback4,001,2023-12-07_16h19.18.069,untitled,2023.2.3,59.833626632597756,2023-12-07 16h19.36.138566 -0500,
,"[0.64, -0.4]",None,,,,,,,,,0,7,7,7,4168.036236500018,,,,,,,,,,,,,,,,,,,,,,,,,,,,,,,,,,,,,,,,,,,,,,,,,,,,,,,,,,,,,,,,,4168.021679800004,4168.036236500018,4168.036236500018,4168.536072100047,4168.536072100047,4171.035972099984,4171.035972099984,4171.020060200011,None,1,,,,,,,nback4,001,2023-12-07_16h19.18.069,untitled,2023.2.3,59.833626632597756,2023-12-07 16h19.36.138566 -0500,
,"[0.3, 0]",None,,,,,,,,,0,8,8,8,4171.035972099984,,,,,,,,,,,,,,,,,,,,,,,,,,,,,,,,,,,,,,,,,,,,,,,,,,,,,,,,,,,,,,,,,4171.020718500018,4171.035972099984,4171.035972099984,4171.536176000023,4171.536176000023,4174.035992000019,4174.035992000019,4174.020408599987,None,1,,,,,,,nback4,001,2023-12-07_16h19.18.069,untitled,2023.2.3,59.833626632597756,2023-12-07 16h19.36.138566 -0500,
,"[0.64, -0.4]",space,,,,,,,,,0,9,9,9,4174.035992000019,,,,,,,,,,,,,,,,,,,,,,,,,,,,,,,,,,,,,,,,,,,,,,,,,,,,,,,,,,,,,,,,,4174.021190900006,4174.035992000019,4174.035992000019,4174.536009000032,4174.536009000032,4177.036018199986,4177.036018199986,4177.020268499968,space,1,0.9363947999663651,None,,,,,nback4,001,2023-12-07_16h19.18.069,untitled,2023.2.3,59.833626632597756,2023-12-07 16h19.36.138566 -0500,
,"[-0.64, 0.4]",None,,,,,,,,,0,10,10,10,4177.036018199986,,,,,,,,,,,,,,,,,,,,,,,,,,,,,,,,,,,,,,,,,,,,,,,,,,,,,,,,,,,,,,,,,4177.021167999948,4177.036018199986,4177.036018199986,4177.5359544999665,4177.5359544999665,4180.035688200034,4180.035688200034,4180.01915399998,None,1,,,,,,,nback4,001,2023-12-07_16h19.18.069,untitled,2023.2.3,59.833626632597756,2023-12-07 16h19.36.138566 -0500,
,"[0.2, 0.1]",None,,,,,,,,,0,11,11,11,4180.035688200034,,,,,,,,,,,,,,,,,,,,,,,,,,,,,,,,,,,,,,,,,,,,,,,,,,,,,,,,,,,,,,,,,4180.019489999977,4180.035688200034,4180.035688200034,4180.5356195999775,4180.5356195999775,4183.035653900006,4183.035653900006,4183.019273099955,None,1,,,,,,,nback4,001,2023-12-07_16h19.18.069,untitled,2023.2.3,59.833626632597756,2023-12-07 16h19.36.138566 -0500,
,"[0.3, 0]",None,,,,,,,,,0,12,12,12,4183.035653900006,,,,,,,,,,,,,,,,,,,,,,,,,,,,,,,,,,,,,,,,,,,,,,,,,,,,,,,,,,,,,,,,,4183.0196090999525,4183.035653900006,4183.035653900006,4183.535601699958,4183.535601699958,4186.035556899966,4186.035556899966,4186.019375600037,None,1,,,,,,,nback4,001,2023-12-07_16h19.18.069,untitled,2023.2.3,59.833626632597756,2023-12-07 16h19.36.138566 -0500,
,"[0.2, 0.1]",space,,,,,,,,,0,13,13,13,4186.035556899966,,,,,,,,,,,,,,,,,,,,,,,,,,,,,,,,,,,,,,,,,,,,,,,,,,,,,,,,,,,,,,,,,4186.019773200038,4186.035556899966,4186.035556899966,4186.535568100051,4186.535568100051,4189.0356387000065,4189.0356387000065,4189.019162400044,space,1,1.0870589999249205,None,,,,,nback4,001,2023-12-07_16h19.18.069,untitled,2023.2.3,59.833626632597756,2023-12-07 16h19.36.138566 -0500,
,"[-0.3, 0]",None,,,,,,,,,0,14,14,14,4189.0356387000065,,,,,,,,,,,,,,,,,,,,,,,,,,,,,,,,,,,,,,,,,,,,,,,,,,,,,,,,,,,,,,,,,4189.019592699944,4189.0356387000065,4189.0356387000065,4189.5355590999825,4189.5355590999825,4192.035489100032,4192.035489100032,4192.0192076000385,None,1,,,,,,,nback4,001,2023-12-07_16h19.18.069,untitled,2023.2.3,59.833626632597756,2023-12-07 16h19.36.138566 -0500,
,"[0, 0.2]",None,,,,,,,,,0,15,15,15,4192.035489100032,,,,,,,,,,,,,,,,,,,,,,,,,,,,,,,,,,,,,,,,,,,,,,,,,,,,,,,,,,,,,,,,,4192.019545100047,4192.035489100032,4192.035489100032,4192.53556800005,4192.53556800005,4195.035407899995,4195.035407899995,4195.01908150001,None,1,,,,,,,nback4,001,2023-12-07_16h19.18.069,untitled,2023.2.3,59.833626632597756,2023-12-07 16h19.36.138566 -0500,
,"[-0.3, 0]",space,,,,,,,,,0,16,16,16,4195.035407899995,,,,,,,,,,,,,,,,,,,,,,,,,,,,,,,,,,,,,,,,,,,,,,,,,,,,,,,,,,,,,,,,,4195.019470299943,4195.035407899995,4195.035407899995,4195.535449699964,4195.535449699964,4198.035595600028,4198.035595600028,4198.019802200026,space,1,0.8843474999302998,None,,,,,nback4,001,2023-12-07_16h19.18.069,untitled,2023.2.3,59.833626632597756,2023-12-07 16h19.36.138566 -0500,
,"[-0.64, -0.4]",None,,,,,,,,,0,17,17,17,4198.035595600028,,,,,,,,,,,,,,,,,,,,,,,,,,,,,,,,,,,,,,,,,,,,,,,,,,,,,,,,,,,,,,,,,4198.0207175000105,4198.035595600028,4198.035595600028,4198.535783899948,4198.535783899948,4201.035507100052,4201.035507100052,4201.019540600013,None,1,,,,,,,nback4,001,2023-12-07_16h19.18.069,untitled,2023.2.3,59.833626632597756,2023-12-07 16h19.36.138566 -0500,
,"[-0.2, -0.1]",None,,,,,,,,,0,18,18,18,4201.035507100052,,,,,,,,,,,,,,,,,,,,,,,,,,,,,,,,,,,,,,,,,,,,,,,,,,,,,,,,,,,,,,,,,4201.0201653999975,4201.035507100052,4201.035507100052,4201.5354410000145,4201.5354410000145,4204.035462599946,4204.035462599946,4204.019601500011,None,1,,,,,,,nback4,001,2023-12-07_16h19.18.069,untitled,2023.2.3,59.833626632597756,2023-12-07 16h19.36.138566 -0500,
,"[0.2, -0.1]",None,,,,,,,,,0,19,19,19,4204.035462599946,,,,,,,,,,,,,,,,,,,,,,,,,,,,,,,,,,,,,,,,,,,,,,,,,,,,,,,,,,,,,,,,,4204.020335600013,4204.035462599946,4204.035462599946,4204.535482099978,4204.535482099978,4207.035384600051,4207.035384600051,4207.01988399995,None,1,,,,,,,nback4,001,2023-12-07_16h19.18.069,untitled,2023.2.3,59.833626632597756,2023-12-07 16h19.36.138566 -0500,
,"[0.2, -0.1]",None,,,,,,,,,0,20,20,20,4207.035384600051,,,,,,,,,,,,,,,,,,,,,,,,,,,,,,,,,,,,,,,,,,,,,,,,,,,,,,,,,,,,,,,,,4207.020746800001,4207.035384600051,4207.035384600051,4207.535429600044,4207.535429600044,4210.0353486000095,4210.0353486000095,4210.019158600015,None,1,,,,,,,nback4,001,2023-12-07_16h19.18.069,untitled,2023.2.3,59.833626632597756,2023-12-07 16h19.36.138566 -0500,
,"[-0.64, 0.4]",None,,,,,,,,,0,21,21,21,4210.0353486000095,,,,,,,,,,,,,,,,,,,,,,,,,,,,,,,,,,,,,,,,,,,,,,,,,,,,,,,,,,,,,,,,,4210.019738700008,4210.0353486000095,4210.0353486000095,4210.535229500034,4210.535229500034,4213.035363700008,4213.035363700008,4213.019248900004,None,1,,,,,,,nback4,001,2023-12-07_16h19.18.069,untitled,2023.2.3,59.833626632597756,2023-12-07 16h19.36.138566 -0500,
,"[0, 0.2]",None,,,,,,,,,0,22,22,22,4213.035363700008,,,,,,,,,,,,,,,,,,,,,,,,,,,,,,,,,,,,,,,,,,,,,,,,,,,,,,,,,,,,,,,,,4213.019821000053,4213.035363700008,4213.035363700008,4213.535338200047,4213.535338200047,4216.0353988000425,4216.0353988000425,4216.019515200052,None,1,,,,,,,nback4,001,2023-12-07_16h19.18.069,untitled,2023.2.3,59.833626632597756,2023-12-07 16h19.36.138566 -0500,
,"[0.64, -0.4]",None,,,,,,,,,0,23,23,23,4216.0353988000425,,,,,,,,,,,,,,,,,,,,,,,,,,,,,,,,,,,,,,,,,,,,,,,,,,,,,,,,,,,,,,,,,4216.020199100021,4216.0353988000425,4216.0353988000425,4216.535358999972,4216.535358999972,4219.035256500007,4219.035256500007,4219.019053300028,None,1,,,,,,,nback4,001,2023-12-07_16h19.18.069,untitled,2023.2.3,59.833626632597756,2023-12-07 16h19.36.138566 -0500,
,"[0, 0.2]",space,,,,,,,,,0,24,24,24,4219.035256500007,,,,,,,,,,,,,,,,,,,,,,,,,,,,,,,,,,,,,,,,,,,,,,,,,,,,,,,,,,,,,,,,,4219.019467800041,4219.035256500007,4219.035256500007,4219.535199600039,4219.535199600039,4222.035222099978,4222.035222099978,4222.019286599942,space,1,0.8432339000282809,None,,,,,nback4,001,2023-12-07_16h19.18.069,untitled,2023.2.3,59.833626632597756,2023-12-07 16h19.36.138566 -0500,
,"[-0.2, 0.1]",None,,,,,,,,,0,25,25,25,4222.035222099978,,,,,,,,,,,,,,,,,,,,,,,,,,,,,,,,,,,,,,,,,,,,,,,,,,,,,,,,,,,,,,,,,4222.020093900035,4222.035222099978,4222.035222099978,4222.535201800056,4222.535201800056,4225.035236899974,4225.035236899974,4225.01922310004,None,1,,,,,,,nback4,001,2023-12-07_16h19.18.069,untitled,2023.2.3,59.833626632597756,2023-12-07 16h19.36.138566 -0500,
,"[0.3, 0]",None,,,,,,,,,0,26,26,26,4225.035236899974,,,,,,,,,,,,,,,,,,,,,,,,,,,,,,,,,,,,,,,,,,,,,,,,,,,,,,,,,,,,,,,,,4225.019872699981,4225.035236899974,4225.035236899974,4225.5351781999925,4225.5351781999925,4228.035136600025,4228.035136600025,4228.019551699981,None,1,,,,,,,nback4,001,2023-12-07_16h19.18.069,untitled,2023.2.3,59.833626632597756,2023-12-07 16h19.36.138566 -0500,
,"[-0.2, 0.1]",space,,,,,,,,,0,27,27,27,4228.035136600025,,,,,,,,,,,,,,,,,,,,,,,,,,,,,,,,,,,,,,,,,,,,,,,,,,,,,,,,,,,,,,,,,4228.0203047000105,4228.035136600025,4228.035136600025,4228.535099099972,4228.535099099972,4231.035055299988,4231.035055299988,4231.018861199962,space,1,0.6892291000112891,None,,,,,nback4,001,2023-12-07_16h19.18.069,untitled,2023.2.3,59.833626632597756,2023-12-07 16h19.36.138566 -0500,
,"[-0.2, 0.1]",None,,,,,,,,,0,28,28,28,4231.035055299988,,,,,,,,,,,,,,,,,,,,,,,,,,,,,,,,,,,,,,,,,,,,,,,,,,,,,,,,,,,,,,,,,4231.019490899984,4231.035055299988,4231.035055299988,4231.535077300039,4231.535077300039,4234.034988599946,4234.034988599946,4234.019157600007,None,1,,,,,,,nback4,001,2023-12-07_16h19.18.069,untitled,2023.2.3,59.833626632597756,2023-12-07 16h19.36.138566 -0500,
,"[0.2, 0.1]",None,,,,,,,,,0,29,29,29,4234.034988599946,,,,,,,,,,,,,,,,,,,,,,,,,,,,,,,,,,,,,,,,,,,,,,,,,,,,,,,,,,,,,,,,,4234.019831900019,4234.034988599946,4234.034988599946,4234.535068799974,4234.535068799974,4237.034868999966,4237.034868999966,4237.019294199999,space,0,1.5788971000583842,None,,,,,nback4,001,2023-12-07_16h19.18.069,untitled,2023.2.3,59.833626632597756,2023-12-07 16h19.36.138566 -0500,
,"[-0.64, -0.4]",None,,,,,,,,,0,30,30,30,4237.034868999966,,,,,,,,,,,,,,,,,,,,,,,,,,,,,,,,,,,,,,,,,,,,,,,,,,,,,,,,,,,,,,,,,4237.020089600002,4237.034868999966,4237.034868999966,4237.534942899947,4237.534942899947,4240.034990199958,4240.034990199958,4240.018958300003,None,1,,,,,,,nback4,001,2023-12-07_16h19.18.069,untitled,2023.2.3,59.833626632597756,2023-12-07 16h19.36.138566 -0500,
,"[0, -0.2]",None,,,,,,,,,0,31,31,31,4240.034990199958,,,,,,,,,,,,,,,,,,,,,,,,,,,,,,,,,,,,,,,,,,,,,,,,,,,,,,,,,,,,,,,,,4240.019591400051,4240.034990199958,4240.034990199958,4240.534973499947,4240.534973499947,4243.034998700023,4243.034998700023,4243.019297800027,None,1,,,,,,,nback4,001,2023-12-07_16h19.18.069,untitled,2023.2.3,59.833626632597756,2023-12-07 16h19.36.138566 -0500,
,"[-0.64, -0.4]",space,,,,,,,,,0,32,32,32,4243.034998700023,,,,,,,,,,,,,,,,,,,,,,,,,,,,,,,,,,,,,,,,,,,,,,,,,,,,,,,,,,,,,,,,,4243.020140300039,4243.034998700023,4243.034998700023,4243.534943099949,4243.534943099949,4246.034790899954,4246.034790899954,4246.019183899974,space,1,0.6411365999374539,None,,,,,nback4,001,2023-12-07_16h19.18.069,untitled,2023.2.3,59.833626632597756,2023-12-07 16h19.36.138566 -0500,
,"[0.64, 0.4]",None,,,,,,,,,0,33,33,33,4246.034790899954,,,,,,,,,,,,,,,,,,,,,,,,,,,,,,,,,,,,,,,,,,,,,,,,,,,,,,,,,,,,,,,,,4246.020088399993,4246.034790899954,4246.034790899954,4246.534703399986,4246.534703399986,4249.034762299969,4249.034762299969,4249.019057999947,None,1,,,,,,,nback4,001,2023-12-07_16h19.18.069,untitled,2023.2.3,59.833626632597756,2023-12-07 16h19.36.138566 -0500,
,"[-0.3, 0]",None,,,,,,,,,0,34,34,34,4249.034762299969,,,,,,,,,,,,,,,,,,,,,,,,,,,,,,,,,,,,,,,,,,,,,,,,,,,,,,,,,,,,,,,,,4249.019661600003,4249.034762299969,4249.034762299969,4249.534680000041,4249.534680000041,4252.034887199989,4252.034887199989,4252.019058499951,None,1,,,,,,,nback4,001,2023-12-07_16h19.18.069,untitled,2023.2.3,59.833626632597756,2023-12-07 16h19.36.138566 -0500,
,"[0.3, 0]",None,,,,,,,,,0,35,35,35,4252.034887199989,,,,,,,,,,,,,,,,,,,,,,,,,,,,,,,,,,,,,,,,,,,,,,,,,,,,,,,,,,,,,,,,,4252.019787200028,4252.034887199989,4252.034887199989,4252.534744299948,4252.534744299948,4255.034633000032,4255.034633000032,4255.018796900054,None,1,,,,,,,nback4,001,2023-12-07_16h19.18.069,untitled,2023.2.3,59.833626632597756,2023-12-07 16h19.36.138566 -0500,
,"[-0.3, 0]",space,,,,,,,,,0,36,36,36,4255.034633000032,,,,,,,,,,,,,,,,,,,,,,,,,,,,,,,,,,,,,,,,,,,,,,,,,,,,,,,,,,,,,,,,,4255.019385299995,4255.034633000032,4255.034633000032,4255.534606799949,4255.534606799949,4258.0346013000235,4258.0346013000235,4258.018457900034,space,1,0.48109829996246845,None,,,,,nback4,001,2023-12-07_16h19.18.069,untitled,2023.2.3,59.833626632597756,2023-12-07 16h19.36.138566 -0500,
,"[0, -0.2]",None,,,,,,,,,0,37,37,37,4258.0346013000235,,,,,,,,,,,,,,,,,,,,,,,,,,,,,,,,,,,,,,,,,,,,,,,,,,,,,,,,,,,,,,,,,4258.019158700015,4258.0346013000235,4258.0346013000235,4258.534649100038,4258.534649100038,4261.034598700004,4261.034598700004,4261.01877840003,None,1,,,,,,,nback4,001,2023-12-07_16h19.18.069,untitled,2023.2.3,59.833626632597756,2023-12-07 16h19.36.138566 -0500,
,"[0.3, 0]",None,,,,,,,,,0,38,38,38,4261.034598700004,,,,,,,,,,,,,,,,,,,,,,,,,,,,,,,,,,,,,,,,,,,,,,,,,,,,,,,,,,,,,,,,,4261.019459999981,4261.034598700004,4261.034598700004,4261.534454199951,4261.534454199951,4264.034649200039,4264.034649200039,4264.018738099956,None,1,,,,,,,nback4,001,2023-12-07_16h19.18.069,untitled,2023.2.3,59.833626632597756,2023-12-07 16h19.36.138566 -0500,
,"[0.2, 0.1]",None,,,,,,,,,0,39,39,39,4264.034649200039,,,,,,,,,,,,,,,,,,,,,,,,,,,,,,,,,,,,,,,,,,,,,,,,,,,,,,,,,,,,,,,,,4264.019460999989,4264.034649200039,4264.034649200039,4264.534379599965,4264.534379599965,4267.034400500008,4267.034400500008,4267.018392500002,None,1,,,,,,,nback4,001,2023-12-07_16h19.18.069,untitled,2023.2.3,59.833626632597756,2023-12-07 16h19.36.138566 -0500,
,,,,,,,,,,,,,,,,,,,,,,,,,,,,,,,,,,,,,,,,,,,,,,,,,,,,,,,,,,,,,,,,,,,,,,,,,,,,,,,,,,,,,,,,,,,,4267.018812000053,4267.034400500008,4270.034341900027,4270.018333400018,,,,,,,,
