square,location,corrAns,trials_0.thisRepN,trials_0.thisTrialN,trials_0.thisN,trials_0.thisIndex,trials_1.thisRepN,trials_1.thisTrialN,trials_1.thisN,trials_1.thisIndex,trials_2.thisRepN,trials_2.thisTrialN,trials_2.thisN,trials_2.thisIndex,thisRow.t,notes,Instructions.started,instructions.started,key_resp.started,inst_sq11.started,Instructions.stopped,key_resp.keys,key_resp.rt,key_resp.duration,All.started,sq_1.started,sq_2.started,sq_3.started,sq_4.started,sq_5.started,sq_6.started,sq_7.started,sq_8.started,sq_9.started,sq_10.started,sq_11.started,sq_12.started,All.stopped,Fixation.started,fixation_3.started,fixation_3.stopped,Fixation.stopped,N_back_0_Trial.started,target_square_0.started,response_0.started,fixation_0.started,target_square_0.stopped,fixation_0.stopped,N_back_0_Trial.stopped,response_0.keys,response_0.corr,response_0.rt,response_0.duration,Instructions_1.started,instructions_1.started,key_resp_1.started,Instructions_1.stopped,key_resp_1.keys,key_resp_1.rt,key_resp_1.duration,N_back_1_Trial.started,target_square_1.started,response_1.started,target_square_1.stopped,fixation_1.started,fixation_1.stopped,response_1.stopped,N_back_1_Trial.stopped,response_1.keys,response_1.corr,response_1.rt,response_1.duration,Instructions_2.started,instructions_2.started,key_resp_2.started,Instructions_2.stopped,key_resp_2.keys,key_resp_2.rt,key_resp_2.duration,N_back_2_trials.started,target_square_2.started,response_2.started,fixation_2.started,target_square_2.stopped,fixation_2.stopped,N_back_2_trials.stopped,response_2.keys,response_2.corr,response_2.rt,response_2.duration,End.started,thank_you.started,End.stopped,participant,session,date,expName,psychopyVersion,frameRate,expStart,
,,,,,,,,,,,,,,,,,0.0014833000022917986,0.0039234000141732395,0.0039234000141732395,0.0039234000141732395,1465.8509772000252,space,1465.8376881000004,None,,,,,,,,,,,,,,,,,,,,,,,,,,,,,,,,,,,,,,,,,,,,,,,,,,,,,,,,,,,,,,,,,,,,,,nback53,001,2024-01-15_14h25.34.987,untitled,2023.2.3,60.07853465701598,2024-01-15 14h50.26.079248 -0500,
6,"[-0.3, 0]",None,0,0,0,0,,,,,,,,,1467.8712060000398,,,,,,,,,,1465.8510131000075,1465.8663240000024,1465.8663240000024,1465.8663240000024,1465.8663240000024,1465.8663240000024,1465.8663240000024,1465.8663240000024,1465.8663240000024,1465.8663240000024,1465.8663240000024,1465.8663240000024,1465.8663240000024,1466.8502525000367,1466.8502726000152,1466.8663032000186,1467.8712060000398,1467.8507939000265,1467.8690519999946,1467.8712060000398,1467.8712060000398,1468.3496110000415,1468.3830896000145,1470.8496307000169,1470.8666047000443,None,1,,,,,,,,,,,,,,,,,,,,,,,,,,,,,,,,,,,,,,,,,,,nback53,001,2024-01-15_14h25.34.987,untitled,2023.2.3,60.07853465701598,2024-01-15 14h50.26.079248 -0500,
10,"[0, -0.2]",None,0,1,1,1,,,,,,,,,1470.8830369000207,,,,,,,,,,,,,,,,,,,,,,,,,,,,1470.8676622000057,1470.8830369000207,1470.8830369000207,1471.3496176000335,1471.3831614000374,1473.8496532000136,1473.8665112000308,None,1,,,,,,,,,,,,,,,,,,,,,,,,,,,,,,,,,,,,,,,,,,,nback53,001,2024-01-15_14h25.34.987,untitled,2023.2.3,60.07853465701598,2024-01-15 14h50.26.079248 -0500,
11,"[-0.64, -0.4]",space,0,2,2,2,,,,,,,,,1473.8831112000044,,,,,,,,,,,,,,,,,,,,,,,,,,,,1473.8673081000452,1473.8831112000044,1473.8831112000044,1474.34959659999,1474.3828485000413,1476.8495546000195,1476.8664526999928,space,1,0.4406650000018999,None,,,,,,,,,,,,,,,,,,,,,,,,,,,,,,,,,,,,,,,,,nback53,001,2024-01-15_14h25.34.987,untitled,2023.2.3,60.07853465701598,2024-01-15 14h50.26.079248 -0500,
12,"[0.64, -0.4]",None,0,3,3,3,,,,,,,,,1476.8830685000285,,,,,,,,,,,,,,,,,,,,,,,,,,,,1476.8676661000354,1476.8830685000285,1476.8830685000285,1477.3495919000125,1477.3828818000038,1479.8496159000206,1479.866281100025,None,1,,,,,,,,,,,,,,,,,,,,,,,,,,,,,,,,,,,,,,,,,,,nback53,001,2024-01-15_14h25.34.987,untitled,2023.2.3,60.07853465701598,2024-01-15 14h50.26.079248 -0500,
1,"[-0.64, 0.4]",None,0,4,4,4,,,,,,,,,1479.8827717000386,,,,,,,,,,,,,,,,,,,,,,,,,,,,1479.8670119000017,1479.8827717000386,1479.8827717000386,1480.3495695000165,1480.3830150000285,1482.849533300032,1482.8663368000416,None,1,,,,,,,,,,,,,,,,,,,,,,,,,,,,,,,,,,,,,,,,,,,nback53,001,2024-01-15_14h25.34.987,untitled,2023.2.3,60.07853465701598,2024-01-15 14h50.26.079248 -0500,
1,"[-0.64, 0.4]",None,0,5,5,5,,,,,,,,,1482.882856900047,,,,,,,,,,,,,,,,,,,,,,,,,,,,1482.8671923000365,1482.882856900047,1482.882856900047,1483.3493906999938,1483.382902100042,1485.8492965000332,1485.8660428000148,None,1,,,,,,,,,,,,,,,,,,,,,,,,,,,,,,,,,,,,,,,,,,,nback53,001,2024-01-15_14h25.34.987,untitled,2023.2.3,60.07853465701598,2024-01-15 14h50.26.079248 -0500,
4,"[-0.2, 0.1]",None,0,6,6,6,,,,,,,,,1485.882712599996,,,,,,,,,,,,,,,,,,,,,,,,,,,,1485.8665425000363,1485.882712599996,1485.882712599996,1486.3492824000423,1486.3827637000359,1488.8495147000067,1488.8663353000302,None,1,,,,,,,,,,,,,,,,,,,,,,,,,,,,,,,,,,,,,,,,,,,nback53,001,2024-01-15_14h25.34.987,untitled,2023.2.3,60.07853465701598,2024-01-15 14h50.26.079248 -0500,
5,"[0.2, 0.1]",None,0,7,7,7,,,,,,,,,1488.8828480000375,,,,,,,,,,,,,,,,,,,,,,,,,,,,1488.8671609000303,1488.8828480000375,1488.8828480000375,1489.3492147999932,1489.382667900005,1491.8492839999963,1491.8660897000227,None,1,,,,,,,,,,,,,,,,,,,,,,,,,,,,,,,,,,,,,,,,,,,nback53,001,2024-01-15_14h25.34.987,untitled,2023.2.3,60.07853465701598,2024-01-15 14h50.26.079248 -0500,
11,"[-0.64, -0.4]",space,0,8,8,8,,,,,,,,,1491.8826831000042,,,,,,,,,,,,,,,,,,,,,,,,,,,,1491.8667875000392,1491.8826831000042,1491.8826831000042,1492.3493555000168,1492.3825996000087,1494.8491620999994,1494.866099100036,space,1,0.2758495999732986,None,,,,,,,,,,,,,,,,,,,,,,,,,,,,,,,,,,,,,,,,,nback53,001,2024-01-15_14h25.34.987,untitled,2023.2.3,60.07853465701598,2024-01-15 14h50.26.079248 -0500,
9,"[0.2, -0.1]",None,0,9,9,9,,,,,,,,,1494.882762800029,,,,,,,,,,,,,,,,,,,,,,,,,,,,1494.86697740003,1494.882762800029,1494.882762800029,1495.365949900006,1495.3826660999912,1497.8657789000426,1497.8659476000466,None,1,,,,,,,,,,,,,,,,,,,,,,,,,,,,,,,,,,,,,,,,,,,nback53,001,2024-01-15_14h25.34.987,untitled,2023.2.3,60.07853465701598,2024-01-15 14h50.26.079248 -0500,
8,"[-0.2, -0.1]",None,0,10,10,10,,,,,,,,,1497.882425800024,,,,,,,,,,,,,,,,,,,,,,,,,,,,1497.8665507000405,1497.882425800024,1497.882425800024,1498.3492382999975,1498.382633100031,1500.8493377999985,1500.8659046000103,None,1,,,,,,,,,,,,,,,,,,,,,,,,,,,,,,,,,,,,,,,,,,,nback53,001,2024-01-15_14h25.34.987,untitled,2023.2.3,60.07853465701598,2024-01-15 14h50.26.079248 -0500,
9,"[0.2, -0.1]",None,0,11,11,11,,,,,,,,,1500.8824114000308,,,,,,,,,,,,,,,,,,,,,,,,,,,,1500.8666796000325,1500.8824114000308,1500.8824114000308,1501.365913000016,1501.382551799994,1503.8659683000296,1503.8661778999958,None,1,,,,,,,,,,,,,,,,,,,,,,,,,,,,,,,,,,,,,,,,,,,nback53,001,2024-01-15_14h25.34.987,untitled,2023.2.3,60.07853465701598,2024-01-15 14h50.26.079248 -0500,
6,"[-0.3, 0]",None,0,12,12,12,,,,,,,,,1503.8825637000264,,,,,,,,,,,,,,,,,,,,,,,,,,,,1503.8669933000347,1503.8825637000264,1503.8825637000264,1504.3657183999894,1504.3826013000216,1506.8656389000244,1506.8657883999986,None,1,,,,,,,,,,,,,,,,,,,,,,,,,,,,,,,,,,,,,,,,,,,nback53,001,2024-01-15_14h25.34.987,untitled,2023.2.3,60.07853465701598,2024-01-15 14h50.26.079248 -0500,
9,"[0.2, -0.1]",None,0,13,13,13,,,,,,,,,1506.8823256000178,,,,,,,,,,,,,,,,,,,,,,,,,,,,1506.866371800017,1506.8823256000178,1506.8823256000178,1507.3655119999894,1507.3821276000235,1509.865844200016,1509.8660545000457,None,1,,,,,,,,,,,,,,,,,,,,,,,,,,,,,,,,,,,,,,,,,,,nback53,001,2024-01-15_14h25.34.987,untitled,2023.2.3,60.07853465701598,2024-01-15 14h50.26.079248 -0500,
7,"[0.3, 0]",None,0,14,14,14,,,,,,,,,1509.8823806000291,,,,,,,,,,,,,,,,,,,,,,,,,,,,1509.8668679000111,1509.8823806000291,1509.8823806000291,1510.3656901000068,1510.3822359000333,1512.8657005000277,1512.8658641999937,None,1,,,,,,,,,,,,,,,,,,,,,,,,,,,,,,,,,,,,,,,,,,,nback53,001,2024-01-15_14h25.34.987,untitled,2023.2.3,60.07853465701598,2024-01-15 14h50.26.079248 -0500,
2,"[0.64, 0.4]",None,0,15,15,15,,,,,,,,,1512.882364900026,,,,,,,,,,,,,,,,,,,,,,,,,,,,1512.8665374999982,1512.882364900026,1512.882364900026,1513.3656974000041,1513.3823490000213,1515.8656244000304,1515.8658102999907,None,1,,,,,,,,,,,,,,,,,,,,,,,,,,,,,,,,,,,,,,,,,,,nback53,001,2024-01-15_14h25.34.987,untitled,2023.2.3,60.07853465701598,2024-01-15 14h50.26.079248 -0500,
2,"[0.64, 0.4]",None,0,16,16,16,,,,,,,,,1515.8822814000305,,,,,,,,,,,,,,,,,,,,,,,,,,,,1515.8666134999949,1515.8822814000305,1515.8822814000305,1516.3655362999998,1516.3824058000464,1518.8656145000132,1518.8657944000443,None,1,,,,,,,,,,,,,,,,,,,,,,,,,,,,,,,,,,,,,,,,,,,nback53,001,2024-01-15_14h25.34.987,untitled,2023.2.3,60.07853465701598,2024-01-15 14h50.26.079248 -0500,
11,"[-0.64, -0.4]",space,0,17,17,17,,,,,,,,,1518.8821895000292,,,,,,,,,,,,,,,,,,,,,,,,,,,,1518.8665062999935,1518.8821895000292,1518.8821895000292,1519.3653090000153,1519.3820676000323,1521.865590500005,1521.8657988000195,space,1,0.322308000002522,None,,,,,,,,,,,,,,,,,,,,,,,,,,,,,,,,,,,,,,,,,nback53,001,2024-01-15_14h25.34.987,untitled,2023.2.3,60.07853465701598,2024-01-15 14h50.26.079248 -0500,
11,"[-0.64, -0.4]",space,0,18,18,18,,,,,,,,,1521.8822593000368,,,,,,,,,,,,,,,,,,,,,,,,,,,,1521.8668213000055,1521.8822593000368,1521.8822593000368,1522.3655434999964,1522.3821109000128,1524.865680399991,1524.8658812000067,space,1,0.44706470001256093,None,,,,,,,,,,,,,,,,,,,,,,,,,,,,,,,,,,,,,,,,,nback53,001,2024-01-15_14h25.34.987,untitled,2023.2.3,60.07853465701598,2024-01-15 14h50.26.079248 -0500,
7,"[0.3, 0]",None,0,19,19,19,,,,,,,,,1524.8821986000403,,,,,,,,,,,,,,,,,,,,,,,,,,,,1524.8668077000184,1524.8821986000403,1524.8821986000403,1525.3656306000194,1525.3822635000106,1527.8654632000253,1527.8656400000327,None,1,,,,,,,,,,,,,,,,,,,,,,,,,,,,,,,,,,,,,,,,,,,nback53,001,2024-01-15_14h25.34.987,untitled,2023.2.3,60.07853465701598,2024-01-15 14h50.26.079248 -0500,
3,"[0, 0.2]",None,0,20,20,20,,,,,,,,,1527.8820965000195,,,,,,,,,,,,,,,,,,,,,,,,,,,,1527.8664313000045,1527.8820965000195,1527.8820965000195,1528.3653913000016,1528.3821757000405,1530.8654070000048,1530.8655906000058,None,1,,,,,,,,,,,,,,,,,,,,,,,,,,,,,,,,,,,,,,,,,,,nback53,001,2024-01-15_14h25.34.987,untitled,2023.2.3,60.07853465701598,2024-01-15 14h50.26.079248 -0500,
10,"[0, -0.2]",None,0,21,21,21,,,,,,,,,1530.8820078000426,,,,,,,,,,,,,,,,,,,,,,,,,,,,1530.8663698000018,1530.8820078000426,1530.8820078000426,1531.3653735000407,1531.3820426000166,1533.865306599997,1533.8655182000366,None,1,,,,,,,,,,,,,,,,,,,,,,,,,,,,,,,,,,,,,,,,,,,nback53,001,2024-01-15_14h25.34.987,untitled,2023.2.3,60.07853465701598,2024-01-15 14h50.26.079248 -0500,
1,"[-0.64, 0.4]",None,0,22,22,22,,,,,,,,,1533.8819406999974,,,,,,,,,,,,,,,,,,,,,,,,,,,,1533.8663506000303,1533.8819406999974,1533.8819406999974,1534.3652161000064,1534.3819519000244,1536.865242800035,1536.8654375000042,None,1,,,,,,,,,,,,,,,,,,,,,,,,,,,,,,,,,,,,,,,,,,,nback53,001,2024-01-15_14h25.34.987,untitled,2023.2.3,60.07853465701598,2024-01-15 14h50.26.079248 -0500,
2,"[0.64, 0.4]",None,0,23,23,23,,,,,,,,,1536.881943400018,,,,,,,,,,,,,,,,,,,,,,,,,,,,1536.8661987000378,1536.881943400018,1536.881943400018,1537.3653339000302,1537.3818633999908,1539.8651460999972,1539.8653198000393,None,1,,,,,,,,,,,,,,,,,,,,,,,,,,,,,,,,,,,,,,,,,,,nback53,001,2024-01-15_14h25.34.987,untitled,2023.2.3,60.07853465701598,2024-01-15 14h50.26.079248 -0500,
6,"[-0.3, 0]",None,0,24,24,24,,,,,,,,,1539.8820094999974,,,,,,,,,,,,,,,,,,,,,,,,,,,,1539.8660004000412,1539.8820094999974,1539.8820094999974,1540.3652011000086,1540.382168500044,1542.865236200043,1542.865443399991,None,1,,,,,,,,,,,,,,,,,,,,,,,,,,,,,,,,,,,,,,,,,,,nback53,001,2024-01-15_14h25.34.987,untitled,2023.2.3,60.07853465701598,2024-01-15 14h50.26.079248 -0500,
3,"[0, 0.2]",None,0,25,25,25,,,,,,,,,1542.8817671000143,,,,,,,,,,,,,,,,,,,,,,,,,,,,1542.8663290000404,1542.8817671000143,1542.8817671000143,1543.365189400036,1543.381838100031,1545.865173200029,1545.865383299999,None,1,,,,,,,,,,,,,,,,,,,,,,,,,,,,,,,,,,,,,,,,,,,nback53,001,2024-01-15_14h25.34.987,untitled,2023.2.3,60.07853465701598,2024-01-15 14h50.26.079248 -0500,
11,"[-0.64, -0.4]",space,0,26,26,26,,,,,,,,,1545.8817889000056,,,,,,,,,,,,,,,,,,,,,,,,,,,,1545.8662006999948,1545.8817889000056,1545.8817889000056,1546.3651111000217,1546.3815988000133,1548.8650800000178,1548.865273100033,space,1,0.35864230000879616,None,,,,,,,,,,,,,,,,,,,,,,,,,,,,,,,,,,,,,,,,,nback53,001,2024-01-15_14h25.34.987,untitled,2023.2.3,60.07853465701598,2024-01-15 14h50.26.079248 -0500,
1,"[-0.64, 0.4]",None,0,27,27,27,,,,,,,,,1548.8816633000388,,,,,,,,,,,,,,,,,,,,,,,,,,,,1548.866216399998,1548.8816633000388,1548.8816633000388,1549.3650452000438,1549.3817424000008,1551.8649790000054,1551.8651637000148,None,1,,,,,,,,,,,,,,,,,,,,,,,,,,,,,,,,,,,,,,,,,,,nback53,001,2024-01-15_14h25.34.987,untitled,2023.2.3,60.07853465701598,2024-01-15 14h50.26.079248 -0500,
3,"[0, 0.2]",None,0,28,28,28,,,,,,,,,1551.8817095000413,,,,,,,,,,,,,,,,,,,,,,,,,,,,1551.8658852000372,1551.8817095000413,1551.8817095000413,1552.3650167000014,1552.3816421999945,1554.864987500012,1554.865186800016,None,1,,,,,,,,,,,,,,,,,,,,,,,,,,,,,,,,,,,,,,,,,,,nback53,001,2024-01-15_14h25.34.987,untitled,2023.2.3,60.07853465701598,2024-01-15 14h50.26.079248 -0500,
9,"[0.2, -0.1]",None,0,29,29,29,,,,,,,,,1554.8816627000342,,,,,,,,,,,,,,,,,,,,,,,,,,,,1554.8659939999925,1554.8816627000342,1554.8816627000342,1555.36480879999,1555.3815835000132,1557.8648698999896,1557.8650738000288,None,1,,,,,,,,,,,,,,,,,,,,,,,,,,,,,,,,,,,,,,,,,,,nback53,001,2024-01-15_14h25.34.987,untitled,2023.2.3,60.07853465701598,2024-01-15 14h50.26.079248 -0500,
8,"[-0.2, -0.1]",None,0,30,30,30,,,,,,,,,1557.8816701000324,,,,,,,,,,,,,,,,,,,,,,,,,,,,1557.8658874999965,1557.8816701000324,1557.8816701000324,1558.3649565000087,1558.3815689000185,1560.8648813000182,1560.8650853,None,1,,,,,,,,,,,,,,,,,,,,,,,,,,,,,,,,,,,,,,,,,,,nback53,001,2024-01-15_14h25.34.987,untitled,2023.2.3,60.07853465701598,2024-01-15 14h50.26.079248 -0500,
12,"[0.64, -0.4]",None,0,31,31,31,,,,,,,,,1560.8814848000184,,,,,,,,,,,,,,,,,,,,,,,,,,,,1560.8658413999947,1560.8814848000184,1560.8814848000184,1561.364922000037,1561.3814375000075,1563.8647155000363,1563.8648820000235,None,1,,,,,,,,,,,,,,,,,,,,,,,,,,,,,,,,,,,,,,,,,,,nback53,001,2024-01-15_14h25.34.987,untitled,2023.2.3,60.07853465701598,2024-01-15 14h50.26.079248 -0500,
9,"[0.2, -0.1]",None,0,32,32,32,,,,,,,,,1563.8813539000112,,,,,,,,,,,,,,,,,,,,,,,,,,,,1563.8655418000417,1563.8813539000112,1563.8813539000112,1564.364833300002,1564.3815046999953,1566.8647117000073,1566.864904600021,None,1,,,,,,,,,,,,,,,,,,,,,,,,,,,,,,,,,,,,,,,,,,,nback53,001,2024-01-15_14h25.34.987,untitled,2023.2.3,60.07853465701598,2024-01-15 14h50.26.079248 -0500,
11,"[-0.64, -0.4]",space,0,33,33,33,,,,,,,,,1566.8815543000237,,,,,,,,,,,,,,,,,,,,,,,,,,,,1566.8657076000236,1566.8815543000237,1566.8815543000237,1567.3648115000105,1567.3814386000158,1569.8647043000092,1569.8648807000136,space,1,0.378515399992466,None,,,,,,,,,,,,,,,,,,,,,,,,,,,,,,,,,,,,,,,,,nback53,001,2024-01-15_14h25.34.987,untitled,2023.2.3,60.07853465701598,2024-01-15 14h50.26.079248 -0500,
7,"[0.3, 0]",None,0,34,34,34,,,,,,,,,1569.8815031000413,,,,,,,,,,,,,,,,,,,,,,,,,,,,1569.8658441000152,1569.8815031000413,1569.8815031000413,1570.364744200022,1570.3814627000247,1572.864723100036,1572.864930700045,None,1,,,,,,,,,,,,,,,,,,,,,,,,,,,,,,,,,,,,,,,,,,,nback53,001,2024-01-15_14h25.34.987,untitled,2023.2.3,60.07853465701598,2024-01-15 14h50.26.079248 -0500,
11,"[-0.64, -0.4]",space,0,35,35,35,,,,,,,,,1572.881317900028,,,,,,,,,,,,,,,,,,,,,,,,,,,,1572.865752600017,1572.881317900028,1572.881317900028,1573.3646453000256,1573.3812531000003,1575.8646514000138,1575.864846600045,space,1,0.5256892999750562,None,,,,,,,,,,,,,,,,,,,,,,,,,,,,,,,,,,,,,,,,,nback53,001,2024-01-15_14h25.34.987,untitled,2023.2.3,60.07853465701598,2024-01-15 14h50.26.079248 -0500,
4,"[-0.2, 0.1]",None,0,36,36,36,,,,,,,,,1575.8814193000435,,,,,,,,,,,,,,,,,,,,,,,,,,,,1575.865768800024,1575.8814193000435,1575.8814193000435,1576.364648799994,1576.381267699995,1578.864589600009,1578.8647713999962,None,1,,,,,,,,,,,,,,,,,,,,,,,,,,,,,,,,,,,,,,,,,,,nback53,001,2024-01-15_14h25.34.987,untitled,2023.2.3,60.07853465701598,2024-01-15 14h50.26.079248 -0500,
5,"[0.2, 0.1]",None,0,37,37,37,,,,,,,,,1578.8811979000457,,,,,,,,,,,,,,,,,,,,,,,,,,,,1578.8655394000234,1578.8811979000457,1578.8811979000457,1579.364595299994,1579.3811628000112,1581.864588700002,1581.864798500028,None,1,,,,,,,,,,,,,,,,,,,,,,,,,,,,,,,,,,,,,,,,,,,nback53,001,2024-01-15_14h25.34.987,untitled,2023.2.3,60.07853465701598,2024-01-15 14h50.26.079248 -0500,
6,"[-0.3, 0]",None,0,38,38,38,,,,,,,,,1581.8811541000032,,,,,,,,,,,,,,,,,,,,,,,,,,,,1581.865619499993,1581.8811541000032,1581.8811541000032,1582.3644993000198,1582.381148400018,1584.8644252000377,1584.864621500019,None,1,,,,,,,,,,,,,,,,,,,,,,,,,,,,,,,,,,,,,,,,,,,nback53,001,2024-01-15_14h25.34.987,untitled,2023.2.3,60.07853465701598,2024-01-15 14h50.26.079248 -0500,
11,"[-0.64, -0.4]",space,0,39,39,39,,,,,,,,,1584.8812380000018,,,,,,,,,,,,,,,,,,,,,,,,,,,,1584.8654610000085,1584.8812380000018,1584.8812380000018,1585.3644903000095,1585.3809318999993,1587.8643663999974,1587.8645396000356,space,1,0.3536261999979615,None,,,,,,,,,,,,,,,,,,,,,,,,,,,,,,,,,,,,,,,,,nback53,001,2024-01-15_14h25.34.987,untitled,2023.2.3,60.07853465701598,2024-01-15 14h50.26.079248 -0500,
,,,,,,,,,,,,,,,,,,,,,,,,,,,,,,,,,,,,,,,,,,,,,,,,,,,,,,1587.865292900009,1587.8813239000156,1587.8813239000156,1599.2660375999985,space,11.377068199974019,None,,,,,,,,,,,,,,,,,,,,,,,,,,,,,,,,,,nback53,001,2024-01-15_14h25.34.987,untitled,2023.2.3,60.07853465701598,2024-01-15 14h50.26.079248 -0500,
10,"[0, -0.2]",None,,,,,0,0,0,0,,,,,1600.2812124000047,,,,,,,,,,,,,,,,,,,,,,,,1599.2660861000186,1599.280794900027,1600.2812124000047,1600.2647843000013,,,,,,,,,,,,,,,,,,,1600.2792688999907,1600.2812124000047,1600.2812124000047,1600.7808568000328,1600.7808568000328,1603.2808221000014,1603.2808221000014,1603.2648546000128,None,1,,,,,,,,,,,,,,,,,,,,,,,,nback53,001,2024-01-15_14h25.34.987,untitled,2023.2.3,60.07853465701598,2024-01-15 14h50.26.079248 -0500,
5,"[0.2, 0.1]",None,,,,,0,1,1,1,,,,,1603.2808221000014,,,,,,,,,,,,,,,,,,,,,,,,,,,,,,,,,,,,,,,,,,,,,,1603.2656231000437,1603.2808221000014,1603.2808221000014,1603.7809170000255,1603.7809170000255,1606.280860800005,1606.280860800005,1606.265077900025,None,1,,,,,,,,,,,,,,,,,,,,,,,,nback53,001,2024-01-15_14h25.34.987,untitled,2023.2.3,60.07853465701598,2024-01-15 14h50.26.079248 -0500,
6,"[-0.3, 0]",None,,,,,0,2,2,2,,,,,1606.280860800005,,,,,,,,,,,,,,,,,,,,,,,,,,,,,,,,,,,,,,,,,,,,,,1606.2659062000457,1606.280860800005,1606.280860800005,1606.7807751999935,1606.7807751999935,1609.2806643000222,1609.2806643000222,1609.2647105000215,None,1,,,,,,,,,,,,,,,,,,,,,,,,nback53,001,2024-01-15_14h25.34.987,untitled,2023.2.3,60.07853465701598,2024-01-15 14h50.26.079248 -0500,
6,"[-0.3, 0]",space,,,,,0,3,3,3,,,,,1609.2806643000222,,,,,,,,,,,,,,,,,,,,,,,,,,,,,,,,,,,,,,,,,,,,,,1609.2654009000398,1609.2806643000222,1609.2806643000222,1609.780741500028,1609.780741500028,1612.2806629000115,1612.2806629000115,1612.2650321000256,space,1,0.30900970002403483,None,,,,,,,,,,,,,,,,,,,,,,nback53,001,2024-01-15_14h25.34.987,untitled,2023.2.3,60.07853465701598,2024-01-15 14h50.26.079248 -0500,
12,"[0.64, -0.4]",None,,,,,0,4,4,4,,,,,1612.2806629000115,,,,,,,,,,,,,,,,,,,,,,,,,,,,,,,,,,,,,,,,,,,,,,1612.2661617000122,1612.2806629000115,1612.2806629000115,1612.7805652000243,1612.7805652000243,1615.2806457999977,1615.2806457999977,1615.2649896999937,None,1,,,,,,,,,,,,,,,,,,,,,,,,nback53,001,2024-01-15_14h25.34.987,untitled,2023.2.3,60.07853465701598,2024-01-15 14h50.26.079248 -0500,
10,"[0, -0.2]",None,,,,,0,5,5,5,,,,,1615.2806457999977,,,,,,,,,,,,,,,,,,,,,,,,,,,,,,,,,,,,,,,,,,,,,,1615.2657637000084,1615.2806457999977,1615.2806457999977,1615.7804376000422,1615.7804376000422,1618.2807156000054,1618.2807156000054,1618.2649844000116,None,1,,,,,,,,,,,,,,,,,,,,,,,,nback53,001,2024-01-15_14h25.34.987,untitled,2023.2.3,60.07853465701598,2024-01-15 14h50.26.079248 -0500,
2,"[0.64, 0.4]",None,,,,,0,6,6,6,,,,,1618.2807156000054,,,,,,,,,,,,,,,,,,,,,,,,,,,,,,,,,,,,,,,,,,,,,,1618.2657773999963,1618.2807156000054,1618.2807156000054,1618.7805827000411,1618.7805827000411,1621.2805000999942,1621.2805000999942,1621.264824700018,None,1,,,,,,,,,,,,,,,,,,,,,,,,nback53,001,2024-01-15_14h25.34.987,untitled,2023.2.3,60.07853465701598,2024-01-15 14h50.26.079248 -0500,
9,"[0.2, -0.1]",None,,,,,0,7,7,7,,,,,1621.2805000999942,,,,,,,,,,,,,,,,,,,,,,,,,,,,,,,,,,,,,,,,,,,,,,1621.26562130003,1621.2805000999942,1621.2805000999942,1621.7805170000065,1621.7805170000065,1624.2805384999956,1624.2805384999956,1624.2646509000333,None,1,,,,,,,,,,,,,,,,,,,,,,,,nback53,001,2024-01-15_14h25.34.987,untitled,2023.2.3,60.07853465701598,2024-01-15 14h50.26.079248 -0500,
9,"[0.2, -0.1]",space,,,,,0,8,8,8,,,,,1624.2805384999956,,,,,,,,,,,,,,,,,,,,,,,,,,,,,,,,,,,,,,,,,,,,,,1624.2653790999902,1624.2805384999956,1624.2805384999956,1624.7804977000342,1624.7804977000342,1627.28033030004,1627.28033030004,1627.264844499994,space,1,0.4262647000141442,None,,,,,,,,,,,,,,,,,,,,,,nback53,001,2024-01-15_14h25.34.987,untitled,2023.2.3,60.07853465701598,2024-01-15 14h50.26.079248 -0500,
6,"[-0.3, 0]",None,,,,,0,9,9,9,,,,,1627.28033030004,,,,,,,,,,,,,,,,,,,,,,,,,,,,,,,,,,,,,,,,,,,,,,1627.2659144999925,1627.28033030004,1627.28033030004,1627.7803325999994,1627.7803325999994,1630.2802566000028,1630.2802566000028,1630.2644079000456,None,1,,,,,,,,,,,,,,,,,,,,,,,,nback53,001,2024-01-15_14h25.34.987,untitled,2023.2.3,60.07853465701598,2024-01-15 14h50.26.079248 -0500,
11,"[-0.64, -0.4]",None,,,,,0,10,10,10,,,,,1630.2802566000028,,,,,,,,,,,,,,,,,,,,,,,,,,,,,,,,,,,,,,,,,,,,,,1630.2651648000465,1630.2802566000028,1630.2802566000028,1630.7802631999948,1630.7802631999948,1633.2803269000142,1633.2803269000142,1633.2643470000476,None,1,,,,,,,,,,,,,,,,,,,,,,,,nback53,001,2024-01-15_14h25.34.987,untitled,2023.2.3,60.07853465701598,2024-01-15 14h50.26.079248 -0500,
11,"[-0.64, -0.4]",space,,,,,0,11,11,11,,,,,1633.2803269000142,,,,,,,,,,,,,,,,,,,,,,,,,,,,,,,,,,,,,,,,,,,,,,1633.265026600042,1633.2803269000142,1633.2803269000142,1633.7802805000101,1633.7802805000101,1636.2801287000184,1636.2801287000184,1636.2643469000468,space,1,0.44630319997668266,None,,,,,,,,,,,,,,,,,,,,,,nback53,001,2024-01-15_14h25.34.987,untitled,2023.2.3,60.07853465701598,2024-01-15 14h50.26.079248 -0500,
4,"[-0.2, 0.1]",None,,,,,0,12,12,12,,,,,1636.2801287000184,,,,,,,,,,,,,,,,,,,,,,,,,,,,,,,,,,,,,,,,,,,,,,1636.2650520000025,1636.2801287000184,1636.2801287000184,1636.780321200029,1636.780321200029,1639.2800796999945,1639.2800796999945,1639.2644994000439,None,1,,,,,,,,,,,,,,,,,,,,,,,,nback53,001,2024-01-15_14h25.34.987,untitled,2023.2.3,60.07853465701598,2024-01-15 14h50.26.079248 -0500,
3,"[0, 0.2]",None,,,,,0,13,13,13,,,,,1639.2800796999945,,,,,,,,,,,,,,,,,,,,,,,,,,,,,,,,,,,,,,,,,,,,,,1639.2652710000402,1639.2800796999945,1639.2800796999945,1639.7802026999998,1639.7802026999998,1642.2801335999975,1642.2801335999975,1642.2644358000252,None,1,,,,,,,,,,,,,,,,,,,,,,,,nback53,001,2024-01-15_14h25.34.987,untitled,2023.2.3,60.07853465701598,2024-01-15 14h50.26.079248 -0500,
3,"[0, 0.2]",space,,,,,0,14,14,14,,,,,1642.2801335999975,,,,,,,,,,,,,,,,,,,,,,,,,,,,,,,,,,,,,,,,,,,,,,1642.265266100003,1642.2801335999975,1642.2801335999975,1642.780223000038,1642.780223000038,1645.2801071000285,1645.2801071000285,1645.264510100009,space,1,0.3489500000141561,None,,,,,,,,,,,,,,,,,,,,,,nback53,001,2024-01-15_14h25.34.987,untitled,2023.2.3,60.07853465701598,2024-01-15 14h50.26.079248 -0500,
8,"[-0.2, -0.1]",None,,,,,0,15,15,15,,,,,1645.2801071000285,,,,,,,,,,,,,,,,,,,,,,,,,,,,,,,,,,,,,,,,,,,,,,1645.265517599997,1645.2801071000285,1645.2801071000285,1645.7800813000067,1645.7800813000067,1648.2800351000042,1648.2800351000042,1648.26441850001,None,1,,,,,,,,,,,,,,,,,,,,,,,,nback53,001,2024-01-15_14h25.34.987,untitled,2023.2.3,60.07853465701598,2024-01-15 14h50.26.079248 -0500,
1,"[-0.64, 0.4]",None,,,,,0,16,16,16,,,,,1648.2800351000042,,,,,,,,,,,,,,,,,,,,,,,,,,,,,,,,,,,,,,,,,,,,,,1648.2652474000352,1648.2800351000042,1648.2800351000042,1648.780046000029,1648.780046000029,1651.2799703000346,1651.2799703000346,1651.2642767000361,None,1,,,,,,,,,,,,,,,,,,,,,,,,nback53,001,2024-01-15_14h25.34.987,untitled,2023.2.3,60.07853465701598,2024-01-15 14h50.26.079248 -0500,
2,"[0.64, 0.4]",None,,,,,0,17,17,17,,,,,1651.2799703000346,,,,,,,,,,,,,,,,,,,,,,,,,,,,,,,,,,,,,,,,,,,,,,1651.2651746000047,1651.2799703000346,1651.2799703000346,1651.7799815000035,1651.7799815000035,1654.2797824000008,1654.2797824000008,1654.2637531000073,None,1,,,,,,,,,,,,,,,,,,,,,,,,nback53,001,2024-01-15_14h25.34.987,untitled,2023.2.3,60.07853465701598,2024-01-15 14h50.26.079248 -0500,
4,"[-0.2, 0.1]",None,,,,,0,18,18,18,,,,,1654.2797824000008,,,,,,,,,,,,,,,,,,,,,,,,,,,,,,,,,,,,,,,,,,,,,,1654.2641140000196,1654.2797824000008,1654.2797824000008,1654.779925800045,1654.779925800045,1657.279875200009,1657.279875200009,1657.2639586000005,None,1,,,,,,,,,,,,,,,,,,,,,,,,nback53,001,2024-01-15_14h25.34.987,untitled,2023.2.3,60.07853465701598,2024-01-15 14h50.26.079248 -0500,
4,"[-0.2, 0.1]",space,,,,,0,19,19,19,,,,,1657.279875200009,,,,,,,,,,,,,,,,,,,,,,,,,,,,,,,,,,,,,,,,,,,,,,1657.2646141000441,1657.279875200009,1657.279875200009,1657.7800028999918,1657.7800028999918,1660.279756300035,1660.279756300035,1660.2641688000294,space,1,0.30076429998734966,None,,,,,,,,,,,,,,,,,,,,,,nback53,001,2024-01-15_14h25.34.987,untitled,2023.2.3,60.07853465701598,2024-01-15 14h50.26.079248 -0500,
8,"[-0.2, -0.1]",None,,,,,0,20,20,20,,,,,1660.279756300035,,,,,,,,,,,,,,,,,,,,,,,,,,,,,,,,,,,,,,,,,,,,,,1660.2651719000423,1660.279756300035,1660.279756300035,1660.7798668000032,1660.7798668000032,1663.279692800017,1663.279692800017,1663.264376200037,None,1,,,,,,,,,,,,,,,,,,,,,,,,nback53,001,2024-01-15_14h25.34.987,untitled,2023.2.3,60.07853465701598,2024-01-15 14h50.26.079248 -0500,
5,"[0.2, 0.1]",None,,,,,0,21,21,21,,,,,1663.279692800017,,,,,,,,,,,,,,,,,,,,,,,,,,,,,,,,,,,,,,,,,,,,,,1663.2652348999982,1663.279692800017,1663.279692800017,1663.7797585999942,1663.7797585999942,1666.279665900045,1666.279665900045,1666.2641216000193,None,1,,,,,,,,,,,,,,,,,,,,,,,,nback53,001,2024-01-15_14h25.34.987,untitled,2023.2.3,60.07853465701598,2024-01-15 14h50.26.079248 -0500,
5,"[0.2, 0.1]",space,,,,,0,22,22,22,,,,,1666.279665900045,,,,,,,,,,,,,,,,,,,,,,,,,,,,,,,,,,,,,,,,,,,,,,1666.2648797000293,1666.279665900045,1666.279665900045,1666.7797947000363,1666.7797947000363,1669.2796967000468,1669.2796967000468,1669.263893800031,space,1,0.37275789998238906,None,,,,,,,,,,,,,,,,,,,,,,nback53,001,2024-01-15_14h25.34.987,untitled,2023.2.3,60.07853465701598,2024-01-15 14h50.26.079248 -0500,
1,"[-0.64, 0.4]",None,,,,,0,23,23,23,,,,,1669.2796967000468,,,,,,,,,,,,,,,,,,,,,,,,,,,,,,,,,,,,,,,,,,,,,,1669.2648420000332,1669.2796967000468,1669.2796967000468,1669.779686600028,1669.779686600028,1672.2796304000076,1672.2796304000076,1672.2637887000456,None,1,,,,,,,,,,,,,,,,,,,,,,,,nback53,001,2024-01-15_14h25.34.987,untitled,2023.2.3,60.07853465701598,2024-01-15 14h50.26.079248 -0500,
3,"[0, 0.2]",None,,,,,0,24,24,24,,,,,1672.2796304000076,,,,,,,,,,,,,,,,,,,,,,,,,,,,,,,,,,,,,,,,,,,,,,1672.26451920002,1672.2796304000076,1672.2796304000076,1672.7796562000294,1672.7796562000294,1675.2796432999894,1675.2796432999894,1675.2638437999994,None,1,,,,,,,,,,,,,,,,,,,,,,,,nback53,001,2024-01-15_14h25.34.987,untitled,2023.2.3,60.07853465701598,2024-01-15 14h50.26.079248 -0500,
6,"[-0.3, 0]",None,,,,,0,25,25,25,,,,,1675.2796432999894,,,,,,,,,,,,,,,,,,,,,,,,,,,,,,,,,,,,,,,,,,,,,,1675.2645659000264,1675.2796432999894,1675.2796432999894,1675.7795729000354,1675.7795729000354,1678.2795199000393,1678.2795199000393,1678.2639715000405,None,1,,,,,,,,,,,,,,,,,,,,,,,,nback53,001,2024-01-15_14h25.34.987,untitled,2023.2.3,60.07853465701598,2024-01-15 14h50.26.079248 -0500,
1,"[-0.64, 0.4]",None,,,,,0,26,26,26,,,,,1678.2795199000393,,,,,,,,,,,,,,,,,,,,,,,,,,,,,,,,,,,,,,,,,,,,,,1678.2647931000101,1678.2795199000393,1678.2795199000393,1678.7795028000255,1678.7795028000255,1681.279567199992,1681.279567199992,1681.2639536000206,None,1,,,,,,,,,,,,,,,,,,,,,,,,nback53,001,2024-01-15_14h25.34.987,untitled,2023.2.3,60.07853465701598,2024-01-15 14h50.26.079248 -0500,
1,"[-0.64, 0.4]",space,,,,,0,27,27,27,,,,,1681.279567199992,,,,,,,,,,,,,,,,,,,,,,,,,,,,,,,,,,,,,,,,,,,,,,1681.2647187000257,1681.279567199992,1681.279567199992,1681.7795558000216,1681.7795558000216,1684.2795306000044,1684.2795306000044,1684.263672400033,space,1,0.35645339998882264,None,,,,,,,,,,,,,,,,,,,,,,nback53,001,2024-01-15_14h25.34.987,untitled,2023.2.3,60.07853465701598,2024-01-15 14h50.26.079248 -0500,
1,"[-0.64, 0.4]",space,,,,,0,28,28,28,,,,,1684.2795306000044,,,,,,,,,,,,,,,,,,,,,,,,,,,,,,,,,,,,,,,,,,,,,,1684.2644633000018,1684.2795306000044,1684.2795306000044,1684.7795252000215,1684.7795252000215,1687.2794506000355,1687.2794506000355,1687.2637376000057,space,1,0.8997875000350177,None,,,,,,,,,,,,,,,,,,,,,,nback53,001,2024-01-15_14h25.34.987,untitled,2023.2.3,60.07853465701598,2024-01-15 14h50.26.079248 -0500,
3,"[0, 0.2]",None,,,,,0,29,29,29,,,,,1687.2794506000355,,,,,,,,,,,,,,,,,,,,,,,,,,,,,,,,,,,,,,,,,,,,,,1687.2647224999964,1687.2794506000355,1687.2794506000355,1687.779241500015,1687.779241500015,1690.279229900043,1690.279229900043,1690.2637904000003,None,1,,,,,,,,,,,,,,,,,,,,,,,,nback53,001,2024-01-15_14h25.34.987,untitled,2023.2.3,60.07853465701598,2024-01-15 14h50.26.079248 -0500,
12,"[0.64, -0.4]",None,,,,,0,30,30,30,,,,,1690.279229900043,,,,,,,,,,,,,,,,,,,,,,,,,,,,,,,,,,,,,,,,,,,,,,1690.264614899992,1690.279229900043,1690.279229900043,1690.7792201000266,1690.7792201000266,1693.279241900018,1693.279241900018,1693.2636728000361,None,1,,,,,,,,,,,,,,,,,,,,,,,,nback53,001,2024-01-15_14h25.34.987,untitled,2023.2.3,60.07853465701598,2024-01-15 14h50.26.079248 -0500,
12,"[0.64, -0.4]",space,,,,,0,31,31,31,,,,,1693.279241900018,,,,,,,,,,,,,,,,,,,,,,,,,,,,,,,,,,,,,,,,,,,,,,1693.2645163999987,1693.279241900018,1693.279241900018,1693.779310300015,1693.779310300015,1696.2791952000116,1696.2791952000116,1696.2634406000143,space,1,0.3782589000184089,None,,,,,,,,,,,,,,,,,,,,,,nback53,001,2024-01-15_14h25.34.987,untitled,2023.2.3,60.07853465701598,2024-01-15 14h50.26.079248 -0500,
2,"[0.64, 0.4]",None,,,,,0,32,32,32,,,,,1696.2791952000116,,,,,,,,,,,,,,,,,,,,,,,,,,,,,,,,,,,,,,,,,,,,,,1696.264319000009,1696.2791952000116,1696.2791952000116,1696.7793224999914,1696.7793224999914,1699.2792051000288,1699.2792051000288,1699.2633976000361,None,1,,,,,,,,,,,,,,,,,,,,,,,,nback53,001,2024-01-15_14h25.34.987,untitled,2023.2.3,60.07853465701598,2024-01-15 14h50.26.079248 -0500,
1,"[-0.64, 0.4]",None,,,,,0,33,33,33,,,,,1699.2792051000288,,,,,,,,,,,,,,,,,,,,,,,,,,,,,,,,,,,,,,,,,,,,,,1699.2641427000053,1699.2792051000288,1699.2792051000288,1699.7791768000461,1699.7791768000461,1702.2790908000316,1702.2790908000316,1702.2634744000388,None,1,,,,,,,,,,,,,,,,,,,,,,,,nback53,001,2024-01-15_14h25.34.987,untitled,2023.2.3,60.07853465701598,2024-01-15 14h50.26.079248 -0500,
7,"[0.3, 0]",None,,,,,0,34,34,34,,,,,1702.2790908000316,,,,,,,,,,,,,,,,,,,,,,,,,,,,,,,,,,,,,,,,,,,,,,1702.2642754000262,1702.2790908000316,1702.2790908000316,1702.7791163999937,1702.7791163999937,1705.2789853000431,1705.2789853000431,1705.2633426000248,None,1,,,,,,,,,,,,,,,,,,,,,,,,nback53,001,2024-01-15_14h25.34.987,untitled,2023.2.3,60.07853465701598,2024-01-15 14h50.26.079248 -0500,
7,"[0.3, 0]",space,,,,,0,35,35,35,,,,,1705.2789853000431,,,,,,,,,,,,,,,,,,,,,,,,,,,,,,,,,,,,,,,,,,,,,,1705.2641370000201,1705.2789853000431,1705.2789853000431,1705.778924000042,1705.778924000042,1708.2788629000424,1708.2788629000424,1708.263306500041,space,1,0.4233024999848567,None,,,,,,,,,,,,,,,,,,,,,,nback53,001,2024-01-15_14h25.34.987,untitled,2023.2.3,60.07853465701598,2024-01-15 14h50.26.079248 -0500,
11,"[-0.64, -0.4]",None,,,,,0,36,36,36,,,,,1708.2788629000424,,,,,,,,,,,,,,,,,,,,,,,,,,,,,,,,,,,,,,,,,,,,,,1708.2642888000119,1708.2788629000424,1708.2788629000424,1708.7789390000398,1708.7789390000398,1711.278996500012,1711.278996500012,1711.2629497000016,None,1,,,,,,,,,,,,,,,,,,,,,,,,nback53,001,2024-01-15_14h25.34.987,untitled,2023.2.3,60.07853465701598,2024-01-15 14h50.26.079248 -0500,
2,"[0.64, 0.4]",None,,,,,0,37,37,37,,,,,1711.278996500012,,,,,,,,,,,,,,,,,,,,,,,,,,,,,,,,,,,,,,,,,,,,,,1711.2636745999916,1711.278996500012,1711.278996500012,1711.7789873000002,1711.7789873000002,1714.2786659999983,1714.2786659999983,1714.2625158000155,None,1,,,,,,,,,,,,,,,,,,,,,,,,nback53,001,2024-01-15_14h25.34.987,untitled,2023.2.3,60.07853465701598,2024-01-15 14h50.26.079248 -0500,
6,"[-0.3, 0]",None,,,,,0,38,38,38,,,,,1714.2786659999983,,,,,,,,,,,,,,,,,,,,,,,,,,,,,,,,,,,,,,,,,,,,,,1714.262841000047,1714.2786659999983,1714.2786659999983,1714.7790315000457,1714.7790315000457,1717.2789216000238,1717.2789216000238,1717.263181700022,None,1,,,,,,,,,,,,,,,,,,,,,,,,nback53,001,2024-01-15_14h25.34.987,untitled,2023.2.3,60.07853465701598,2024-01-15 14h50.26.079248 -0500,
10,"[0, -0.2]",None,,,,,0,39,39,39,,,,,1717.2789216000238,,,,,,,,,,,,,,,,,,,,,,,,,,,,,,,,,,,,,,,,,,,,,,1717.2640155000263,1717.2789216000238,1717.2789216000238,1717.7788139000186,1717.7788139000186,1720.2789383000345,1720.2789383000345,1720.2628529000212,None,1,,,,,,,,,,,,,,,,,,,,,,,,nback53,001,2024-01-15_14h25.34.987,untitled,2023.2.3,60.07853465701598,2024-01-15 14h50.26.079248 -0500,
,,,,,,,,,,,,,,,,,,,,,,,,,,,,,,,,,,,,,,,,,,,,,,,,,,,,,,,,,,,,,,,,,,,,,,,,,1720.2633128000307,1720.2789383000345,1720.2789383000345,1731.230279100011,space,10.942609900026582,None,,,,,,,,,,,,,,,nback53,001,2024-01-15_14h25.34.987,untitled,2023.2.3,60.07853465701598,2024-01-15 14h50.26.079248 -0500,
,"[0.2, 0.1]",None,,,,,,,,,0,0,0,0,1732.2465013000183,,,,,,,,,,,,,,,,,,,,,,,,1731.2303272000281,1731.2453086000169,1732.2465013000183,1732.2297124000033,,,,,,,,,,,,,,,,,,,,,,,,,,,,,,,,,,,,,,1732.2445612000301,1732.2465013000183,1732.2465013000183,1732.7451956000295,1732.761940299999,1735.2449983000406,1735.2451627000119,None,1,,,,,,nback53,001,2024-01-15_14h25.34.987,untitled,2023.2.3,60.07853465701598,2024-01-15 14h50.26.079248 -0500,
,"[0.64, 0.4]",None,,,,,,,,,0,1,1,1,1735.2620023000054,,,,,,,,,,,,,,,,,,,,,,,,,,,,,,,,,,,,,,,,,,,,,,,,,,,,,,,,,,,,,,,,,1735.2462438000366,1735.2620023000054,1735.2620023000054,1735.7451820000424,1735.761711900006,1738.2450791000156,1738.2452665000455,None,1,,,,,,nback53,001,2024-01-15_14h25.34.987,untitled,2023.2.3,60.07853465701598,2024-01-15 14h50.26.079248 -0500,
,"[-0.3, 0]",None,,,,,,,,,0,2,2,2,1738.26188060001,,,,,,,,,,,,,,,,,,,,,,,,,,,,,,,,,,,,,,,,,,,,,,,,,,,,,,,,,,,,,,,,,1738.2460594000295,1738.26188060001,1738.26188060001,1738.7450328000123,1738.7618554999935,1741.2449212000356,1741.2450739000342,None,1,,,,,,nback53,001,2024-01-15_14h25.34.987,untitled,2023.2.3,60.07853465701598,2024-01-15 14h50.26.079248 -0500,
,"[0.2, -0.1]",None,,,,,,,,,0,3,3,3,1741.2618996000383,,,,,,,,,,,,,,,,,,,,,,,,,,,,,,,,,,,,,,,,,,,,,,,,,,,,,,,,,,,,,,,,,1741.2458576000063,1741.2618996000383,1741.2618996000383,1741.7448869000073,1741.7617514000158,1744.2450481000124,1744.2452461000066,None,1,,,,,,nback53,001,2024-01-15_14h25.34.987,untitled,2023.2.3,60.07853465701598,2024-01-15 14h50.26.079248 -0500,
,"[0, 0.2]",None,,,,,,,,,0,4,4,4,1744.2617092000437,,,,,,,,,,,,,,,,,,,,,,,,,,,,,,,,,,,,,,,,,,,,,,,,,,,,,,,,,,,,,,,,,1744.2460775999934,1744.2617092000437,1744.2617092000437,1744.7450059000403,1744.7617489999975,1747.2450863000122,1747.2452604999999,None,1,,,,,,nback53,001,2024-01-15_14h25.34.987,untitled,2023.2.3,60.07853465701598,2024-01-15 14h50.26.079248 -0500,
,"[0.2, -0.1]",space,,,,,,,,,0,5,5,5,1747.2616961000022,,,,,,,,,,,,,,,,,,,,,,,,,,,,,,,,,,,,,,,,,,,,,,,,,,,,,,,,,,,,,,,,,1747.2459467000444,1747.2616961000022,1747.2616961000022,1747.7450888000312,1747.7616880999994,1750.2448465999914,1750.2449589000316,space,1,0.401671500003431,None,,,,nback53,001,2024-01-15_14h25.34.987,untitled,2023.2.3,60.07853465701598,2024-01-15 14h50.26.079248 -0500,
,"[0, -0.2]",None,,,,,,,,,0,6,6,6,1750.2615145000163,,,,,,,,,,,,,,,,,,,,,,,,,,,,,,,,,,,,,,,,,,,,,,,,,,,,,,,,,,,,,,,,,1750.2454897999996,1750.2615145000163,1750.2615145000163,1750.7448097000015,1750.761426000041,1753.244940100005,1753.2451334000216,None,1,,,,,,nback53,001,2024-01-15_14h25.34.987,untitled,2023.2.3,60.07853465701598,2024-01-15 14h50.26.079248 -0500,
,"[0.64, -0.4]",None,,,,,,,,,0,7,7,7,1753.26146780001,,,,,,,,,,,,,,,,,,,,,,,,,,,,,,,,,,,,,,,,,,,,,,,,,,,,,,,,,,,,,,,,,1753.2459487000015,1753.26146780001,1753.26146780001,1753.7449468999985,1753.7616238000337,1756.2447993000387,1756.2449988000444,None,1,,,,,,nback53,001,2024-01-15_14h25.34.987,untitled,2023.2.3,60.07853465701598,2024-01-15 14h50.26.079248 -0500,
,"[0.3, 0]",None,,,,,,,,,0,8,8,8,1756.2615722999908,,,,,,,,,,,,,,,,,,,,,,,,,,,,,,,,,,,,,,,,,,,,,,,,,,,,,,,,,,,,,,,,,1756.245842400007,1756.2615722999908,1756.2615722999908,1756.7448880000156,1756.7615944000427,1759.2448853999958,1759.2452104000258,None,1,,,,,,nback53,001,2024-01-15_14h25.34.987,untitled,2023.2.3,60.07853465701598,2024-01-15 14h50.26.079248 -0500,
,"[0.64, -0.4]",space,,,,,,,,,0,9,9,9,1759.2613586999942,,,,,,,,,,,,,,,,,,,,,,,,,,,,,,,,,,,,,,,,,,,,,,,,,,,,,,,,,,,,,,,,,1759.2460636000033,1759.2613586999942,1759.2613586999942,1759.744777200045,1759.761494400038,1762.2447770000435,1762.244952100038,space,1,0.4902631000149995,None,,,,nback53,001,2024-01-15_14h25.34.987,untitled,2023.2.3,60.07853465701598,2024-01-15 14h50.26.079248 -0500,
,"[-0.64, 0.4]",None,,,,,,,,,0,10,10,10,1762.2613150000107,,,,,,,,,,,,,,,,,,,,,,,,,,,,,,,,,,,,,,,,,,,,,,,,,,,,,,,,,,,,,,,,,1762.2458732000086,1762.2613150000107,1762.2613150000107,1762.744724899996,1762.7614899000037,1765.2446779000456,1765.2448844000464,None,1,,,,,,nback53,001,2024-01-15_14h25.34.987,untitled,2023.2.3,60.07853465701598,2024-01-15 14h50.26.079248 -0500,
,"[0.2, 0.1]",None,,,,,,,,,0,11,11,11,1765.2615039999946,,,,,,,,,,,,,,,,,,,,,,,,,,,,,,,,,,,,,,,,,,,,,,,,,,,,,,,,,,,,,,,,,1765.2457102999906,1765.2615039999946,1765.2615039999946,1765.744751100021,1765.7614180000382,1768.2447451000335,1768.2449433000293,None,1,,,,,,nback53,001,2024-01-15_14h25.34.987,untitled,2023.2.3,60.07853465701598,2024-01-15 14h50.26.079248 -0500,
,"[0.3, 0]",None,,,,,,,,,0,12,12,12,1768.2612460000091,,,,,,,,,,,,,,,,,,,,,,,,,,,,,,,,,,,,,,,,,,,,,,,,,,,,,,,,,,,,,,,,,1768.2457332999911,1768.2612460000091,1768.2612460000091,1768.7446106999996,1768.761386600032,1771.2446630999912,1771.2448775999947,None,1,,,,,,nback53,001,2024-01-15_14h25.34.987,untitled,2023.2.3,60.07853465701598,2024-01-15 14h50.26.079248 -0500,
,"[0.2, 0.1]",space,,,,,,,,,0,13,13,13,1771.2612799000344,,,,,,,,,,,,,,,,,,,,,,,,,,,,,,,,,,,,,,,,,,,,,,,,,,,,,,,,,,,,,,,,,1771.245726299996,1771.2612799000344,1771.2612799000344,1771.7446452000295,1771.7612883000402,1774.244153800013,1774.2442424000474,space,1,0.5934038999839686,None,,,,nback53,001,2024-01-15_14h25.34.987,untitled,2023.2.3,60.07853465701598,2024-01-15 14h50.26.079248 -0500,
,"[-0.3, 0]",None,,,,,,,,,0,14,14,14,1774.2609144000453,,,,,,,,,,,,,,,,,,,,,,,,,,,,,,,,,,,,,,,,,,,,,,,,,,,,,,,,,,,,,,,,,1774.2446834000293,1774.2609144000453,1774.2609144000453,1774.7445297000231,1774.7612326000235,1777.2443955999915,1777.2444980000146,None,1,,,,,,nback53,001,2024-01-15_14h25.34.987,untitled,2023.2.3,60.07853465701598,2024-01-15 14h50.26.079248 -0500,
,"[0, 0.2]",None,,,,,,,,,0,15,15,15,1777.2610635000165,,,,,,,,,,,,,,,,,,,,,,,,,,,,,,,,,,,,,,,,,,,,,,,,,,,,,,,,,,,,,,,,,1777.244872900017,1777.2610635000165,1777.2610635000165,1777.7443280000007,1777.7610563000198,1780.2445755000226,1780.2447717000032,None,1,,,,,,nback53,001,2024-01-15_14h25.34.987,untitled,2023.2.3,60.07853465701598,2024-01-15 14h50.26.079248 -0500,
,"[-0.3, 0]",space,,,,,,,,,0,16,16,16,1780.2610794000211,,,,,,,,,,,,,,,,,,,,,,,,,,,,,,,,,,,,,,,,,,,,,,,,,,,,,,,,,,,,,,,,,1780.245613200008,1780.2610794000211,1780.2610794000211,1780.7443514000042,1780.7611390000093,1783.24439170002,1783.2445837000269,space,1,0.5237377000157721,None,,,,nback53,001,2024-01-15_14h25.34.987,untitled,2023.2.3,60.07853465701598,2024-01-15 14h50.26.079248 -0500,
,"[-0.64, -0.4]",None,,,,,,,,,0,17,17,17,1783.2610938000144,,,,,,,,,,,,,,,,,,,,,,,,,,,,,,,,,,,,,,,,,,,,,,,,,,,,,,,,,,,,,,,,,1783.2455703000305,1783.2610938000144,1783.2610938000144,1783.7443904000102,1783.7611318000127,1786.2442123999936,1786.2444078000262,None,1,,,,,,nback53,001,2024-01-15_14h25.34.987,untitled,2023.2.3,60.07853465701598,2024-01-15 14h50.26.079248 -0500,
,"[-0.2, -0.1]",None,,,,,,,,,0,18,18,18,1786.2609504000284,,,,,,,,,,,,,,,,,,,,,,,,,,,,,,,,,,,,,,,,,,,,,,,,,,,,,,,,,,,,,,,,,1786.2451955000288,1786.2609504000284,1786.2609504000284,1786.7442626000266,1786.7610559000168,1789.2442242000252,1789.244399600022,None,1,,,,,,nback53,001,2024-01-15_14h25.34.987,untitled,2023.2.3,60.07853465701598,2024-01-15 14h50.26.079248 -0500,
,"[0.2, -0.1]",None,,,,,,,,,0,19,19,19,1789.2607328000013,,,,,,,,,,,,,,,,,,,,,,,,,,,,,,,,,,,,,,,,,,,,,,,,,,,,,,,,,,,,,,,,,1789.2450807000278,1789.2607328000013,1789.2607328000013,1789.744257100043,1789.761042600032,1792.2442145000095,1792.2444144000183,None,1,,,,,,nback53,001,2024-01-15_14h25.34.987,untitled,2023.2.3,60.07853465701598,2024-01-15 14h50.26.079248 -0500,
,"[0.2, -0.1]",None,,,,,,,,,0,20,20,20,1792.2608769999933,,,,,,,,,,,,,,,,,,,,,,,,,,,,,,,,,,,,,,,,,,,,,,,,,,,,,,,,,,,,,,,,,1792.2452386000077,1792.2608769999933,1792.2608769999933,1792.7442857000278,1792.760807899991,1795.24406669999,1795.244234300044,None,1,,,,,,nback53,001,2024-01-15_14h25.34.987,untitled,2023.2.3,60.07853465701598,2024-01-15 14h50.26.079248 -0500,
,"[-0.64, 0.4]",None,,,,,,,,,0,21,21,21,1795.2609536999953,,,,,,,,,,,,,,,,,,,,,,,,,,,,,,,,,,,,,,,,,,,,,,,,,,,,,,,,,,,,,,,,,1795.2448817000259,1795.2609536999953,1795.2609536999953,1795.7442194999894,1795.7608372000395,1798.2440980999963,1798.2442878000438,None,1,,,,,,nback53,001,2024-01-15_14h25.34.987,untitled,2023.2.3,60.07853465701598,2024-01-15 14h50.26.079248 -0500,
,"[0, 0.2]",None,,,,,,,,,0,22,22,22,1798.2608111000154,,,,,,,,,,,,,,,,,,,,,,,,,,,,,,,,,,,,,,,,,,,,,,,,,,,,,,,,,,,,,,,,,1798.245025900018,1798.2608111000154,1798.2608111000154,1798.7441752000013,1798.7608144000405,1801.2440077000065,1801.244162900024,None,1,,,,,,nback53,001,2024-01-15_14h25.34.987,untitled,2023.2.3,60.07853465701598,2024-01-15 14h50.26.079248 -0500,
,"[0.64, -0.4]",None,,,,,,,,,0,23,23,23,1801.2607962000184,,,,,,,,,,,,,,,,,,,,,,,,,,,,,,,,,,,,,,,,,,,,,,,,,,,,,,,,,,,,,,,,,1801.244907400047,1801.2607962000184,1801.2607962000184,1801.7441129999934,1801.7606688000378,1804.2440138999955,1804.2442103000358,None,1,,,,,,nback53,001,2024-01-15_14h25.34.987,untitled,2023.2.3,60.07853465701598,2024-01-15 14h50.26.079248 -0500,
,"[0, 0.2]",space,,,,,,,,,0,24,24,24,1804.2606631999952,,,,,,,,,,,,,,,,,,,,,,,,,,,,,,,,,,,,,,,,,,,,,,,,,,,,,,,,,,,,,,,,,1804.2449955000193,1804.2606631999952,1804.2606631999952,1804.7439313000068,1804.760715200042,1807.2439127000398,1807.2440716000274,space,1,0.40650430001551285,None,,,,nback53,001,2024-01-15_14h25.34.987,untitled,2023.2.3,60.07853465701598,2024-01-15 14h50.26.079248 -0500,
,"[-0.2, 0.1]",None,,,,,,,,,0,25,25,25,1807.2605640999973,,,,,,,,,,,,,,,,,,,,,,,,,,,,,,,,,,,,,,,,,,,,,,,,,,,,,,,,,,,,,,,,,1807.2447459000396,1807.2605640999973,1807.2605640999973,1807.7441299000056,1807.7606829000288,1810.2440644000308,1810.2442961999914,None,1,,,,,,nback53,001,2024-01-15_14h25.34.987,untitled,2023.2.3,60.07853465701598,2024-01-15 14h50.26.079248 -0500,
,"[0.3, 0]",None,,,,,,,,,0,26,26,26,1810.260572900006,,,,,,,,,,,,,,,,,,,,,,,,,,,,,,,,,,,,,,,,,,,,,,,,,,,,,,,,,,,,,,,,,1810.2451109000249,1810.260572900006,1810.260572900006,1810.7439504000358,1810.760525699996,1813.243955700018,1813.2441548000206,None,1,,,,,,nback53,001,2024-01-15_14h25.34.987,untitled,2023.2.3,60.07853465701598,2024-01-15 14h50.26.079248 -0500,
,"[-0.2, 0.1]",space,,,,,,,,,0,27,27,27,1813.260619400011,,,,,,,,,,,,,,,,,,,,,,,,,,,,,,,,,,,,,,,,,,,,,,,,,,,,,,,,,,,,,,,,,1813.2449255000101,1813.260619400011,1813.260619400011,1813.7437607000466,1813.7606251999969,1816.2436931999982,1816.2438669000403,space,1,0.5624599999864586,None,,,,nback53,001,2024-01-15_14h25.34.987,untitled,2023.2.3,60.07853465701598,2024-01-15 14h50.26.079248 -0500,
,"[-0.2, 0.1]",None,,,,,,,,,0,28,28,28,1816.260539000039,,,,,,,,,,,,,,,,,,,,,,,,,,,,,,,,,,,,,,,,,,,,,,,,,,,,,,,,,,,,,,,,,1816.2447579000145,1816.260539000039,1816.260539000039,1816.7436171000008,1816.760469800036,1819.2437759000459,1819.2439720000257,space,0,1.1976397999678738,None,,,,nback53,001,2024-01-15_14h25.34.987,untitled,2023.2.3,60.07853465701598,2024-01-15 14h50.26.079248 -0500,
,"[0.2, 0.1]",None,,,,,,,,,0,29,29,29,1819.2604885000037,,,,,,,,,,,,,,,,,,,,,,,,,,,,,,,,,,,,,,,,,,,,,,,,,,,,,,,,,,,,,,,,,1819.2449005999952,1819.2604885000037,1819.2604885000037,1819.7438524000463,1819.7604352000053,1822.2438021000125,1822.2440111000324,None,1,,,,,,nback53,001,2024-01-15_14h25.34.987,untitled,2023.2.3,60.07853465701598,2024-01-15 14h50.26.079248 -0500,
,"[-0.64, -0.4]",None,,,,,,,,,0,30,30,30,1822.2603383000242,,,,,,,,,,,,,,,,,,,,,,,,,,,,,,,,,,,,,,,,,,,,,,,,,,,,,,,,,,,,,,,,,1822.2448316999944,1822.2603383000242,1822.2603383000242,1822.7435198000167,1822.7604833000223,1825.2437083999976,1825.2439086000086,None,1,,,,,,nback53,001,2024-01-15_14h25.34.987,untitled,2023.2.3,60.07853465701598,2024-01-15 14h50.26.079248 -0500,
,"[0, -0.2]",None,,,,,,,,,0,31,31,31,1825.2604247000418,,,,,,,,,,,,,,,,,,,,,,,,,,,,,,,,,,,,,,,,,,,,,,,,,,,,,,,,,,,,,,,,,1825.2447648000089,1825.2604247000418,1825.2604247000418,1825.7434532000334,1825.7602975000045,1828.2436425000196,1828.2438377999933,None,1,,,,,,nback53,001,2024-01-15_14h25.34.987,untitled,2023.2.3,60.07853465701598,2024-01-15 14h50.26.079248 -0500,
,"[-0.64, -0.4]",space,,,,,,,,,0,32,32,32,1828.260298100009,,,,,,,,,,,,,,,,,,,,,,,,,,,,,,,,,,,,,,,,,,,,,,,,,,,,,,,,,,,,,,,,,1828.244656099996,1828.260298100009,1828.260298100009,1828.7434162000427,1828.760117900034,1831.2437547000009,1831.243908000004,space,1,0.3214594000019133,None,,,,nback53,001,2024-01-15_14h25.34.987,untitled,2023.2.3,60.07853465701598,2024-01-15 14h50.26.079248 -0500,
,"[0.64, 0.4]",None,,,,,,,,,0,33,33,33,1831.2602922000224,,,,,,,,,,,,,,,,,,,,,,,,,,,,,,,,,,,,,,,,,,,,,,,,,,,,,,,,,,,,,,,,,1831.244617999997,1831.2602922000224,1831.2602922000224,1831.7434768000385,1831.760224000027,1834.2432526000193,1834.2433819000144,None,1,,,,,,nback53,001,2024-01-15_14h25.34.987,untitled,2023.2.3,60.07853465701598,2024-01-15 14h50.26.079248 -0500,
,"[-0.3, 0]",None,,,,,,,,,0,34,34,34,1834.2600669999956,,,,,,,,,,,,,,,,,,,,,,,,,,,,,,,,,,,,,,,,,,,,,,,,,,,,,,,,,,,,,,,,,1834.2438619000022,1834.2600669999956,1834.2600669999956,1834.7434588000178,1834.7602581999963,1837.2433905000216,1837.24358509999,None,1,,,,,,nback53,001,2024-01-15_14h25.34.987,untitled,2023.2.3,60.07853465701598,2024-01-15 14h50.26.079248 -0500,
,"[0.3, 0]",None,,,,,,,,,0,35,35,35,1837.2601548000239,,,,,,,,,,,,,,,,,,,,,,,,,,,,,,,,,,,,,,,,,,,,,,,,,,,,,,,,,,,,,,,,,1837.2443472000305,1837.2601548000239,1837.2601548000239,1837.7434083000408,1837.759923000005,1840.2434138000244,1840.2435891000205,None,1,,,,,,nback53,001,2024-01-15_14h25.34.987,untitled,2023.2.3,60.07853465701598,2024-01-15 14h50.26.079248 -0500,
,"[-0.3, 0]",space,,,,,,,,,0,36,36,36,1840.2601550000254,,,,,,,,,,,,,,,,,,,,,,,,,,,,,,,,,,,,,,,,,,,,,,,,,,,,,,,,,,,,,,,,,1840.244390900014,1840.2601550000254,1840.2601550000254,1840.7433397000423,1840.7600448000012,1843.2433178999927,1843.243501799996,space,1,0.44679639994865283,None,,,,nback53,001,2024-01-15_14h25.34.987,untitled,2023.2.3,60.07853465701598,2024-01-15 14h50.26.079248 -0500,
,"[0, -0.2]",None,,,,,,,,,0,37,37,37,1843.2601794000366,,,,,,,,,,,,,,,,,,,,,,,,,,,,,,,,,,,,,,,,,,,,,,,,,,,,,,,,,,,,,,,,,1843.244399600022,1843.2601794000366,1843.2601794000366,1843.7431779000326,1843.7599516999908,1846.2432456000242,1846.2434228000348,None,1,,,,,,nback53,001,2024-01-15_14h25.34.987,untitled,2023.2.3,60.07853465701598,2024-01-15 14h50.26.079248 -0500,
,"[0.3, 0]",None,,,,,,,,,0,38,38,38,1846.2599898999906,,,,,,,,,,,,,,,,,,,,,,,,,,,,,,,,,,,,,,,,,,,,,,,,,,,,,,,,,,,,,,,,,1846.244135999994,1846.2599898999906,1846.2599898999906,1846.743242800003,1846.7598167000106,1849.2430502999923,1849.2432513000094,None,1,,,,,,nback53,001,2024-01-15_14h25.34.987,untitled,2023.2.3,60.07853465701598,2024-01-15 14h50.26.079248 -0500,
,"[0.2, 0.1]",None,,,,,,,,,0,39,39,39,1849.2599913000013,,,,,,,,,,,,,,,,,,,,,,,,,,,,,,,,,,,,,,,,,,,,,,,,,,,,,,,,,,,,,,,,,1849.243986800022,1849.2599913000013,1849.2599913000013,1849.7432459000265,1849.7598997000023,1852.243178600038,1852.2433695000364,None,1,,,,,,nback53,001,2024-01-15_14h25.34.987,untitled,2023.2.3,60.07853465701598,2024-01-15 14h50.26.079248 -0500,
,,,,,,,,,,,,,,,,,,,,,,,,,,,,,,,,,,,,,,,,,,,,,,,,,,,,,,,,,,,,,,,,,,,,,,,,,,,,,,,,,,,,,,,,,,,1852.243852899992,1852.259926800034,1855.24340820004,,,,,,,,
