square,location,corrAns,trials_0.thisRepN,trials_0.thisTrialN,trials_0.thisN,trials_0.thisIndex,trials_1.thisRepN,trials_1.thisTrialN,trials_1.thisN,trials_1.thisIndex,trials_2.thisRepN,trials_2.thisTrialN,trials_2.thisN,trials_2.thisIndex,thisRow.t,notes,Instructions.started,instructions.started,key_resp.started,inst_sq11.started,Instructions.stopped,key_resp.keys,key_resp.rt,key_resp.duration,All.started,sq_1.started,sq_2.started,sq_3.started,sq_4.started,sq_5.started,sq_6.started,sq_7.started,sq_8.started,sq_9.started,sq_10.started,sq_11.started,sq_12.started,All.stopped,Fixation.started,fixation_3.started,fixation_3.stopped,Fixation.stopped,N_back_0_Trial.started,target_square_0.started,response_0.started,fixation_0.started,target_square_0.stopped,fixation_0.stopped,N_back_0_Trial.stopped,response_0.keys,response_0.corr,response_0.rt,response_0.duration,Instructions_1.started,instructions_1.started,key_resp_1.started,Instructions_1.stopped,key_resp_1.keys,key_resp_1.rt,key_resp_1.duration,N_back_1_Trial.started,target_square_1.started,response_1.started,fixation_1.started,target_square_1.stopped,fixation_1.stopped,N_back_1_Trial.stopped,response_1.keys,response_1.corr,response_1.rt,response_1.duration,Instructions_2.started,instructions_2.started,key_resp_2.started,Instructions_2.stopped,key_resp_2.keys,key_resp_2.rt,key_resp_2.duration,N_back_2_trials.started,target_square_2.started,response_2.started,fixation_2.started,target_square_2.stopped,fixation_2.stopped,N_back_2_trials.stopped,response_2.keys,response_2.corr,response_2.rt,response_2.duration,End.started,thank_you.started,End.stopped,participant,session,date,expName,psychopyVersion,frameRate,expStart,Unnamed: 100
,,,,,,,,,,,,,,,,,0.0017874999903142,0.0043738998938351,0.0043738998938351,0.0043738998938351,1717.0051746000536,space,1716.98309600004,None,,,,,,,,,,,,,,,,,,,,,,,,,,,,,,,,,,,,,,,,,,,,,,,,,,,,,,,,,,,,,,,,,,,,,nback74,1.0,2024-01-30_10h21.03.132,untitled,2023.2.3,59.94082641218299,2024-01-30 10h45.14.521678 -0500,
6.0,"[-0.3, 0]",None,0.0,0.0,0.0,0.0,,,,,,,,,1719.0249153999612,,,,,,,,,,1717.0052435998805,1717.0196368999314,1717.0196368999314,1717.0196368999314,1717.0196368999314,1717.0196368999314,1717.0196368999314,1717.0196368999314,1717.0196368999314,1717.0196368999314,1717.0196368999314,1717.0196368999314,1717.0196368999314,1718.0034105000086,1718.00342549989,1718.0195917999372,1719.0249153999612,1719.0040577999316,1719.022946999874,1719.0249153999612,1719.0249153999612,1719.5030359998343,1719.536221999908,1722.002955700038,1722.020041699987,None,1.0,,,,,,,,,,,,,,,,,,,,,,,,,,,,,,,,,,,,,,,,,,nback74,1.0,2024-01-30_10h21.03.132,untitled,2023.2.3,59.94082641218299,2024-01-30 10h45.14.521678 -0500,
10.0,"[0, -0.2]",None,0.0,1.0,1.0,1.0,,,,,,,,,1722.0365146999247,,,,,,,,,,,,,,,,,,,,,,,,,,,,1722.0211181999184,1722.0365146999247,1722.0365146999247,1722.5031112998258,1722.5364757999778,1725.0030832998457,1725.0199434000533,None,1.0,,,,,,,,,,,,,,,,,,,,,,,,,,,,,,,,,,,,,,,,,,nback74,1.0,2024-01-30_10h21.03.132,untitled,2023.2.3,59.94082641218299,2024-01-30 10h45.14.521678 -0500,
11.0,"[-0.64, -0.4]",space,0.0,2.0,2.0,2.0,,,,,,,,,1725.0363717998844,,,,,,,,,,,,,,,,,,,,,,,,,,,,1725.020765699912,1725.0363717998844,1725.0363717998844,1725.5036954998504,1725.5368500999175,1728.0029829000125,1728.019941699924,space,1.0,0.6505867000669241,None,,,,,,,,,,,,,,,,,,,,,,,,,,,,,,,,,,,,,,,,nback74,1.0,2024-01-30_10h21.03.132,untitled,2023.2.3,59.94082641218299,2024-01-30 10h45.14.521678 -0500,
12.0,"[0.64, -0.4]",None,0.0,3.0,3.0,3.0,,,,,,,,,1728.036323999986,,,,,,,,,,,,,,,,,,,,,,,,,,,,1728.0211968000513,1728.036323999986,1728.036323999986,1728.503039599862,1728.5364802998956,1731.003048799932,1731.0197890000418,None,1.0,,,,,,,,,,,,,,,,,,,,,,,,,,,,,,,,,,,,,,,,,,nback74,1.0,2024-01-30_10h21.03.132,untitled,2023.2.3,59.94082641218299,2024-01-30 10h45.14.521678 -0500,
1.0,"[-0.64, 0.4]",None,0.0,4.0,4.0,4.0,,,,,,,,,1731.0362321999855,,,,,,,,,,,,,,,,,,,,,,,,,,,,1731.0205081000458,1731.0362321999855,1731.0362321999855,1731.5030226998497,1731.5363558998797,1734.002836999949,1734.0196066999342,None,1.0,,,,,,,,,,,,,,,,,,,,,,,,,,,,,,,,,,,,,,,,,,nback74,1.0,2024-01-30_10h21.03.132,untitled,2023.2.3,59.94082641218299,2024-01-30 10h45.14.521678 -0500,
1.0,"[-0.64, 0.4]",None,0.0,5.0,5.0,5.0,,,,,,,,,1734.0362008998636,,,,,,,,,,,,,,,,,,,,,,,,,,,,1734.020399299916,1734.0362008998636,1734.0362008998636,1734.5029322998598,1734.536281599896,1737.0028051999398,1737.0197568000294,None,1.0,,,,,,,,,,,,,,,,,,,,,,,,,,,,,,,,,,,,,,,,,,nback74,1.0,2024-01-30_10h21.03.132,untitled,2023.2.3,59.94082641218299,2024-01-30 10h45.14.521678 -0500,
4.0,"[-0.2, 0.1]",None,0.0,6.0,6.0,6.0,,,,,,,,,1737.0361546999775,,,,,,,,,,,,,,,,,,,,,,,,,,,,1737.020600500051,1737.0361546999775,1737.0361546999775,1737.5026970999315,1737.536203800002,1740.002718999982,1740.019717699848,None,1.0,,,,,,,,,,,,,,,,,,,,,,,,,,,,,,,,,,,,,,,,,,nback74,1.0,2024-01-30_10h21.03.132,untitled,2023.2.3,59.94082641218299,2024-01-30 10h45.14.521678 -0500,
5.0,"[0.2, 0.1]",None,0.0,7.0,7.0,7.0,,,,,,,,,1740.0361768000294,,,,,,,,,,,,,,,,,,,,,,,,,,,,1740.0204978999682,1740.0361768000294,1740.0361768000294,1740.5028252999764,1740.5360679998994,1743.002717099851,1743.0195801998489,None,1.0,,,,,,,,,,,,,,,,,,,,,,,,,,,,,,,,,,,,,,,,,,nback74,1.0,2024-01-30_10h21.03.132,untitled,2023.2.3,59.94082641218299,2024-01-30 10h45.14.521678 -0500,
11.0,"[-0.64, -0.4]",space,0.0,8.0,8.0,8.0,,,,,,,,,1743.036207499914,,,,,,,,,,,,,,,,,,,,,,,,,,,,1743.0203549000437,1743.036207499914,1743.036207499914,1743.5025692000054,1743.5360121999402,1746.0026252998505,1746.0194899998603,space,1.0,0.3884413000196218,None,,,,,,,,,,,,,,,,,,,,,,,,,,,,,,,,,,,,,,,,nback74,1.0,2024-01-30_10h21.03.132,untitled,2023.2.3,59.94082641218299,2024-01-30 10h45.14.521678 -0500,
9.0,"[0.2, -0.1]",None,0.0,9.0,9.0,9.0,,,,,,,,,1746.0358923999593,,,,,,,,,,,,,,,,,,,,,,,,,,,,1746.02042299998,1746.0358923999593,1746.0358923999593,1746.502721299883,1746.535995400045,1749.0025180999655,1749.0195132000372,None,1.0,,,,,,,,,,,,,,,,,,,,,,,,,,,,,,,,,,,,,,,,,,nback74,1.0,2024-01-30_10h21.03.132,untitled,2023.2.3,59.94082641218299,2024-01-30 10h45.14.521678 -0500,
8.0,"[-0.2, -0.1]",None,0.0,10.0,10.0,10.0,,,,,,,,,1749.03605409991,,,,,,,,,,,,,,,,,,,,,,,,,,,,1749.020334099885,1749.03605409991,1749.03605409991,1749.5024738998618,1749.5358541000169,1752.002656799974,1752.0194184000138,None,1.0,,,,,,,,,,,,,,,,,,,,,,,,,,,,,,,,,,,,,,,,,,nback74,1.0,2024-01-30_10h21.03.132,untitled,2023.2.3,59.94082641218299,2024-01-30 10h45.14.521678 -0500,
9.0,"[0.2, -0.1]",None,0.0,11.0,11.0,11.0,,,,,,,,,1752.0359537999611,,,,,,,,,,,,,,,,,,,,,,,,,,,,1752.0202883998863,1752.0359537999611,1752.0359537999611,1752.502541200025,1752.5360337998718,1755.0024687999394,1755.0195234999992,None,1.0,,,,,,,,,,,,,,,,,,,,,,,,,,,,,,,,,,,,,,,,,,nback74,1.0,2024-01-30_10h21.03.132,untitled,2023.2.3,59.94082641218299,2024-01-30 10h45.14.521678 -0500,
6.0,"[-0.3, 0]",None,0.0,12.0,12.0,12.0,,,,,,,,,1755.035837299889,,,,,,,,,,,,,,,,,,,,,,,,,,,,1755.0203792999964,1755.035837299889,1755.035837299889,1755.5192021999974,1755.5357886999846,1758.0192728999536,1758.0194955999032,None,1.0,,,,,,,,,,,,,,,,,,,,,,,,,,,,,,,,,,,,,,,,,,nback74,1.0,2024-01-30_10h21.03.132,untitled,2023.2.3,59.94082641218299,2024-01-30 10h45.14.521678 -0500,
9.0,"[0.2, -0.1]",None,0.0,13.0,13.0,13.0,,,,,,,,,1758.035790799884,,,,,,,,,,,,,,,,,,,,,,,,,,,,1758.0203758999703,1758.035790799884,1758.035790799884,1758.5023817999754,1758.5355682000518,1761.002407599939,1761.0192656000145,None,1.0,,,,,,,,,,,,,,,,,,,,,,,,,,,,,,,,,,,,,,,,,,nback74,1.0,2024-01-30_10h21.03.132,untitled,2023.2.3,59.94082641218299,2024-01-30 10h45.14.521678 -0500,
7.0,"[0.3, 0]",None,0.0,14.0,14.0,14.0,,,,,,,,,1761.035777000012,,,,,,,,,,,,,,,,,,,,,,,,,,,,1761.0201179999858,1761.035777000012,1761.035777000012,1761.5191061999649,1761.5359032000415,1764.019055099925,1764.019272699952,None,1.0,,,,,,,,,,,,,,,,,,,,,,,,,,,,,,,,,,,,,,,,,,nback74,1.0,2024-01-30_10h21.03.132,untitled,2023.2.3,59.94082641218299,2024-01-30 10h45.14.521678 -0500,
2.0,"[0.64, 0.4]",None,0.0,15.0,15.0,15.0,,,,,,,,,1764.0355601999909,,,,,,,,,,,,,,,,,,,,,,,,,,,,1764.0200310999062,1764.0355601999909,1764.0355601999909,1764.5025722000282,1764.5355920000002,1767.0023417999037,1767.019209699938,None,1.0,,,,,,,,,,,,,,,,,,,,,,,,,,,,,,,,,,,,,,,,,,nback74,1.0,2024-01-30_10h21.03.132,untitled,2023.2.3,59.94082641218299,2024-01-30 10h45.14.521678 -0500,
2.0,"[0.64, 0.4]",None,0.0,16.0,16.0,16.0,,,,,,,,,1767.0356566999108,,,,,,,,,,,,,,,,,,,,,,,,,,,,1767.0199837998953,1767.0356566999108,1767.0356566999108,1767.5189332000446,1767.53569769999,1770.0190210000146,1770.0192250998225,None,1.0,,,,,,,,,,,,,,,,,,,,,,,,,,,,,,,,,,,,,,,,,,nback74,1.0,2024-01-30_10h21.03.132,untitled,2023.2.3,59.94082641218299,2024-01-30 10h45.14.521678 -0500,
11.0,"[-0.64, -0.4]",space,0.0,17.0,17.0,17.0,,,,,,,,,1770.0357001998927,,,,,,,,,,,,,,,,,,,,,,,,,,,,1770.0200187000446,1770.0357001998927,1770.0357001998927,1770.5189833999611,1770.5354232999962,1773.0188213998915,1773.019035999896,space,1.0,0.3645069999620318,None,,,,,,,,,,,,,,,,,,,,,,,,,,,,,,,,,,,,,,,,nback74,1.0,2024-01-30_10h21.03.132,untitled,2023.2.3,59.94082641218299,2024-01-30 10h45.14.521678 -0500,
11.0,"[-0.64, -0.4]",space,0.0,18.0,18.0,18.0,,,,,,,,,1773.0355447998736,,,,,,,,,,,,,,,,,,,,,,,,,,,,1773.0200511999428,1773.0355447998736,1773.0355447998736,1773.5188549000304,1773.5354110999033,1776.018834499875,1776.019023800036,space,1.0,0.5150886001065373,None,,,,,,,,,,,,,,,,,,,,,,,,,,,,,,,,,,,,,,,,nback74,1.0,2024-01-30_10h21.03.132,untitled,2023.2.3,59.94082641218299,2024-01-30 10h45.14.521678 -0500,
7.0,"[0.3, 0]",None,0.0,19.0,19.0,19.0,,,,,,,,,1776.0354696998838,,,,,,,,,,,,,,,,,,,,,,,,,,,,1776.0199716999196,1776.0354696998838,1776.0354696998838,1776.5188251000363,1776.5354331999552,1779.0188651999924,1779.0190659000073,None,1.0,,,,,,,,,,,,,,,,,,,,,,,,,,,,,,,,,,,,,,,,,,nback74,1.0,2024-01-30_10h21.03.132,untitled,2023.2.3,59.94082641218299,2024-01-30 10h45.14.521678 -0500,
3.0,"[0, 0.2]",None,0.0,20.0,20.0,20.0,,,,,,,,,1779.0353840000462,,,,,,,,,,,,,,,,,,,,,,,,,,,,1779.0198643999174,1779.0353840000462,1779.0353840000462,1779.5188239999115,1779.535480799852,1782.0187653000469,1782.0189785000402,None,1.0,,,,,,,,,,,,,,,,,,,,,,,,,,,,,,,,,,,,,,,,,,nback74,1.0,2024-01-30_10h21.03.132,untitled,2023.2.3,59.94082641218299,2024-01-30 10h45.14.521678 -0500,
10.0,"[0, -0.2]",None,0.0,21.0,21.0,21.0,,,,,,,,,1782.0353744998574,,,,,,,,,,,,,,,,,,,,,,,,,,,,1782.0197823999915,1782.0353744998574,1782.0353744998574,1782.5187337999232,1782.5354402000085,1785.0189171000384,1785.0191323000472,None,1.0,,,,,,,,,,,,,,,,,,,,,,,,,,,,,,,,,,,,,,,,,,nback74,1.0,2024-01-30_10h21.03.132,untitled,2023.2.3,59.94082641218299,2024-01-30 10h45.14.521678 -0500,
1.0,"[-0.64, 0.4]",None,0.0,22.0,22.0,22.0,,,,,,,,,1785.0354102000128,,,,,,,,,,,,,,,,,,,,,,,,,,,,1785.0199454999529,1785.0354102000128,1785.0354102000128,1785.5193033998366,1785.535980500048,1788.0185815999284,1788.0187619000208,None,1.0,,,,,,,,,,,,,,,,,,,,,,,,,,,,,,,,,,,,,,,,,,nback74,1.0,2024-01-30_10h21.03.132,untitled,2023.2.3,59.94082641218299,2024-01-30 10h45.14.521678 -0500,
2.0,"[0.64, 0.4]",None,0.0,23.0,23.0,23.0,,,,,,,,,1788.0352496998385,,,,,,,,,,,,,,,,,,,,,,,,,,,,1788.0194361999163,1788.0352496998385,1788.0352496998385,1788.5186719999183,1788.535270199878,1791.0185215999372,1791.0187056998257,None,1.0,,,,,,,,,,,,,,,,,,,,,,,,,,,,,,,,,,,,,,,,,,nback74,1.0,2024-01-30_10h21.03.132,untitled,2023.2.3,59.94082641218299,2024-01-30 10h45.14.521678 -0500,
6.0,"[-0.3, 0]",None,0.0,24.0,24.0,24.0,,,,,,,,,1791.0351593999658,,,,,,,,,,,,,,,,,,,,,,,,,,,,1791.019494399894,1791.0351593999658,1791.0351593999658,1791.518446699949,1791.5350233998615,1794.0185187000316,1794.018700500019,None,1.0,,,,,,,,,,,,,,,,,,,,,,,,,,,,,,,,,,,,,,,,,,nback74,1.0,2024-01-30_10h21.03.132,untitled,2023.2.3,59.94082641218299,2024-01-30 10h45.14.521678 -0500,
3.0,"[0, 0.2]",None,0.0,25.0,25.0,25.0,,,,,,,,,1794.0352411998902,,,,,,,,,,,,,,,,,,,,,,,,,,,,1794.019376900047,1794.0352411998902,1794.0352411998902,1794.5187619000208,1794.5352802998386,1797.0185497000348,1797.018753199838,None,1.0,,,,,,,,,,,,,,,,,,,,,,,,,,,,,,,,,,,,,,,,,,nback74,1.0,2024-01-30_10h21.03.132,untitled,2023.2.3,59.94082641218299,2024-01-30 10h45.14.521678 -0500,
11.0,"[-0.64, -0.4]",space,0.0,26.0,26.0,26.0,,,,,,,,,1797.035061799921,,,,,,,,,,,,,,,,,,,,,,,,,,,,1797.0195184999611,1797.035061799921,1797.035061799921,1797.5183746998664,1797.5349801999982,1800.0182230998762,1800.0183751999866,space,1.0,0.352522199973464,None,,,,,,,,,,,,,,,,,,,,,,,,,,,,,,,,,,,,,,,,nback74,1.0,2024-01-30_10h21.03.132,untitled,2023.2.3,59.94082641218299,2024-01-30 10h45.14.521678 -0500,
1.0,"[-0.64, 0.4]",None,0.0,27.0,27.0,27.0,,,,,,,,,1800.0351038998924,,,,,,,,,,,,,,,,,,,,,,,,,,,,1800.0190898999572,1800.0351038998924,1800.0351038998924,1800.518335300032,1800.5349191999994,1803.0182986999864,1803.0184885999188,None,1.0,,,,,,,,,,,,,,,,,,,,,,,,,,,,,,,,,,,,,,,,,,nback74,1.0,2024-01-30_10h21.03.132,untitled,2023.2.3,59.94082641218299,2024-01-30 10h45.14.521678 -0500,
3.0,"[0, 0.2]",None,0.0,28.0,28.0,28.0,,,,,,,,,1803.034991899971,,,,,,,,,,,,,,,,,,,,,,,,,,,,1803.019238699926,1803.034991899971,1803.034991899971,1803.5182998999956,1803.534924000036,1806.0181018000003,1806.0182510998568,None,1.0,,,,,,,,,,,,,,,,,,,,,,,,,,,,,,,,,,,,,,,,,,nback74,1.0,2024-01-30_10h21.03.132,untitled,2023.2.3,59.94082641218299,2024-01-30 10h45.14.521678 -0500,
9.0,"[0.2, -0.1]",None,0.0,29.0,29.0,29.0,,,,,,,,,1806.03498389991,,,,,,,,,,,,,,,,,,,,,,,,,,,,1806.018818699988,1806.03498389991,1806.03498389991,1806.5184972998688,1806.5348292000128,1809.0184247000143,1809.0186387998983,None,1.0,,,,,,,,,,,,,,,,,,,,,,,,,,,,,,,,,,,,,,,,,,nback74,1.0,2024-01-30_10h21.03.132,untitled,2023.2.3,59.94082641218299,2024-01-30 10h45.14.521678 -0500,
8.0,"[-0.2, -0.1]",None,0.0,30.0,30.0,30.0,,,,,,,,,1809.034970799927,,,,,,,,,,,,,,,,,,,,,,,,,,,,1809.0194774998815,1809.034970799927,1809.034970799927,1809.5182111000177,1809.5349343998823,1812.0181440999727,1812.0183375000488,None,1.0,,,,,,,,,,,,,,,,,,,,,,,,,,,,,,,,,,,,,,,,,,nback74,1.0,2024-01-30_10h21.03.132,untitled,2023.2.3,59.94082641218299,2024-01-30 10h45.14.521678 -0500,
12.0,"[0.64, -0.4]",None,0.0,31.0,31.0,31.0,,,,,,,,,1812.034998399904,,,,,,,,,,,,,,,,,,,,,,,,,,,,1812.019186699996,1812.034998399904,1812.034998399904,1812.5181700999383,1812.534883999964,1815.018196299905,1815.0184108999088,None,1.0,,,,,,,,,,,,,,,,,,,,,,,,,,,,,,,,,,,,,,,,,,nback74,1.0,2024-01-30_10h21.03.132,untitled,2023.2.3,59.94082641218299,2024-01-30 10h45.14.521678 -0500,
9.0,"[0.2, -0.1]",None,0.0,32.0,32.0,32.0,,,,,,,,,1815.0348954999356,,,,,,,,,,,,,,,,,,,,,,,,,,,,1815.0192590998488,1815.0348954999356,1815.0348954999356,1815.5179884999525,1815.5347481998613,1818.0179995999208,1818.0181865999475,None,1.0,,,,,,,,,,,,,,,,,,,,,,,,,,,,,,,,,,,,,,,,,,nback74,1.0,2024-01-30_10h21.03.132,untitled,2023.2.3,59.94082641218299,2024-01-30 10h45.14.521678 -0500,
11.0,"[-0.64, -0.4]",space,0.0,33.0,33.0,33.0,,,,,,,,,1818.034859499894,,,,,,,,,,,,,,,,,,,,,,,,,,,,1818.019007999916,1818.034859499894,1818.034859499894,1818.517888800008,1818.534590399824,1821.018194000004,1821.0183838999365,space,1.0,0.3801884001586586,None,,,,,,,,,,,,,,,,,,,,,,,,,,,,,,,,,,,,,,,,nback74,1.0,2024-01-30_10h21.03.132,untitled,2023.2.3,59.94082641218299,2024-01-30 10h45.14.521678 -0500,
7.0,"[0.3, 0]",None,0.0,34.0,34.0,34.0,,,,,,,,,1821.0347992999011,,,,,,,,,,,,,,,,,,,,,,,,,,,,1821.0192402999385,1821.0347992999011,1821.0347992999011,1821.5180623000488,1821.534478199901,1824.0179743999613,1824.0181716999505,None,1.0,,,,,,,,,,,,,,,,,,,,,,,,,,,,,,,,,,,,,,,,,,nback74,1.0,2024-01-30_10h21.03.132,untitled,2023.2.3,59.94082641218299,2024-01-30 10h45.14.521678 -0500,
11.0,"[-0.64, -0.4]",space,0.0,35.0,35.0,35.0,,,,,,,,,1824.034746099962,,,,,,,,,,,,,,,,,,,,,,,,,,,,1824.0189950999336,1824.034746099962,1824.034746099962,1824.517854299862,1824.5343532999975,1827.0179021998772,1827.0180877000091,space,1.0,0.4039960000663996,None,,,,,,,,,,,,,,,,,,,,,,,,,,,,,,,,,,,,,,,,nback74,1.0,2024-01-30_10h21.03.132,untitled,2023.2.3,59.94082641218299,2024-01-30 10h45.14.521678 -0500,
4.0,"[-0.2, 0.1]",None,0.0,36.0,36.0,36.0,,,,,,,,,1827.0345931998452,,,,,,,,,,,,,,,,,,,,,,,,,,,,1827.018894799985,1827.0345931998452,1827.0345931998452,1827.5181316998787,1827.5345898999367,1830.0178831999656,1830.018092799932,None,1.0,,,,,,,,,,,,,,,,,,,,,,,,,,,,,,,,,,,,,,,,,,nback74,1.0,2024-01-30_10h21.03.132,untitled,2023.2.3,59.94082641218299,2024-01-30 10h45.14.521678 -0500,
5.0,"[0.2, 0.1]",None,0.0,37.0,37.0,37.0,,,,,,,,,1830.0346494000405,,,,,,,,,,,,,,,,,,,,,,,,,,,,1830.0189624999184,1830.0346494000405,1830.0346494000405,1830.517697099829,1830.53440899984,1833.0178528998515,1833.0180607000368,None,1.0,,,,,,,,,,,,,,,,,,,,,,,,,,,,,,,,,,,,,,,,,,nback74,1.0,2024-01-30_10h21.03.132,untitled,2023.2.3,59.94082641218299,2024-01-30 10h45.14.521678 -0500,
6.0,"[-0.3, 0]",None,0.0,38.0,38.0,38.0,,,,,,,,,1833.0345165999609,,,,,,,,,,,,,,,,,,,,,,,,,,,,1833.0189212998373,1833.0345165999609,1833.0345165999609,1833.5178004000336,1833.5346784999128,1836.0178236998615,1836.01800429984,None,1.0,,,,,,,,,,,,,,,,,,,,,,,,,,,,,,,,,,,,,,,,,,nback74,1.0,2024-01-30_10h21.03.132,untitled,2023.2.3,59.94082641218299,2024-01-30 10h45.14.521678 -0500,
11.0,"[-0.64, -0.4]",space,0.0,39.0,39.0,39.0,,,,,,,,,1836.0345085999,,,,,,,,,,,,,,,,,,,,,,,,,,,,1836.0186766998377,1836.0345085999,1836.0345085999,1836.5178345998283,1836.534531999845,1839.017632500036,1839.0178034999408,space,1.0,0.3378407000564039,None,,,,,,,,,,,,,,,,,,,,,,,,,,,,,,,,,,,,,,,,nback74,1.0,2024-01-30_10h21.03.132,untitled,2023.2.3,59.94082641218299,2024-01-30 10h45.14.521678 -0500,
,,,,,,,,,,,,,,,,,,,,,,,,,,,,,,,,,,,,,,,,,,,,,,,,,,,,,,1839.0184098000173,1839.0345200998709,1839.0345200998709,1852.3023961000144,space,13.26368819992058,None,,,,,,,,,,,,,,,,,,,,,,,,,,,,,,,,,nback74,1.0,2024-01-30_10h21.03.132,untitled,2023.2.3,59.94082641218299,2024-01-30 10h45.14.521678 -0500,
10.0,"[0, -0.2]",None,,,,,0.0,0.0,0.0,0.0,,,,,1853.3194961999543,,,,,,,,,,,,,,,,,,,,,,,,1852.3024315999355,1852.3172297999265,1853.3194961999543,1853.3015441000464,,,,,,,,,,,,,,,,,,,1853.31756139989,1853.3194961999543,1853.3194961999543,1853.8173529000487,1853.8340461000332,1856.3172551000025,1856.3174164998345,None,1.0,,,,,,,,,,,,,,,,,,,,,,,,nback74,1.0,2024-01-30_10h21.03.132,untitled,2023.2.3,59.94082641218299,2024-01-30 10h45.14.521678 -0500,
5.0,"[0.2, 0.1]",None,,,,,0.0,1.0,1.0,1.0,,,,,1856.3339062999005,,,,,,,,,,,,,,,,,,,,,,,,,,,,,,,,,,,,,,,,,,,,,,1856.3181761000303,1856.3339062999005,1856.3339062999005,1856.8174822998697,1856.8340155999176,1859.3171786998864,1859.3173813999165,None,1.0,,,,,,,,,,,,,,,,,,,,,,,,nback74,1.0,2024-01-30_10h21.03.132,untitled,2023.2.3,59.94082641218299,2024-01-30 10h45.14.521678 -0500,
6.0,"[-0.3, 0]",None,,,,,0.0,2.0,2.0,2.0,,,,,1859.3340274000077,,,,,,,,,,,,,,,,,,,,,,,,,,,,,,,,,,,,,,,,,,,,,,1859.318166699959,1859.3340274000077,1859.3340274000077,1859.817502500024,1859.834040799877,1862.317224799888,1862.3173978000411,None,1.0,,,,,,,,,,,,,,,,,,,,,,,,nback74,1.0,2024-01-30_10h21.03.132,untitled,2023.2.3,59.94082641218299,2024-01-30 10h45.14.521678 -0500,
6.0,"[-0.3, 0]",space,,,,,0.0,3.0,3.0,3.0,,,,,1862.333946299972,,,,,,,,,,,,,,,,,,,,,,,,,,,,,,,,,,,,,,,,,,,,,,1862.318060999969,1862.333946299972,1862.333946299972,1862.817208299879,1862.83399059996,1865.3174117000308,1865.317611800041,None,0.0,,,,,,,,,,,,,,,,,,,,,,,,nback74,1.0,2024-01-30_10h21.03.132,untitled,2023.2.3,59.94082641218299,2024-01-30 10h45.14.521678 -0500,
12.0,"[0.64, -0.4]",None,,,,,0.0,4.0,4.0,4.0,,,,,1865.3340062999632,,,,,,,,,,,,,,,,,,,,,,,,,,,,,,,,,,,,,,,,,,,,,,1865.3184423998464,1865.3340062999632,1865.3340062999632,1865.8173873999624,1865.8340994999744,1868.317374099977,1868.317591900006,None,1.0,,,,,,,,,,,,,,,,,,,,,,,,nback74,1.0,2024-01-30_10h21.03.132,untitled,2023.2.3,59.94082641218299,2024-01-30 10h45.14.521678 -0500,
10.0,"[0, -0.2]",None,,,,,0.0,5.0,5.0,5.0,,,,,1868.333948899992,,,,,,,,,,,,,,,,,,,,,,,,,,,,,,,,,,,,,,,,,,,,,,1868.318363499828,1868.333948899992,1868.333948899992,1868.817118299892,1868.833860799903,1871.3172712000087,1871.3174995000008,None,1.0,,,,,,,,,,,,,,,,,,,,,,,,nback74,1.0,2024-01-30_10h21.03.132,untitled,2023.2.3,59.94082641218299,2024-01-30 10h45.14.521678 -0500,
2.0,"[0.64, 0.4]",None,,,,,0.0,6.0,6.0,6.0,,,,,1871.333716999972,,,,,,,,,,,,,,,,,,,,,,,,,,,,,,,,,,,,,,,,,,,,,,1871.3184374999253,1871.333716999972,1871.333716999972,1871.8172389999963,1871.833872099873,1874.317130399868,1874.3173318000045,None,1.0,,,,,,,,,,,,,,,,,,,,,,,,nback74,1.0,2024-01-30_10h21.03.132,untitled,2023.2.3,59.94082641218299,2024-01-30 10h45.14.521678 -0500,
9.0,"[0.2, -0.1]",None,,,,,0.0,7.0,7.0,7.0,,,,,1874.333927899832,,,,,,,,,,,,,,,,,,,,,,,,,,,,,,,,,,,,,,,,,,,,,,1874.318095399998,1874.333927899832,1874.333927899832,1874.817144099856,1874.833800100023,1877.317078100052,1877.3172760000448,space,0.0,0.4364261000882834,None,,,,,,,,,,,,,,,,,,,,,,nback74,1.0,2024-01-30_10h21.03.132,untitled,2023.2.3,59.94082641218299,2024-01-30 10h45.14.521678 -0500,
9.0,"[0.2, -0.1]",space,,,,,0.0,8.0,8.0,8.0,,,,,1877.3339253999293,,,,,,,,,,,,,,,,,,,,,,,,,,,,,,,,,,,,,,,,,,,,,,1877.3184537999327,1877.3339253999293,1877.3339253999293,1877.817081899848,1877.833808899857,1880.317111699842,1880.317328199977,None,0.0,,,,,,,,,,,,,,,,,,,,,,,,nback74,1.0,2024-01-30_10h21.03.132,untitled,2023.2.3,59.94082641218299,2024-01-30 10h45.14.521678 -0500,
6.0,"[-0.3, 0]",None,,,,,0.0,9.0,9.0,9.0,,,,,1880.333672299981,,,,,,,,,,,,,,,,,,,,,,,,,,,,,,,,,,,,,,,,,,,,,,1880.3181779999288,1880.333672299981,1880.333672299981,1880.817111399956,1880.833581399871,1883.316894100048,1883.3171047000212,space,0.0,0.5208239001221955,None,,,,,,,,,,,,,,,,,,,,,,nback74,1.0,2024-01-30_10h21.03.132,untitled,2023.2.3,59.94082641218299,2024-01-30 10h45.14.521678 -0500,
11.0,"[-0.64, -0.4]",None,,,,,0.0,10.0,10.0,10.0,,,,,1883.3335789998528,,,,,,,,,,,,,,,,,,,,,,,,,,,,,,,,,,,,,,,,,,,,,,1883.318129200023,1883.3335789998528,1883.3335789998528,1883.8167036999948,1883.8335078998932,1886.317002999829,1886.3172150999308,None,1.0,,,,,,,,,,,,,,,,,,,,,,,,nback74,1.0,2024-01-30_10h21.03.132,untitled,2023.2.3,59.94082641218299,2024-01-30 10h45.14.521678 -0500,
11.0,"[-0.64, -0.4]",space,,,,,0.0,11.0,11.0,11.0,,,,,1886.3336006999016,,,,,,,,,,,,,,,,,,,,,,,,,,,,,,,,,,,,,,,,,,,,,,1886.3180320998651,1886.3336006999016,1886.3336006999016,1886.816727599828,1886.833459199872,1889.3164973999371,1889.3166350000536,space,1.0,0.6397820999845862,None,,,,,,,,,,,,,,,,,,,,,,nback74,1.0,2024-01-30_10h21.03.132,untitled,2023.2.3,59.94082641218299,2024-01-30 10h45.14.521678 -0500,
4.0,"[-0.2, 0.1]",None,,,,,0.0,12.0,12.0,12.0,,,,,1889.333155500004,,,,,,,,,,,,,,,,,,,,,,,,,,,,,,,,,,,,,,,,,,,,,,1889.3172656998504,1889.333155500004,1889.333155500004,1889.8166218998376,1889.8332974000368,1892.3166232998483,1892.3167659000028,space,0.0,0.433885799953714,None,,,,,,,,,,,,,,,,,,,,,,nback74,1.0,2024-01-30_10h21.03.132,untitled,2023.2.3,59.94082641218299,2024-01-30 10h45.14.521678 -0500,
3.0,"[0, 0.2]",None,,,,,0.0,13.0,13.0,13.0,,,,,1892.3334520000496,,,,,,,,,,,,,,,,,,,,,,,,,,,,,,,,,,,,,,,,,,,,,,1892.317338899942,1892.3334520000496,1892.3334520000496,1892.8164663000496,1892.8334431999829,1895.3166664999444,1895.31678740005,None,1.0,,,,,,,,,,,,,,,,,,,,,,,,nback74,1.0,2024-01-30_10h21.03.132,untitled,2023.2.3,59.94082641218299,2024-01-30 10h45.14.521678 -0500,
3.0,"[0, 0.2]",space,,,,,0.0,14.0,14.0,14.0,,,,,1895.333158100024,,,,,,,,,,,,,,,,,,,,,,,,,,,,,,,,,,,,,,,,,,,,,,1895.3172611999323,1895.333158100024,1895.333158100024,1895.8165650998708,1895.8331820999736,1898.3167286999524,1898.3169290998485,space,1.0,0.6643145999405533,None,,,,,,,,,,,,,,,,,,,,,,nback74,1.0,2024-01-30_10h21.03.132,untitled,2023.2.3,59.94082641218299,2024-01-30 10h45.14.521678 -0500,
8.0,"[-0.2, -0.1]",None,,,,,0.0,15.0,15.0,15.0,,,,,1898.3337212998888,,,,,,,,,,,,,,,,,,,,,,,,,,,,,,,,,,,,,,,,,,,,,,1898.317433499964,1898.3337212998888,1898.3337212998888,1898.8168402998708,1898.83316239994,1901.316803699825,1901.3169729998333,space,0.0,0.4665403000544756,None,,,,,,,,,,,,,,,,,,,,,,nback74,1.0,2024-01-30_10h21.03.132,untitled,2023.2.3,59.94082641218299,2024-01-30 10h45.14.521678 -0500,
1.0,"[-0.64, 0.4]",None,,,,,0.0,16.0,16.0,16.0,,,,,1901.3332048999143,,,,,,,,,,,,,,,,,,,,,,,,,,,,,,,,,,,,,,,,,,,,,,1901.317766299937,1901.3332048999143,1901.3332048999143,1901.8165827998887,1901.8331663999709,1904.316465500044,1904.3166344000488,None,1.0,,,,,,,,,,,,,,,,,,,,,,,,nback74,1.0,2024-01-30_10h21.03.132,untitled,2023.2.3,59.94082641218299,2024-01-30 10h45.14.521678 -0500,
2.0,"[0.64, 0.4]",None,,,,,0.0,17.0,17.0,17.0,,,,,1904.333186599892,,,,,,,,,,,,,,,,,,,,,,,,,,,,,,,,,,,,,,,,,,,,,,1904.317467099987,1904.333186599892,1904.333186599892,1904.816633099923,1904.833018299891,1907.3164617998991,1907.3166355998253,space,0.0,0.4311675999779254,None,,,,,,,,,,,,,,,,,,,,,,nback74,1.0,2024-01-30_10h21.03.132,untitled,2023.2.3,59.94082641218299,2024-01-30 10h45.14.521678 -0500,
4.0,"[-0.2, 0.1]",None,,,,,0.0,18.0,18.0,18.0,,,,,1907.333254299825,,,,,,,,,,,,,,,,,,,,,,,,,,,,,,,,,,,,,,,,,,,,,,1907.3176196999848,1907.333254299825,1907.333254299825,1907.816532799974,1907.833018499892,1910.3164623000196,1910.3166739000008,space,0.0,0.6950143999420106,None,,,,,,,,,,,,,,,,,,,,,,nback74,1.0,2024-01-30_10h21.03.132,untitled,2023.2.3,59.94082641218299,2024-01-30 10h45.14.521678 -0500,
4.0,"[-0.2, 0.1]",space,,,,,0.0,19.0,19.0,19.0,,,,,1910.333001199877,,,,,,,,,,,,,,,,,,,,,,,,,,,,,,,,,,,,,,,,,,,,,,1910.317623100011,1910.333001199877,1910.333001199877,1910.816457199864,1910.8329165999312,1913.3162858998403,1913.316466599936,space,1.0,0.6109042000025511,None,,,,,,,,,,,,,,,,,,,,,,nback74,1.0,2024-01-30_10h21.03.132,untitled,2023.2.3,59.94082641218299,2024-01-30 10h45.14.521678 -0500,
8.0,"[-0.2, -0.1]",None,,,,,0.0,20.0,20.0,20.0,,,,,1913.333043299848,,,,,,,,,,,,,,,,,,,,,,,,,,,,,,,,,,,,,,,,,,,,,,1913.3174105000217,1913.333043299848,1913.333043299848,1913.8161459998228,1913.8329290000256,1916.3162662000395,1916.3164301998916,space,0.0,0.5745784000027925,None,,,,,,,,,,,,,,,,,,,,,,nback74,1.0,2024-01-30_10h21.03.132,untitled,2023.2.3,59.94082641218299,2024-01-30 10h45.14.521678 -0500,
5.0,"[0.2, 0.1]",None,,,,,0.0,21.0,21.0,21.0,,,,,1916.333089799853,,,,,,,,,,,,,,,,,,,,,,,,,,,,,,,,,,,,,,,,,,,,,,1916.3171975000296,1916.333089799853,1916.333089799853,1916.816415699897,1916.8330353999045,1919.316315799952,1919.3164639000315,None,1.0,,,,,,,,,,,,,,,,,,,,,,,,nback74,1.0,2024-01-30_10h21.03.132,untitled,2023.2.3,59.94082641218299,2024-01-30 10h45.14.521678 -0500,
5.0,"[0.2, 0.1]",space,,,,,0.0,22.0,22.0,22.0,,,,,1919.332850900013,,,,,,,,,,,,,,,,,,,,,,,,,,,,,,,,,,,,,,,,,,,,,,1919.31701969984,1919.332850900013,1919.332850900013,1919.81616659998,1919.8328318998683,1922.316385400016,1922.3165797998663,space,1.0,0.6618680998217314,None,,,,,,,,,,,,,,,,,,,,,,nback74,1.0,2024-01-30_10h21.03.132,untitled,2023.2.3,59.94082641218299,2024-01-30 10h45.14.521678 -0500,
1.0,"[-0.64, 0.4]",None,,,,,0.0,23.0,23.0,23.0,,,,,1922.33293569996,,,,,,,,,,,,,,,,,,,,,,,,,,,,,,,,,,,,,,,,,,,,,,1922.31747879996,1922.33293569996,1922.33293569996,1922.816226299852,1922.83276010002,1925.3161289000416,1925.316309900023,space,0.0,0.335498500149697,None,,,,,,,,,,,,,,,,,,,,,,nback74,1.0,2024-01-30_10h21.03.132,untitled,2023.2.3,59.94082641218299,2024-01-30 10h45.14.521678 -0500,
3.0,"[0, 0.2]",None,,,,,0.0,24.0,24.0,24.0,,,,,1925.3329264000056,,,,,,,,,,,,,,,,,,,,,,,,,,,,,,,,,,,,,,,,,,,,,,1925.317160599865,1925.3329264000056,1925.3329264000056,1925.8160551998296,1925.832803800004,1928.316416800022,1928.316595199984,None,1.0,,,,,,,,,,,,,,,,,,,,,,,,nback74,1.0,2024-01-30_10h21.03.132,untitled,2023.2.3,59.94082641218299,2024-01-30 10h45.14.521678 -0500,
6.0,"[-0.3, 0]",None,,,,,0.0,25.0,25.0,25.0,,,,,1928.333500499837,,,,,,,,,,,,,,,,,,,,,,,,,,,,,,,,,,,,,,,,,,,,,,1928.3172766999344,1928.333500499837,1928.333500499837,1928.815998799866,1928.8327346998267,1931.3159829999784,1931.3161967999768,space,0.0,0.4995975999627262,None,,,,,,,,,,,,,,,,,,,,,,nback74,1.0,2024-01-30_10h21.03.132,untitled,2023.2.3,59.94082641218299,2024-01-30 10h45.14.521678 -0500,
1.0,"[-0.64, 0.4]",None,,,,,0.0,26.0,26.0,26.0,,,,,1931.3327422,,,,,,,,,,,,,,,,,,,,,,,,,,,,,,,,,,,,,,,,,,,,,,1931.3171538999304,1931.3327422,1931.3327422,1931.81590759987,1931.832919599954,1934.3159882000184,1934.3161519998685,space,0.0,0.4487395000178367,None,,,,,,,,,,,,,,,,,,,,,,nback74,1.0,2024-01-30_10h21.03.132,untitled,2023.2.3,59.94082641218299,2024-01-30 10h45.14.521678 -0500,
1.0,"[-0.64, 0.4]",space,,,,,0.0,27.0,27.0,27.0,,,,,1934.3327108998783,,,,,,,,,,,,,,,,,,,,,,,,,,,,,,,,,,,,,,,,,,,,,,1934.3169177998789,1934.3327108998783,1934.3327108998783,1934.8158912998624,1934.8328463998623,1937.3158851999324,1937.3160677000412,space,1.0,0.3422966001089662,None,,,,,,,,,,,,,,,,,,,,,,nback74,1.0,2024-01-30_10h21.03.132,untitled,2023.2.3,59.94082641218299,2024-01-30 10h45.14.521678 -0500,
1.0,"[-0.64, 0.4]",space,,,,,0.0,28.0,28.0,28.0,,,,,1937.3325964999383,,,,,,,,,,,,,,,,,,,,,,,,,,,,,,,,,,,,,,,,,,,,,,1937.3167985000184,1937.3325964999383,1937.3325964999383,1937.8160228000488,1937.8328205998987,1940.3158463998695,1940.3159592000304,space,1.0,0.4689549000468105,None,,,,,,,,,,,,,,,,,,,,,,nback74,1.0,2024-01-30_10h21.03.132,untitled,2023.2.3,59.94082641218299,2024-01-30 10h45.14.521678 -0500,
3.0,"[0, 0.2]",None,,,,,0.0,29.0,29.0,29.0,,,,,1940.3324197998736,,,,,,,,,,,,,,,,,,,,,,,,,,,,,,,,,,,,,,,,,,,,,,1940.316393899964,1940.3324197998736,1940.3324197998736,1940.815908199875,1940.832543599885,1943.3159419998992,1943.3161303000525,space,0.0,0.4324193999636918,None,,,,,,,,,,,,,,,,,,,,,,nback74,1.0,2024-01-30_10h21.03.132,untitled,2023.2.3,59.94082641218299,2024-01-30 10h45.14.521678 -0500,
12.0,"[0.64, -0.4]",None,,,,,0.0,30.0,30.0,30.0,,,,,1943.332607700024,,,,,,,,,,,,,,,,,,,,,,,,,,,,,,,,,,,,,,,,,,,,,,1943.3170139000283,1943.332607700024,1943.332607700024,1943.8157871998849,1943.8327104998752,1946.315734699834,1946.3159822998568,None,1.0,,,,,,,,,,,,,,,,,,,,,,,,nback74,1.0,2024-01-30_10h21.03.132,untitled,2023.2.3,59.94082641218299,2024-01-30 10h45.14.521678 -0500,
12.0,"[0.64, -0.4]",space,,,,,0.0,31.0,31.0,31.0,,,,,1946.3325838998423,,,,,,,,,,,,,,,,,,,,,,,,,,,,,,,,,,,,,,,,,,,,,,1946.316894999938,1946.3325838998423,1946.3325838998423,1946.81604039995,1946.8325161000248,1949.315836600028,1949.316018299898,space,1.0,0.3209355999715626,None,,,,,,,,,,,,,,,,,,,,,,nback74,1.0,2024-01-30_10h21.03.132,untitled,2023.2.3,59.94082641218299,2024-01-30 10h45.14.521678 -0500,
2.0,"[0.64, 0.4]",None,,,,,0.0,32.0,32.0,32.0,,,,,1949.3323116998652,,,,,,,,,,,,,,,,,,,,,,,,,,,,,,,,,,,,,,,,,,,,,,1949.3168698998636,1949.3323116998652,1949.3323116998652,1949.8158686999232,1949.8324076000133,1952.3154340998733,1952.315521399956,None,1.0,,,,,,,,,,,,,,,,,,,,,,,,nback74,1.0,2024-01-30_10h21.03.132,untitled,2023.2.3,59.94082641218299,2024-01-30 10h45.14.521678 -0500,
1.0,"[-0.64, 0.4]",None,,,,,0.0,33.0,33.0,33.0,,,,,1952.332061199937,,,,,,,,,,,,,,,,,,,,,,,,,,,,,,,,,,,,,,,,,,,,,,1952.315997299971,1952.332061199937,1952.332061199937,1952.8155653998256,1952.8322758998256,1955.3154175998643,1955.315581499832,space,0.0,0.6145675999578089,None,,,,,,,,,,,,,,,,,,,,,,nback74,1.0,2024-01-30_10h21.03.132,untitled,2023.2.3,59.94082641218299,2024-01-30 10h45.14.521678 -0500,
7.0,"[0.3, 0]",None,,,,,0.0,34.0,34.0,34.0,,,,,1955.332358499989,,,,,,,,,,,,,,,,,,,,,,,,,,,,,,,,,,,,,,,,,,,,,,1955.3164625000209,1955.332358499989,1955.332358499989,1955.8155435998924,1955.8322831999976,1958.315559499897,1958.3157249998767,None,1.0,,,,,,,,,,,,,,,,,,,,,,,,nback74,1.0,2024-01-30_10h21.03.132,untitled,2023.2.3,59.94082641218299,2024-01-30 10h45.14.521678 -0500,
7.0,"[0.3, 0]",space,,,,,0.0,35.0,35.0,35.0,,,,,1958.3322276999245,,,,,,,,,,,,,,,,,,,,,,,,,,,,,,,,,,,,,,,,,,,,,,1958.3163598000535,1958.3322276999245,1958.3322276999245,1958.81562629994,1958.8321128999812,1961.3155952000525,1961.3157528999727,space,1.0,0.5247236001305282,None,,,,,,,,,,,,,,,,,,,,,,nback74,1.0,2024-01-30_10h21.03.132,untitled,2023.2.3,59.94082641218299,2024-01-30 10h45.14.521678 -0500,
11.0,"[-0.64, -0.4]",None,,,,,0.0,36.0,36.0,36.0,,,,,1961.3323506999293,,,,,,,,,,,,,,,,,,,,,,,,,,,,,,,,,,,,,,,,,,,,,,1961.3165156999603,1961.3323506999293,1961.3323506999293,1961.8155755999032,1961.832168799825,1964.3155237999745,1964.315740399994,space,0.0,0.6149371999781579,None,,,,,,,,,,,,,,,,,,,,,,nback74,1.0,2024-01-30_10h21.03.132,untitled,2023.2.3,59.94082641218299,2024-01-30 10h45.14.521678 -0500,
2.0,"[0.64, 0.4]",None,,,,,0.0,37.0,37.0,37.0,,,,,1964.3321189999117,,,,,,,,,,,,,,,,,,,,,,,,,,,,,,,,,,,,,,,,,,,,,,1964.316754899919,1964.3321189999117,1964.3321189999117,1964.8155404999848,1964.8319937998892,1967.3154755998405,1967.3156836000271,space,0.0,0.508832500083372,None,,,,,,,,,,,,,,,,,,,,,,nback74,1.0,2024-01-30_10h21.03.132,untitled,2023.2.3,59.94082641218299,2024-01-30 10h45.14.521678 -0500,
6.0,"[-0.3, 0]",None,,,,,0.0,38.0,38.0,38.0,,,,,1967.3321795999072,,,,,,,,,,,,,,,,,,,,,,,,,,,,,,,,,,,,,,,,,,,,,,1967.3166217999533,1967.3321795999072,1967.3321795999072,1967.8154154999647,1967.83229749999,1970.3155657998288,1970.315790799912,None,1.0,,,,,,,,,,,,,,,,,,,,,,,,nback74,1.0,2024-01-30_10h21.03.132,untitled,2023.2.3,59.94082641218299,2024-01-30 10h45.14.521678 -0500,
10.0,"[0, -0.2]",None,,,,,0.0,39.0,39.0,39.0,,,,,1970.3321876998525,,,,,,,,,,,,,,,,,,,,,,,,,,,,,,,,,,,,,,,,,,,,,,1970.3166443998923,1970.3321876998525,1970.3321876998525,1970.8153609000144,1970.831968100043,1973.315466400003,1973.3156848999208,space,0.0,0.4829228001181036,None,,,,,,,,,,,,,,,,,,,,,,nback74,1.0,2024-01-30_10h21.03.132,untitled,2023.2.3,59.94082641218299,2024-01-30 10h45.14.521678 -0500,
,,,,,,,,,,,,,,,,,,,,,,,,,,,,,,,,,,,,,,,,,,,,,,,,,,,,,,,,,,,,,,,,,,,,,,,,1973.3164756998883,1973.3320855000056,1973.3320855000056,2039.082228000043,space,65.74348230008036,None,,,,,,,,,,,,,,,nback74,1.0,2024-01-30_10h21.03.132,untitled,2023.2.3,59.94082641218299,2024-01-30 10h45.14.521678 -0500,
,"[0.2, 0.1]",None,,,,,,,,,0.0,0.0,0.0,0.0,2040.098699799972,,,,,,,,,,,,,,,,,,,,,,,,2039.0822648999747,2039.0972761998416,2040.098699799972,2040.0818667998535,,,,,,,,,,,,,,,,,,,,,,,,,,,,,,,,,,,,,2040.096758199856,2040.098699799972,2040.098699799972,2040.5974892999511,2040.6141516999344,2043.097427399829,2043.0976103998253,None,1.0,,,,,,nback74,1.0,2024-01-30_10h21.03.132,untitled,2023.2.3,59.94082641218299,2024-01-30 10h45.14.521678 -0500,
,"[0.64, 0.4]",None,,,,,,,,,0.0,1.0,1.0,1.0,2043.114055099897,,,,,,,,,,,,,,,,,,,,,,,,,,,,,,,,,,,,,,,,,,,,,,,,,,,,,,,,,,,,,,,,2043.09849949996,2043.114055099897,2043.114055099897,2043.5975401999892,2043.6142674,2046.0973562998695,2046.097519399831,None,1.0,,,,,,nback74,1.0,2024-01-30_10h21.03.132,untitled,2023.2.3,59.94082641218299,2024-01-30 10h45.14.521678 -0500,
,"[-0.3, 0]",None,,,,,,,,,0.0,2.0,2.0,2.0,2046.1139815000352,,,,,,,,,,,,,,,,,,,,,,,,,,,,,,,,,,,,,,,,,,,,,,,,,,,,,,,,,,,,,,,,2046.0981309998317,2046.1139815000352,2046.1139815000352,2046.5973912999036,2046.613874099916,2049.0974893998355,2049.097690699855,None,1.0,,,,,,nback74,1.0,2024-01-30_10h21.03.132,untitled,2023.2.3,59.94082641218299,2024-01-30 10h45.14.521678 -0500,
,"[0.2, -0.1]",None,,,,,,,,,0.0,3.0,3.0,3.0,2049.1140751000494,,,,,,,,,,,,,,,,,,,,,,,,,,,,,,,,,,,,,,,,,,,,,,,,,,,,,,,,,,,,,,,,2049.098515299848,2049.1140751000494,2049.1140751000494,2049.597293299856,2049.614031799836,2052.0973002000246,2052.097504699836,None,1.0,,,,,,nback74,1.0,2024-01-30_10h21.03.132,untitled,2023.2.3,59.94082641218299,2024-01-30 10h45.14.521678 -0500,
,"[0, 0.2]",None,,,,,,,,,0.0,4.0,4.0,4.0,2052.1140095999,,,,,,,,,,,,,,,,,,,,,,,,,,,,,,,,,,,,,,,,,,,,,,,,,,,,,,,,,,,,,,,,2052.098315899959,2052.1140095999,2052.1140095999,2052.5972137998324,2052.6140070999973,2055.097107099835,2055.0972954998724,None,1.0,,,,,,nback74,1.0,2024-01-30_10h21.03.132,untitled,2023.2.3,59.94082641218299,2024-01-30 10h45.14.521678 -0500,
,"[0.2, -0.1]",space,,,,,,,,,0.0,5.0,5.0,5.0,2055.1138094000053,,,,,,,,,,,,,,,,,,,,,,,,,,,,,,,,,,,,,,,,,,,,,,,,,,,,,,,,,,,,,,,,2055.098041599849,2055.1138094000053,2055.1138094000053,2055.597079699859,2055.6140766998287,2058.0971655000467,2058.097367499955,space,1.0,0.3144022000487894,None,,,,nback74,1.0,2024-01-30_10h21.03.132,untitled,2023.2.3,59.94082641218299,2024-01-30 10h45.14.521678 -0500,
,"[0, -0.2]",None,,,,,,,,,0.0,6.0,6.0,6.0,2058.113808599999,,,,,,,,,,,,,,,,,,,,,,,,,,,,,,,,,,,,,,,,,,,,,,,,,,,,,,,,,,,,,,,,2058.098568599904,2058.113808599999,2058.113808599999,2058.5971844999585,2058.613968299934,2061.097051399993,2061.0972402000334,None,1.0,,,,,,nback74,1.0,2024-01-30_10h21.03.132,untitled,2023.2.3,59.94082641218299,2024-01-30 10h45.14.521678 -0500,
,"[0.64, -0.4]",None,,,,,,,,,0.0,7.0,7.0,7.0,2061.113844699925,,,,,,,,,,,,,,,,,,,,,,,,,,,,,,,,,,,,,,,,,,,,,,,,,,,,,,,,,,,,,,,,2061.0979913999327,2061.113844699925,2061.113844699925,2061.59700910002,2061.613801299827,2064.097080799984,2064.0972569999285,None,1.0,,,,,,nback74,1.0,2024-01-30_10h21.03.132,untitled,2023.2.3,59.94082641218299,2024-01-30 10h45.14.521678 -0500,
,"[0.3, 0]",None,,,,,,,,,0.0,8.0,8.0,8.0,2064.113668099977,,,,,,,,,,,,,,,,,,,,,,,,,,,,,,,,,,,,,,,,,,,,,,,,,,,,,,,,,,,,,,,,2064.0980837000534,2064.113668099977,2064.113668099977,2064.5970482998528,2064.613681699848,2067.097025699913,2067.0972543999087,None,1.0,,,,,,nback74,1.0,2024-01-30_10h21.03.132,untitled,2023.2.3,59.94082641218299,2024-01-30 10h45.14.521678 -0500,
,"[0.64, -0.4]",space,,,,,,,,,0.0,9.0,9.0,9.0,2067.113634099951,,,,,,,,,,,,,,,,,,,,,,,,,,,,,,,,,,,,,,,,,,,,,,,,,,,,,,,,,,,,,,,,2067.0980996999424,2067.113634099951,2067.113634099951,2067.596804599976,2067.613711399957,2070.0969936999027,2070.097222100012,None,0.0,,,,,,nback74,1.0,2024-01-30_10h21.03.132,untitled,2023.2.3,59.94082641218299,2024-01-30 10h45.14.521678 -0500,
,"[-0.64, 0.4]",None,,,,,,,,,0.0,10.0,10.0,10.0,2070.113473800011,,,,,,,,,,,,,,,,,,,,,,,,,,,,,,,,,,,,,,,,,,,,,,,,,,,,,,,,,,,,,,,,2070.0979740999173,2070.113473800011,2070.113473800011,2070.596851499984,2070.613498199964,2073.096918500029,2073.097130900016,None,1.0,,,,,,nback74,1.0,2024-01-30_10h21.03.132,untitled,2023.2.3,59.94082641218299,2024-01-30 10h45.14.521678 -0500,
,"[0.2, 0.1]",None,,,,,,,,,0.0,11.0,11.0,11.0,2073.1137818999123,,,,,,,,,,,,,,,,,,,,,,,,,,,,,,,,,,,,,,,,,,,,,,,,,,,,,,,,,,,,,,,,2073.097949599847,2073.1137818999123,2073.1137818999123,2073.596907999832,2073.6136047998443,2076.096896899864,2076.097123299958,None,1.0,,,,,,nback74,1.0,2024-01-30_10h21.03.132,untitled,2023.2.3,59.94082641218299,2024-01-30 10h45.14.521678 -0500,
,"[0.3, 0]",None,,,,,,,,,0.0,12.0,12.0,12.0,2076.113521500025,,,,,,,,,,,,,,,,,,,,,,,,,,,,,,,,,,,,,,,,,,,,,,,,,,,,,,,,,,,,,,,,2076.097981999861,2076.113521500025,2076.113521500025,2076.59680379997,2076.613520799903,2079.096836599987,2079.0970137999398,None,1.0,,,,,,nback74,1.0,2024-01-30_10h21.03.132,untitled,2023.2.3,59.94082641218299,2024-01-30 10h45.14.521678 -0500,
,"[0.2, 0.1]",space,,,,,,,,,0.0,13.0,13.0,13.0,2079.11346839997,,,,,,,,,,,,,,,,,,,,,,,,,,,,,,,,,,,,,,,,,,,,,,,,,,,,,,,,,,,,,,,,2079.09768659994,2079.11346839997,2079.11346839997,2079.5968299999367,2079.6135984000284,2082.0966944999527,2082.096895799972,None,0.0,,,,,,nback74,1.0,2024-01-30_10h21.03.132,untitled,2023.2.3,59.94082641218299,2024-01-30 10h45.14.521678 -0500,
,"[-0.3, 0]",None,,,,,,,,,0.0,14.0,14.0,14.0,2082.113397799898,,,,,,,,,,,,,,,,,,,,,,,,,,,,,,,,,,,,,,,,,,,,,,,,,,,,,,,,,,,,,,,,2082.0976978999097,2082.113397799898,2082.113397799898,2082.5967963000294,2082.613572199829,2085.0967832999304,2085.097040700028,None,1.0,,,,,,nback74,1.0,2024-01-30_10h21.03.132,untitled,2023.2.3,59.94082641218299,2024-01-30 10h45.14.521678 -0500,
,"[0, 0.2]",None,,,,,,,,,0.0,15.0,15.0,15.0,2085.113210099982,,,,,,,,,,,,,,,,,,,,,,,,,,,,,,,,,,,,,,,,,,,,,,,,,,,,,,,,,,,,,,,,2085.0979004998226,2085.113210099982,2085.113210099982,2085.5964233998675,2085.613180499989,2088.096687200013,2088.096894899849,None,1.0,,,,,,nback74,1.0,2024-01-30_10h21.03.132,untitled,2023.2.3,59.94082641218299,2024-01-30 10h45.14.521678 -0500,
,"[-0.3, 0]",space,,,,,,,,,0.0,16.0,16.0,16.0,2088.113378399983,,,,,,,,,,,,,,,,,,,,,,,,,,,,,,,,,,,,,,,,,,,,,,,,,,,,,,,,,,,,,,,,2088.0977469999343,2088.113378399983,2088.113378399983,2088.596659099916,2088.613307700027,2091.096511699958,2091.096701100003,None,0.0,,,,,,nback74,1.0,2024-01-30_10h21.03.132,untitled,2023.2.3,59.94082641218299,2024-01-30 10h45.14.521678 -0500,
,"[-0.64, -0.4]",None,,,,,,,,,0.0,17.0,17.0,17.0,2091.1132771000266,,,,,,,,,,,,,,,,,,,,,,,,,,,,,,,,,,,,,,,,,,,,,,,,,,,,,,,,,,,,,,,,2091.097443399951,2091.1132771000266,2091.1132771000266,2091.5964265000075,2091.613375899848,2094.0965759998653,2094.0967729999684,None,1.0,,,,,,nback74,1.0,2024-01-30_10h21.03.132,untitled,2023.2.3,59.94082641218299,2024-01-30 10h45.14.521678 -0500,
,"[-0.2, -0.1]",None,,,,,,,,,0.0,18.0,18.0,18.0,2094.1131464999635,,,,,,,,,,,,,,,,,,,,,,,,,,,,,,,,,,,,,,,,,,,,,,,,,,,,,,,,,,,,,,,,2094.0976028000005,2094.1131464999635,2094.1131464999635,2094.596550999908,2094.613227599999,2097.096551100025,2097.096764399903,None,1.0,,,,,,nback74,1.0,2024-01-30_10h21.03.132,untitled,2023.2.3,59.94082641218299,2024-01-30 10h45.14.521678 -0500,
,"[0.2, -0.1]",None,,,,,,,,,0.0,19.0,19.0,19.0,2097.11314869998,,,,,,,,,,,,,,,,,,,,,,,,,,,,,,,,,,,,,,,,,,,,,,,,,,,,,,,,,,,,,,,,2097.09761009994,2097.11314869998,2097.11314869998,2097.5962479000445,2097.6133010999765,2100.0964802999515,2100.096671900013,None,1.0,,,,,,nback74,1.0,2024-01-30_10h21.03.132,untitled,2023.2.3,59.94082641218299,2024-01-30 10h45.14.521678 -0500,
,"[0.2, -0.1]",None,,,,,,,,,0.0,20.0,20.0,20.0,2100.113166499883,,,,,,,,,,,,,,,,,,,,,,,,,,,,,,,,,,,,,,,,,,,,,,,,,,,,,,,,,,,,,,,,2100.0974212000147,2100.113166499883,2100.113166499883,2100.5963332999963,2100.613217900041,2103.0963280999567,2103.096545399865,None,1.0,,,,,,nback74,1.0,2024-01-30_10h21.03.132,untitled,2023.2.3,59.94082641218299,2024-01-30 10h45.14.521678 -0500,
,"[-0.64, 0.4]",None,,,,,,,,,0.0,21.0,21.0,21.0,2103.113031900022,,,,,,,,,,,,,,,,,,,,,,,,,,,,,,,,,,,,,,,,,,,,,,,,,,,,,,,,,,,,,,,,2103.0973692999687,2103.113031900022,2103.113031900022,2103.596500399988,2103.613093199907,2106.096328199841,2106.096544599859,None,1.0,,,,,,nback74,1.0,2024-01-30_10h21.03.132,untitled,2023.2.3,59.94082641218299,2024-01-30 10h45.14.521678 -0500,
,"[0, 0.2]",None,,,,,,,,,0.0,22.0,22.0,22.0,2106.1130822999403,,,,,,,,,,,,,,,,,,,,,,,,,,,,,,,,,,,,,,,,,,,,,,,,,,,,,,,,,,,,,,,,2106.0973656999413,2106.1130822999403,2106.1130822999403,2106.596311699832,2106.613097499823,2109.09621670004,2109.0964180999435,None,1.0,,,,,,nback74,1.0,2024-01-30_10h21.03.132,untitled,2023.2.3,59.94082641218299,2024-01-30 10h45.14.521678 -0500,
,"[0.64, -0.4]",None,,,,,,,,,0.0,23.0,23.0,23.0,2109.1128976000477,,,,,,,,,,,,,,,,,,,,,,,,,,,,,,,,,,,,,,,,,,,,,,,,,,,,,,,,,,,,,,,,2109.097216299968,2109.1128976000477,2109.1128976000477,2109.596448099939,2109.6128995998297,2112.096211799886,2112.096399100032,None,1.0,,,,,,nback74,1.0,2024-01-30_10h21.03.132,untitled,2023.2.3,59.94082641218299,2024-01-30 10h45.14.521678 -0500,
,"[0, 0.2]",space,,,,,,,,,0.0,24.0,24.0,24.0,2112.1128110999707,,,,,,,,,,,,,,,,,,,,,,,,,,,,,,,,,,,,,,,,,,,,,,,,,,,,,,,,,,,,,,,,2112.09716070001,2112.1128110999707,2112.1128110999707,2112.596228600014,2112.613217599923,2115.096228200011,2115.096427500015,None,0.0,,,,,,nback74,1.0,2024-01-30_10h21.03.132,untitled,2023.2.3,59.94082641218299,2024-01-30 10h45.14.521678 -0500,
,"[-0.2, 0.1]",None,,,,,,,,,0.0,25.0,25.0,25.0,2115.1127702000085,,,,,,,,,,,,,,,,,,,,,,,,,,,,,,,,,,,,,,,,,,,,,,,,,,,,,,,,,,,,,,,,2115.097217799863,2115.1127702000085,2115.1127702000085,2115.59628920001,2115.61300319992,2118.096263899933,2118.0964801998343,None,1.0,,,,,,nback74,1.0,2024-01-30_10h21.03.132,untitled,2023.2.3,59.94082641218299,2024-01-30 10h45.14.521678 -0500,
,"[0.3, 0]",None,,,,,,,,,0.0,26.0,26.0,26.0,2118.1129697998986,,,,,,,,,,,,,,,,,,,,,,,,,,,,,,,,,,,,,,,,,,,,,,,,,,,,,,,,,,,,,,,,2118.097296599997,2118.1129697998986,2118.1129697998986,2118.595934999874,2118.612777299946,2121.0960710998625,2121.096284699859,None,1.0,,,,,,nback74,1.0,2024-01-30_10h21.03.132,untitled,2023.2.3,59.94082641218299,2024-01-30 10h45.14.521678 -0500,
,"[-0.2, 0.1]",space,,,,,,,,,0.0,27.0,27.0,27.0,2121.112744099926,,,,,,,,,,,,,,,,,,,,,,,,,,,,,,,,,,,,,,,,,,,,,,,,,,,,,,,,,,,,,,,,2121.097132500028,2121.112744099926,2121.112744099926,2121.596181599889,2121.61277649994,2124.095994599862,2124.096244599903,None,0.0,,,,,,nback74,1.0,2024-01-30_10h21.03.132,untitled,2023.2.3,59.94082641218299,2024-01-30 10h45.14.521678 -0500,
,"[-0.2, 0.1]",None,,,,,,,,,0.0,28.0,28.0,28.0,2124.1124113998376,,,,,,,,,,,,,,,,,,,,,,,,,,,,,,,,,,,,,,,,,,,,,,,,,,,,,,,,,,,,,,,,2124.096814400051,2124.1124113998376,2124.1124113998376,2124.5958696999587,2124.612561899936,2127.095967399888,2127.0961805998813,None,1.0,,,,,,nback74,1.0,2024-01-30_10h21.03.132,untitled,2023.2.3,59.94082641218299,2024-01-30 10h45.14.521678 -0500,
,"[0.2, 0.1]",None,,,,,,,,,0.0,29.0,29.0,29.0,2127.1128297999967,,,,,,,,,,,,,,,,,,,,,,,,,,,,,,,,,,,,,,,,,,,,,,,,,,,,,,,,,,,,,,,,2127.097022299888,2127.1128297999967,2127.1128297999967,2127.5958538998384,2127.6126822999213,2130.0959431999363,2130.096138200024,None,1.0,,,,,,nback74,1.0,2024-01-30_10h21.03.132,untitled,2023.2.3,59.94082641218299,2024-01-30 10h45.14.521678 -0500,
,"[-0.64, -0.4]",None,,,,,,,,,0.0,30.0,30.0,30.0,2130.112668100046,,,,,,,,,,,,,,,,,,,,,,,,,,,,,,,,,,,,,,,,,,,,,,,,,,,,,,,,,,,,,,,,2130.0969030999117,2130.112668100046,2130.112668100046,2130.596140000038,2130.6124696999323,2133.095981099876,2133.0961968000047,None,1.0,,,,,,nback74,1.0,2024-01-30_10h21.03.132,untitled,2023.2.3,59.94082641218299,2024-01-30 10h45.14.521678 -0500,
,"[0, -0.2]",None,,,,,,,,,0.0,31.0,31.0,31.0,2133.11280360003,,,,,,,,,,,,,,,,,,,,,,,,,,,,,,,,,,,,,,,,,,,,,,,,,,,,,,,,,,,,,,,,2133.097076999955,2133.11280360003,2133.11280360003,2133.5959417000413,2133.612531099934,2136.0957764999475,2136.096017200034,None,1.0,,,,,,nback74,1.0,2024-01-30_10h21.03.132,untitled,2023.2.3,59.94082641218299,2024-01-30 10h45.14.521678 -0500,
,"[-0.64, -0.4]",space,,,,,,,,,0.0,32.0,32.0,32.0,2136.112357500009,,,,,,,,,,,,,,,,,,,,,,,,,,,,,,,,,,,,,,,,,,,,,,,,,,,,,,,,,,,,,,,,2136.0967649999075,2136.112357500009,2136.112357500009,2136.5955383998808,2136.6123559998814,2139.095810599858,2139.096001399914,space,1.0,0.3172993999905884,None,,,,nback74,1.0,2024-01-30_10h21.03.132,untitled,2023.2.3,59.94082641218299,2024-01-30 10h45.14.521678 -0500,
,"[0.64, 0.4]",None,,,,,,,,,0.0,33.0,33.0,33.0,2139.1125219999813,,,,,,,,,,,,,,,,,,,,,,,,,,,,,,,,,,,,,,,,,,,,,,,,,,,,,,,,,,,,,,,,2139.096877799835,2139.1125219999813,2139.1125219999813,2139.595807899954,2139.6124625999946,2142.095708200009,2142.0958924998995,None,1.0,,,,,,nback74,1.0,2024-01-30_10h21.03.132,untitled,2023.2.3,59.94082641218299,2024-01-30 10h45.14.521678 -0500,
,"[-0.3, 0]",None,,,,,,,,,0.0,34.0,34.0,34.0,2142.1122838999145,,,,,,,,,,,,,,,,,,,,,,,,,,,,,,,,,,,,,,,,,,,,,,,,,,,,,,,,,,,,,,,,2142.096711399965,2142.1122838999145,2142.1122838999145,2142.595710699912,2142.6124481000006,2145.095732999965,2145.0959486998618,None,1.0,,,,,,nback74,1.0,2024-01-30_10h21.03.132,untitled,2023.2.3,59.94082641218299,2024-01-30 10h45.14.521678 -0500,
,"[0.3, 0]",None,,,,,,,,,0.0,35.0,35.0,35.0,2145.1124050000217,,,,,,,,,,,,,,,,,,,,,,,,,,,,,,,,,,,,,,,,,,,,,,,,,,,,,,,,,,,,,,,,2145.096786999842,2145.1124050000217,2145.1124050000217,2145.5955089000054,2145.6122194000054,2148.095643499866,2148.0958535999525,None,1.0,,,,,,nback74,1.0,2024-01-30_10h21.03.132,untitled,2023.2.3,59.94082641218299,2024-01-30 10h45.14.521678 -0500,
,"[-0.3, 0]",space,,,,,,,,,0.0,36.0,36.0,36.0,2148.112380999839,,,,,,,,,,,,,,,,,,,,,,,,,,,,,,,,,,,,,,,,,,,,,,,,,,,,,,,,,,,,,,,,2148.096728099976,2148.112380999839,2148.112380999839,2148.5956019999,2148.61227110005,2151.0955554998945,2151.0957684998866,None,0.0,,,,,,nback74,1.0,2024-01-30_10h21.03.132,untitled,2023.2.3,59.94082641218299,2024-01-30 10h45.14.521678 -0500,
,"[0, -0.2]",None,,,,,,,,,0.0,37.0,37.0,37.0,2151.1121350999456,,,,,,,,,,,,,,,,,,,,,,,,,,,,,,,,,,,,,,,,,,,,,,,,,,,,,,,,,,,,,,,,2151.096632799832,2151.1121350999456,2151.1121350999456,2151.5952253998257,2151.612039499916,2154.095373699907,2154.095529299928,None,1.0,,,,,,nback74,1.0,2024-01-30_10h21.03.132,untitled,2023.2.3,59.94082641218299,2024-01-30 10h45.14.521678 -0500,
,"[0.3, 0]",None,,,,,,,,,0.0,38.0,38.0,38.0,2154.112131099915,,,,,,,,,,,,,,,,,,,,,,,,,,,,,,,,,,,,,,,,,,,,,,,,,,,,,,,,,,,,,,,,2154.0961104000453,2154.112131099915,2154.112131099915,2154.595342800021,2154.612163200043,2157.0953370998614,2157.095516599948,None,1.0,,,,,,nback74,1.0,2024-01-30_10h21.03.132,untitled,2023.2.3,59.94082641218299,2024-01-30 10h45.14.521678 -0500,
,"[0.2, 0.1]",None,,,,,,,,,0.0,39.0,39.0,39.0,2157.112022300018,,,,,,,,,,,,,,,,,,,,,,,,,,,,,,,,,,,,,,,,,,,,,,,,,,,,,,,,,,,,,,,,2157.096246500034,2157.112022300018,2157.112022300018,2157.5953237998765,2157.6119174999185,2160.09548759996,2160.095698799938,None,1.0,,,,,,nback74,1.0,2024-01-30_10h21.03.132,untitled,2023.2.3,59.94082641218299,2024-01-30 10h45.14.521678 -0500,
,,,,,,,,,,,,,,,,,,,,,,,,,,,,,,,,,,,,,,,,,,,,,,,,,,,,,,,,,,,,,,,,,,,,,,,,,,,,,,,,,,,,,,,,,,2160.09628920001,2160.1120549000334,2163.0956619000062,,,,,,,,
