square,location,corrAns,trials_0.thisRepN,trials_0.thisTrialN,trials_0.thisN,trials_0.thisIndex,trials_1.thisRepN,trials_1.thisTrialN,trials_1.thisN,trials_1.thisIndex,trials_2.thisRepN,trials_2.thisTrialN,trials_2.thisN,trials_2.thisIndex,thisRow.t,notes,Instructions.started,instructions.started,key_resp.started,inst_sq11.started,Instructions.stopped,key_resp.keys,key_resp.rt,key_resp.duration,All.started,sq_1.started,sq_2.started,sq_3.started,sq_4.started,sq_5.started,sq_6.started,sq_7.started,sq_8.started,sq_9.started,sq_10.started,sq_11.started,sq_12.started,All.stopped,Fixation.started,fixation_3.started,fixation_3.stopped,Fixation.stopped,N_back_0_Trial.started,target_square_0.started,response_0.started,fixation_0.started,target_square_0.stopped,fixation_0.stopped,N_back_0_Trial.stopped,response_0.keys,response_0.corr,response_0.rt,response_0.duration,Instructions_1.started,instructions_1.started,key_resp_1.started,Instructions_1.stopped,key_resp_1.keys,key_resp_1.rt,key_resp_1.duration,N_back_1_Trial.started,target_square_1.started,response_1.started,target_square_1.stopped,fixation_1.started,fixation_1.stopped,response_1.stopped,N_back_1_Trial.stopped,response_1.keys,response_1.corr,response_1.rt,response_1.duration,Instructions_2.started,instructions_2.started,key_resp_2.started,Instructions_2.stopped,key_resp_2.keys,key_resp_2.rt,key_resp_2.duration,N_back_2_trials.started,target_square_2.started,response_2.started,fixation_2.started,target_square_2.stopped,fixation_2.stopped,response_2.stopped,N_back_2_trials.stopped,response_2.keys,response_2.corr,response_2.rt,response_2.duration,End.started,thank_you.started,End.stopped,participant,session,date,expName,psychopyVersion,frameRate,expStart,Unnamed: 102
,,,,,,,,,,,,,,,,,0.0018867,0.0047548000000006,0.0047548000000006,0.0047548000000006,1737.4267142,space,1737.4201936,None,,,,,,,,,,,,,,,,,,,,,,,,,,,,,,,,,,,,,,,,,,,,,,,,,,,,,,,,,,,,,,,,,,,,,,,nback16,1.0,2023-12-11_16h21.30.750,untitled,2023.2.3,60.033414598564455,2023-12-11 16h21.40.403837 -0500,
6.0,"[-0.3, 0]",None,0.0,0.0,0.0,0.0,,,,,,,,,1739.4454849,,,,,,,,,,1737.4267662,1737.4407788,1737.4407788,1737.4407788,1737.4407788,1737.4407788,1737.4407788,1737.4407788,1737.4407788,1737.4407788,1737.4407788,1737.4407788,1737.4407788,1738.424793,1738.4248098,1738.4409240999998,1739.4454849,1739.4251589,1739.4435602,1739.4454849,1739.4454849,1739.9243352,1739.9575793,1742.4242697,1742.4411172,None,1.0,,,,,,,,,,,,,,,,,,,,,,,,,,,,,,,,,,,,,,,,,,,,nback16,1.0,2023-12-11_16h21.30.750,untitled,2023.2.3,60.033414598564455,2023-12-11 16h21.40.403837 -0500,
10.0,"[0, -0.2]",None,0.0,1.0,1.0,1.0,,,,,,,,,1742.4573888,,,,,,,,,,,,,,,,,,,,,,,,,,,,1742.4420457,1742.4573888,1742.4573888,1742.9244489,1742.9575702,1745.4242692,1745.441091,None,1.0,,,,,,,,,,,,,,,,,,,,,,,,,,,,,,,,,,,,,,,,,,,,nback16,1.0,2023-12-11_16h21.30.750,untitled,2023.2.3,60.033414598564455,2023-12-11 16h21.40.403837 -0500,
11.0,"[-0.64, -0.4]",space,0.0,2.0,2.0,2.0,,,,,,,,,1745.457414,,,,,,,,,,,,,,,,,,,,,,,,,,,,1745.4418604,1745.457414,1745.457414,1745.9242687,1745.9575969,1748.4241503,1748.4410498,space,1.0,0.9282573999998932,None,,,,,,,,,,,,,,,,,,,,,,,,,,,,,,,,,,,,,,,,,,nback16,1.0,2023-12-11_16h21.30.750,untitled,2023.2.3,60.033414598564455,2023-12-11 16h21.40.403837 -0500,
12.0,"[0.64, -0.4]",None,0.0,3.0,3.0,3.0,,,,,,,,,1748.4575056,,,,,,,,,,,,,,,,,,,,,,,,,,,,1748.4421261999998,1748.4575056,1748.4575056,1748.9241826999998,1748.9573408,1751.4243077,1751.4410689,None,1.0,,,,,,,,,,,,,,,,,,,,,,,,,,,,,,,,,,,,,,,,,,,,nback16,1.0,2023-12-11_16h21.30.750,untitled,2023.2.3,60.033414598564455,2023-12-11 16h21.40.403837 -0500,
1.0,"[-0.64, 0.4]",None,0.0,4.0,4.0,4.0,,,,,,,,,1751.4574047,,,,,,,,,,,,,,,,,,,,,,,,,,,,1751.4419341,1751.4574047,1751.4574047,1751.9243169,1751.9575378,1754.4242096,1754.4407826,None,1.0,,,,,,,,,,,,,,,,,,,,,,,,,,,,,,,,,,,,,,,,,,,,nback16,1.0,2023-12-11_16h21.30.750,untitled,2023.2.3,60.033414598564455,2023-12-11 16h21.40.403837 -0500,
1.0,"[-0.64, 0.4]",None,0.0,5.0,5.0,5.0,,,,,,,,,1754.4574142,,,,,,,,,,,,,,,,,,,,,,,,,,,,1754.4415289,1754.4574142,1754.4574142,1754.9239711,1754.9573785,1757.4237999,1757.4406888,None,1.0,,,,,,,,,,,,,,,,,,,,,,,,,,,,,,,,,,,,,,,,,,,,nback16,1.0,2023-12-11_16h21.30.750,untitled,2023.2.3,60.033414598564455,2023-12-11 16h21.40.403837 -0500,
4.0,"[-0.2, 0.1]",None,0.0,6.0,6.0,6.0,,,,,,,,,1757.4572787,,,,,,,,,,,,,,,,,,,,,,,,,,,,1757.441125,1757.4572787,1757.4572787,1757.923959,1757.9573596,1760.4239339,1760.4409938,None,1.0,,,,,,,,,,,,,,,,,,,,,,,,,,,,,,,,,,,,,,,,,,,,nback16,1.0,2023-12-11_16h21.30.750,untitled,2023.2.3,60.033414598564455,2023-12-11 16h21.40.403837 -0500,
5.0,"[0.2, 0.1]",None,0.0,7.0,7.0,7.0,,,,,,,,,1760.4573199,,,,,,,,,,,,,,,,,,,,,,,,,,,,1760.4417178,1760.4573199,1760.4573199,1760.9238985,1760.9571411,1763.4240379,1763.4408196,None,1.0,,,,,,,,,,,,,,,,,,,,,,,,,,,,,,,,,,,,,,,,,,,,nback16,1.0,2023-12-11_16h21.30.750,untitled,2023.2.3,60.033414598564455,2023-12-11 16h21.40.403837 -0500,
11.0,"[-0.64, -0.4]",space,0.0,8.0,8.0,8.0,,,,,,,,,1763.4572418,,,,,,,,,,,,,,,,,,,,,,,,,,,,1763.4415604,1763.4572418,1763.4572418,1763.9239043,1763.957244,1766.4239448,1766.4407339,space,1.0,0.6836809999999787,None,,,,,,,,,,,,,,,,,,,,,,,,,,,,,,,,,,,,,,,,,,nback16,1.0,2023-12-11_16h21.30.750,untitled,2023.2.3,60.033414598564455,2023-12-11 16h21.40.403837 -0500,
9.0,"[0.2, -0.1]",None,0.0,9.0,9.0,9.0,,,,,,,,,1766.4573335,,,,,,,,,,,,,,,,,,,,,,,,,,,,1766.4416136,1766.4573335,1766.4573335,1766.923923,1766.9573204,1769.4238083,1769.4406491,None,1.0,,,,,,,,,,,,,,,,,,,,,,,,,,,,,,,,,,,,,,,,,,,,nback16,1.0,2023-12-11_16h21.30.750,untitled,2023.2.3,60.033414598564455,2023-12-11 16h21.40.403837 -0500,
8.0,"[-0.2, -0.1]",None,0.0,10.0,10.0,10.0,,,,,,,,,1769.4570472,,,,,,,,,,,,,,,,,,,,,,,,,,,,1769.4414321,1769.4570472,1769.4570472,1769.9237732,1769.9571359,1772.4237594,1772.4406653,None,1.0,,,,,,,,,,,,,,,,,,,,,,,,,,,,,,,,,,,,,,,,,,,,nback16,1.0,2023-12-11_16h21.30.750,untitled,2023.2.3,60.033414598564455,2023-12-11 16h21.40.403837 -0500,
9.0,"[0.2, -0.1]",None,0.0,11.0,11.0,11.0,,,,,,,,,1772.4570489,,,,,,,,,,,,,,,,,,,,,,,,,,,,1772.4413518,1772.4570489,1772.4570489,1772.9237431,1772.9569888,1775.4237182,1775.4403987,None,1.0,,,,,,,,,,,,,,,,,,,,,,,,,,,,,,,,,,,,,,,,,,,,nback16,1.0,2023-12-11_16h21.30.750,untitled,2023.2.3,60.033414598564455,2023-12-11 16h21.40.403837 -0500,
6.0,"[-0.3, 0]",None,0.0,12.0,12.0,12.0,,,,,,,,,1775.4568725,,,,,,,,,,,,,,,,,,,,,,,,,,,,1775.4408942,1775.4568725,1775.4568725,1775.9235986,1775.9569847,1778.42368,1778.4402291,None,1.0,,,,,,,,,,,,,,,,,,,,,,,,,,,,,,,,,,,,,,,,,,,,nback16,1.0,2023-12-11_16h21.30.750,untitled,2023.2.3,60.033414598564455,2023-12-11 16h21.40.403837 -0500,
9.0,"[0.2, -0.1]",None,0.0,13.0,13.0,13.0,,,,,,,,,1778.456565,,,,,,,,,,,,,,,,,,,,,,,,,,,,1778.4409976,1778.456565,1778.456565,1778.9403435,1778.9569461,1781.44027,1781.4404486,None,1.0,,,,,,,,,,,,,,,,,,,,,,,,,,,,,,,,,,,,,,,,,,,,nback16,1.0,2023-12-11_16h21.30.750,untitled,2023.2.3,60.033414598564455,2023-12-11 16h21.40.403837 -0500,
7.0,"[0.3, 0]",None,0.0,14.0,14.0,14.0,,,,,,,,,1781.4568933,,,,,,,,,,,,,,,,,,,,,,,,,,,,1781.4411583,1781.4568933,1781.4568933,1781.940194,1781.9567682,1784.4404147,1784.4406155,None,1.0,,,,,,,,,,,,,,,,,,,,,,,,,,,,,,,,,,,,,,,,,,,,nback16,1.0,2023-12-11_16h21.30.750,untitled,2023.2.3,60.033414598564455,2023-12-11 16h21.40.403837 -0500,
2.0,"[0.64, 0.4]",None,0.0,15.0,15.0,15.0,,,,,,,,,1784.4569379,,,,,,,,,,,,,,,,,,,,,,,,,,,,1784.4414592,1784.4569379,1784.4569379,1784.9403328,1784.9569484,1787.4401801,1787.4403416,None,1.0,,,,,,,,,,,,,,,,,,,,,,,,,,,,,,,,,,,,,,,,,,,,nback16,1.0,2023-12-11_16h21.30.750,untitled,2023.2.3,60.033414598564455,2023-12-11 16h21.40.403837 -0500,
2.0,"[0.64, 0.4]",None,0.0,16.0,16.0,16.0,,,,,,,,,1787.4565995,,,,,,,,,,,,,,,,,,,,,,,,,,,,1787.4409618,1787.4565995,1787.4565995,1787.9401266,1787.9567292,1790.4401288,1790.4403186,None,1.0,,,,,,,,,,,,,,,,,,,,,,,,,,,,,,,,,,,,,,,,,,,,nback16,1.0,2023-12-11_16h21.30.750,untitled,2023.2.3,60.033414598564455,2023-12-11 16h21.40.403837 -0500,
11.0,"[-0.64, -0.4]",space,0.0,17.0,17.0,17.0,,,,,,,,,1790.4567916,,,,,,,,,,,,,,,,,,,,,,,,,,,,1790.441057,1790.4567916,1790.4567916,1790.9403056,1790.9566949,1793.4401412,1793.4403232,space,1.0,0.4207045000000562,None,,,,,,,,,,,,,,,,,,,,,,,,,,,,,,,,,,,,,,,,,,nback16,1.0,2023-12-11_16h21.30.750,untitled,2023.2.3,60.033414598564455,2023-12-11 16h21.40.403837 -0500,
11.0,"[-0.64, -0.4]",space,0.0,18.0,18.0,18.0,,,,,,,,,1793.4567895,,,,,,,,,,,,,,,,,,,,,,,,,,,,1793.441137,1793.4567895,1793.4567895,1793.9401002,1793.9566888,1796.4400057,1796.440191,space,1.0,0.4212520999999469,None,,,,,,,,,,,,,,,,,,,,,,,,,,,,,,,,,,,,,,,,,,nback16,1.0,2023-12-11_16h21.30.750,untitled,2023.2.3,60.033414598564455,2023-12-11 16h21.40.403837 -0500,
7.0,"[0.3, 0]",None,0.0,19.0,19.0,19.0,,,,,,,,,1796.4565532,,,,,,,,,,,,,,,,,,,,,,,,,,,,1796.4410193,1796.4565532,1796.4565532,1796.939982,1796.9564799,1799.440025,1799.440212,None,1.0,,,,,,,,,,,,,,,,,,,,,,,,,,,,,,,,,,,,,,,,,,,,nback16,1.0,2023-12-11_16h21.30.750,untitled,2023.2.3,60.033414598564455,2023-12-11 16h21.40.403837 -0500,
3.0,"[0, 0.2]",None,0.0,20.0,20.0,20.0,,,,,,,,,1799.4567216,,,,,,,,,,,,,,,,,,,,,,,,,,,,1799.4408848,1799.4567216,1799.4567216,1799.940135,1799.9566193,1802.4400896,1802.4402823,None,1.0,,,,,,,,,,,,,,,,,,,,,,,,,,,,,,,,,,,,,,,,,,,,nback16,1.0,2023-12-11_16h21.30.750,untitled,2023.2.3,60.033414598564455,2023-12-11 16h21.40.403837 -0500,
10.0,"[0, -0.2]",None,0.0,21.0,21.0,21.0,,,,,,,,,1802.4566661,,,,,,,,,,,,,,,,,,,,,,,,,,,,1802.4411074,1802.4566661,1802.4566661,1802.9401724,1802.9566143,1805.4399967,1805.4402067,None,1.0,,,,,,,,,,,,,,,,,,,,,,,,,,,,,,,,,,,,,,,,,,,,nback16,1.0,2023-12-11_16h21.30.750,untitled,2023.2.3,60.033414598564455,2023-12-11 16h21.40.403837 -0500,
1.0,"[-0.64, 0.4]",None,0.0,22.0,22.0,22.0,,,,,,,,,1805.4564024,,,,,,,,,,,,,,,,,,,,,,,,,,,,1805.4410117,1805.4564024,1805.4564024,1805.9398401,1805.9565441,1808.439886,1808.4400664,None,1.0,,,,,,,,,,,,,,,,,,,,,,,,,,,,,,,,,,,,,,,,,,,,nback16,1.0,2023-12-11_16h21.30.750,untitled,2023.2.3,60.033414598564455,2023-12-11 16h21.40.403837 -0500,
2.0,"[0.64, 0.4]",None,0.0,23.0,23.0,23.0,,,,,,,,,1808.4564526,,,,,,,,,,,,,,,,,,,,,,,,,,,,1808.4407389,1808.4564526,1808.4564526,1808.939779,1808.9564999,1811.4397842,1811.4399761,None,1.0,,,,,,,,,,,,,,,,,,,,,,,,,,,,,,,,,,,,,,,,,,,,nback16,1.0,2023-12-11_16h21.30.750,untitled,2023.2.3,60.033414598564455,2023-12-11 16h21.40.403837 -0500,
6.0,"[-0.3, 0]",None,0.0,24.0,24.0,24.0,,,,,,,,,1811.4564906,,,,,,,,,,,,,,,,,,,,,,,,,,,,1811.440682,1811.4564906,1811.4564906,1811.9399422,1811.9564408,1814.4398595,1814.4400817,None,1.0,,,,,,,,,,,,,,,,,,,,,,,,,,,,,,,,,,,,,,,,,,,,nback16,1.0,2023-12-11_16h21.30.750,untitled,2023.2.3,60.033414598564455,2023-12-11 16h21.40.403837 -0500,
3.0,"[0, 0.2]",None,0.0,25.0,25.0,25.0,,,,,,,,,1814.4565337,,,,,,,,,,,,,,,,,,,,,,,,,,,,1814.440942,1814.4565337,1814.4565337,1814.9397898,1814.9563863,1817.4398984,1817.4401006,None,1.0,,,,,,,,,,,,,,,,,,,,,,,,,,,,,,,,,,,,,,,,,,,,nback16,1.0,2023-12-11_16h21.30.750,untitled,2023.2.3,60.033414598564455,2023-12-11 16h21.40.403837 -0500,
11.0,"[-0.64, -0.4]",space,0.0,26.0,26.0,26.0,,,,,,,,,1817.4564514,,,,,,,,,,,,,,,,,,,,,,,,,,,,1817.4408862,1817.4564514,1817.4564514,1817.9397179,1817.9564245,1820.4397928,1820.4399848,space,1.0,0.3675883999999314,None,,,,,,,,,,,,,,,,,,,,,,,,,,,,,,,,,,,,,,,,,,nback16,1.0,2023-12-11_16h21.30.750,untitled,2023.2.3,60.033414598564455,2023-12-11 16h21.40.403837 -0500,
1.0,"[-0.64, 0.4]",None,0.0,27.0,27.0,27.0,,,,,,,,,1820.4563142,,,,,,,,,,,,,,,,,,,,,,,,,,,,1820.4408814,1820.4563142,1820.4563142,1820.9397302,1820.9562833,1823.4397021,1823.439897,None,1.0,,,,,,,,,,,,,,,,,,,,,,,,,,,,,,,,,,,,,,,,,,,,nback16,1.0,2023-12-11_16h21.30.750,untitled,2023.2.3,60.033414598564455,2023-12-11 16h21.40.403837 -0500,
3.0,"[0, 0.2]",None,0.0,28.0,28.0,28.0,,,,,,,,,1823.4562725,,,,,,,,,,,,,,,,,,,,,,,,,,,,1823.44066,1823.4562725,1823.4562725,1823.9397041,1823.9562418,1826.4396105,1826.4398021,None,1.0,,,,,,,,,,,,,,,,,,,,,,,,,,,,,,,,,,,,,,,,,,,,nback16,1.0,2023-12-11_16h21.30.750,untitled,2023.2.3,60.033414598564455,2023-12-11 16h21.40.403837 -0500,
9.0,"[0.2, -0.1]",None,0.0,29.0,29.0,29.0,,,,,,,,,1826.4561144,,,,,,,,,,,,,,,,,,,,,,,,,,,,1826.4404354,1826.4561144,1826.4561144,1826.9395372,1826.956112,1829.4395612,1829.4397416,None,1.0,,,,,,,,,,,,,,,,,,,,,,,,,,,,,,,,,,,,,,,,,,,,nback16,1.0,2023-12-11_16h21.30.750,untitled,2023.2.3,60.033414598564455,2023-12-11 16h21.40.403837 -0500,
8.0,"[-0.2, -0.1]",None,0.0,30.0,30.0,30.0,,,,,,,,,1829.4562757,,,,,,,,,,,,,,,,,,,,,,,,,,,,1829.4404295,1829.4562757,1829.4562757,1829.9395836,1829.9563066,1832.4392783,1832.4393767,None,1.0,,,,,,,,,,,,,,,,,,,,,,,,,,,,,,,,,,,,,,,,,,,,nback16,1.0,2023-12-11_16h21.30.750,untitled,2023.2.3,60.033414598564455,2023-12-11 16h21.40.403837 -0500,
12.0,"[0.64, -0.4]",None,0.0,31.0,31.0,31.0,,,,,,,,,1832.4558554,,,,,,,,,,,,,,,,,,,,,,,,,,,,1832.4397059,1832.4558554,1832.4558554,1832.9394091,1832.9560721,1835.4396043,1835.4398136,None,1.0,,,,,,,,,,,,,,,,,,,,,,,,,,,,,,,,,,,,,,,,,,,,nback16,1.0,2023-12-11_16h21.30.750,untitled,2023.2.3,60.033414598564455,2023-12-11 16h21.40.403837 -0500,
9.0,"[0.2, -0.1]",None,0.0,32.0,32.0,32.0,,,,,,,,,1835.4561231,,,,,,,,,,,,,,,,,,,,,,,,,,,,1835.4406274,1835.4561231,1835.4561231,1835.9393663,1835.9558832,1838.439478,1838.4397014,None,1.0,,,,,,,,,,,,,,,,,,,,,,,,,,,,,,,,,,,,,,,,,,,,nback16,1.0,2023-12-11_16h21.30.750,untitled,2023.2.3,60.033414598564455,2023-12-11 16h21.40.403837 -0500,
11.0,"[-0.64, -0.4]",space,0.0,33.0,33.0,33.0,,,,,,,,,1838.4558511,,,,,,,,,,,,,,,,,,,,,,,,,,,,1838.4404561,1838.4558511,1838.4558511,1838.9392421,1838.9559646,1841.4394032,1841.4395916,space,1.0,0.4279901999998401,None,,,,,,,,,,,,,,,,,,,,,,,,,,,,,,,,,,,,,,,,,,nback16,1.0,2023-12-11_16h21.30.750,untitled,2023.2.3,60.033414598564455,2023-12-11 16h21.40.403837 -0500,
7.0,"[0.3, 0]",None,0.0,34.0,34.0,34.0,,,,,,,,,1841.4560163,,,,,,,,,,,,,,,,,,,,,,,,,,,,1841.4404519,1841.4560163,1841.4560163,1841.9391116,1841.9560268,1844.4393709,1844.4395851,None,1.0,,,,,,,,,,,,,,,,,,,,,,,,,,,,,,,,,,,,,,,,,,,,nback16,1.0,2023-12-11_16h21.30.750,untitled,2023.2.3,60.033414598564455,2023-12-11 16h21.40.403837 -0500,
11.0,"[-0.64, -0.4]",space,0.0,35.0,35.0,35.0,,,,,,,,,1844.4558978,,,,,,,,,,,,,,,,,,,,,,,,,,,,1844.4403625,1844.4558978,1844.4558978,1844.9392013,1844.955864,1847.4394554,1847.4396621,space,1.0,0.3548714999999447,None,,,,,,,,,,,,,,,,,,,,,,,,,,,,,,,,,,,,,,,,,,nback16,1.0,2023-12-11_16h21.30.750,untitled,2023.2.3,60.033414598564455,2023-12-11 16h21.40.403837 -0500,
4.0,"[-0.2, 0.1]",None,0.0,36.0,36.0,36.0,,,,,,,,,1847.4558525,,,,,,,,,,,,,,,,,,,,,,,,,,,,1847.4405843,1847.4558525,1847.4558525,1847.9393972,1847.9561598,1850.439202,1850.4393943,None,1.0,,,,,,,,,,,,,,,,,,,,,,,,,,,,,,,,,,,,,,,,,,,,nback16,1.0,2023-12-11_16h21.30.750,untitled,2023.2.3,60.033414598564455,2023-12-11 16h21.40.403837 -0500,
5.0,"[0.2, 0.1]",None,0.0,37.0,37.0,37.0,,,,,,,,,1850.4557788,,,,,,,,,,,,,,,,,,,,,,,,,,,,1850.4401596,1850.4557788,1850.4557788,1850.9392039,1850.955882,1853.4392648,1853.4394696,None,1.0,,,,,,,,,,,,,,,,,,,,,,,,,,,,,,,,,,,,,,,,,,,,nback16,1.0,2023-12-11_16h21.30.750,untitled,2023.2.3,60.033414598564455,2023-12-11 16h21.40.403837 -0500,
6.0,"[-0.3, 0]",None,0.0,38.0,38.0,38.0,,,,,,,,,1853.455605,,,,,,,,,,,,,,,,,,,,,,,,,,,,1853.4402134,1853.455605,1853.455605,1853.9392221,1853.9559027,1856.4390733,1856.4392672,None,1.0,,,,,,,,,,,,,,,,,,,,,,,,,,,,,,,,,,,,,,,,,,,,nback16,1.0,2023-12-11_16h21.30.750,untitled,2023.2.3,60.033414598564455,2023-12-11 16h21.40.403837 -0500,
11.0,"[-0.64, -0.4]",space,0.0,39.0,39.0,39.0,,,,,,,,,1856.4557705,,,,,,,,,,,,,,,,,,,,,,,,,,,,1856.4399556,1856.4557705,1856.4557705,1856.9389782,1856.9557983,1859.4389252,1859.4391147,space,1.0,0.3463489000000663,None,,,,,,,,,,,,,,,,,,,,,,,,,,,,,,,,,,,,,,,,,,nback16,1.0,2023-12-11_16h21.30.750,untitled,2023.2.3,60.033414598564455,2023-12-11 16h21.40.403837 -0500,
,,,,,,,,,,,,,,,,,,,,,,,,,,,,,,,,,,,,,,,,,,,,,,,,,,,,,,1859.4397212,1859.4557507,1859.4557507,1887.2399853,space,27.774484799999986,None,,,,,,,,,,,,,,,,,,,,,,,,,,,,,,,,,,,nback16,1.0,2023-12-11_16h21.30.750,untitled,2023.2.3,60.033414598564455,2023-12-11 16h21.40.403837 -0500,
10.0,"[0, -0.2]",None,,,,,0.0,0.0,0.0,0.0,,,,,1888.2555909,,,,,,,,,,,,,,,,,,,,,,,,1887.2400258,1887.2550496,1888.2555909,1888.239533,,,,,,,,,,,,,,,,,,,1888.2537061,1888.2555909,1888.2555909,1888.7552471,1888.7552471,1891.2550591,1891.2550591,1891.2393901,None,1.0,,,,,,,,,,,,,,,,,,,,,,,,,nback16,1.0,2023-12-11_16h21.30.750,untitled,2023.2.3,60.033414598564455,2023-12-11 16h21.40.403837 -0500,
5.0,"[0.2, 0.1]",None,,,,,0.0,1.0,1.0,1.0,,,,,1891.2550591,,,,,,,,,,,,,,,,,,,,,,,,,,,,,,,,,,,,,,,,,,,,,,1891.2402502,1891.2550591,1891.2550591,1891.7550512,1891.7550512,1894.2549591,1894.2549591,1894.2392864,None,1.0,,,,,,,,,,,,,,,,,,,,,,,,,nback16,1.0,2023-12-11_16h21.30.750,untitled,2023.2.3,60.033414598564455,2023-12-11 16h21.40.403837 -0500,
6.0,"[-0.3, 0]",None,,,,,0.0,2.0,2.0,2.0,,,,,1894.2549591,,,,,,,,,,,,,,,,,,,,,,,,,,,,,,,,,,,,,,,,,,,,,,1894.2399434,1894.2549591,1894.2549591,1894.7550648,1894.7550648,1897.2550308,1897.2550308,1897.2395403,None,1.0,,,,,,,,,,,,,,,,,,,,,,,,,nback16,1.0,2023-12-11_16h21.30.750,untitled,2023.2.3,60.033414598564455,2023-12-11 16h21.40.403837 -0500,
6.0,"[-0.3, 0]",space,,,,,0.0,3.0,3.0,3.0,,,,,1897.2550308,,,,,,,,,,,,,,,,,,,,,,,,,,,,,,,,,,,,,,,,,,,,,,1897.2403652,1897.2550308,1897.2550308,1897.7548493,1897.7548493,1900.2548568,1900.2548568,1900.2392289,space,1.0,1.2976079000000027,None,,,,,,,,,,,,,,,,,,,,,,,nback16,1.0,2023-12-11_16h21.30.750,untitled,2023.2.3,60.033414598564455,2023-12-11 16h21.40.403837 -0500,
12.0,"[0.64, -0.4]",None,,,,,0.0,4.0,4.0,4.0,,,,,1900.2548568,,,,,,,,,,,,,,,,,,,,,,,,,,,,,,,,,,,,,,,,,,,,,,1900.2401389,1900.2548568,1900.2548568,1900.7552222,1900.7552222,1903.254998,1903.254998,1903.2393054,None,1.0,,,,,,,,,,,,,,,,,,,,,,,,,nback16,1.0,2023-12-11_16h21.30.750,untitled,2023.2.3,60.033414598564455,2023-12-11 16h21.40.403837 -0500,
10.0,"[0, -0.2]",None,,,,,0.0,5.0,5.0,5.0,,,,,1903.254998,,,,,,,,,,,,,,,,,,,,,,,,,,,,,,,,,,,,,,,,,,,,,,1903.2400456,1903.254998,1903.254998,1903.7549778,1903.7549778,1906.2549266,1906.2549266,1906.2390573,None,1.0,,,,,,,,,,,,,,,,,,,,,,,,,nback16,1.0,2023-12-11_16h21.30.750,untitled,2023.2.3,60.033414598564455,2023-12-11 16h21.40.403837 -0500,
2.0,"[0.64, 0.4]",None,,,,,0.0,6.0,6.0,6.0,,,,,1906.2549266,,,,,,,,,,,,,,,,,,,,,,,,,,,,,,,,,,,,,,,,,,,,,,1906.2398617,1906.2549266,1906.2549266,1906.7549441,1906.7549441,1909.2550257,1909.2550257,1909.2389306,None,1.0,,,,,,,,,,,,,,,,,,,,,,,,,nback16,1.0,2023-12-11_16h21.30.750,untitled,2023.2.3,60.033414598564455,2023-12-11 16h21.40.403837 -0500,
9.0,"[0.2, -0.1]",None,,,,,0.0,7.0,7.0,7.0,,,,,1909.2550257,,,,,,,,,,,,,,,,,,,,,,,,,,,,,,,,,,,,,,,,,,,,,,1909.2395531,1909.2550257,1909.2550257,1909.7548089,1909.7548089,1912.2548805,1912.2548805,1912.2391052,None,1.0,,,,,,,,,,,,,,,,,,,,,,,,,nback16,1.0,2023-12-11_16h21.30.750,untitled,2023.2.3,60.033414598564455,2023-12-11 16h21.40.403837 -0500,
9.0,"[0.2, -0.1]",space,,,,,0.0,8.0,8.0,8.0,,,,,1912.2548805,,,,,,,,,,,,,,,,,,,,,,,,,,,,,,,,,,,,,,,,,,,,,,1912.2397542,1912.2548805,1912.2548805,1912.754853,1912.754853,1915.2547933,1915.2547933,1915.2393217,space,1.0,0.5013361999999688,None,,,,,,,,,,,,,,,,,,,,,,,nback16,1.0,2023-12-11_16h21.30.750,untitled,2023.2.3,60.033414598564455,2023-12-11 16h21.40.403837 -0500,
6.0,"[-0.3, 0]",None,,,,,0.0,9.0,9.0,9.0,,,,,1915.2547933,,,,,,,,,,,,,,,,,,,,,,,,,,,,,,,,,,,,,,,,,,,,,,1915.2402966,1915.2547933,1915.2547933,1915.7549468,1915.7549468,1918.2545639,1918.2545639,1918.2387684,None,1.0,,,,,,,,,,,,,,,,,,,,,,,,,nback16,1.0,2023-12-11_16h21.30.750,untitled,2023.2.3,60.033414598564455,2023-12-11 16h21.40.403837 -0500,
11.0,"[-0.64, -0.4]",None,,,,,0.0,10.0,10.0,10.0,,,,,1918.2545639,,,,,,,,,,,,,,,,,,,,,,,,,,,,,,,,,,,,,,,,,,,,,,1918.2393364,1918.2545639,1918.2545639,1918.7547586,1918.7547586,1921.2544372,1921.2544372,1921.238602,None,1.0,,,,,,,,,,,,,,,,,,,,,,,,,nback16,1.0,2023-12-11_16h21.30.750,untitled,2023.2.3,60.033414598564455,2023-12-11 16h21.40.403837 -0500,
11.0,"[-0.64, -0.4]",space,,,,,0.0,11.0,11.0,11.0,,,,,1921.2544372,,,,,,,,,,,,,,,,,,,,,,,,,,,,,,,,,,,,,,,,,,,,,,1921.2392882,1921.2544372,1921.2544372,1921.7547782,1921.7547782,1924.2545203,1924.2545203,1924.23839,space,1.0,0.3815763000002334,None,,,,,,,,,,,,,,,,,,,,,,,nback16,1.0,2023-12-11_16h21.30.750,untitled,2023.2.3,60.033414598564455,2023-12-11 16h21.40.403837 -0500,
4.0,"[-0.2, 0.1]",None,,,,,0.0,12.0,12.0,12.0,,,,,1924.2545203,,,,,,,,,,,,,,,,,,,,,,,,,,,,,,,,,,,,,,,,,,,,,,1924.2390599,1924.2545203,1924.2545203,1924.7545407,1924.7545407,1927.2545317,1927.2545317,1927.2386586,None,1.0,,,,,,,,,,,,,,,,,,,,,,,,,nback16,1.0,2023-12-11_16h21.30.750,untitled,2023.2.3,60.033414598564455,2023-12-11 16h21.40.403837 -0500,
3.0,"[0, 0.2]",None,,,,,0.0,13.0,13.0,13.0,,,,,1927.2545317,,,,,,,,,,,,,,,,,,,,,,,,,,,,,,,,,,,,,,,,,,,,,,1927.2393325,1927.2545317,1927.2545317,1927.7546361,1927.7546361,1930.2545198,1930.2545198,1930.238267,None,1.0,,,,,,,,,,,,,,,,,,,,,,,,,nback16,1.0,2023-12-11_16h21.30.750,untitled,2023.2.3,60.033414598564455,2023-12-11 16h21.40.403837 -0500,
3.0,"[0, 0.2]",space,,,,,0.0,14.0,14.0,14.0,,,,,1930.2545198,,,,,,,,,,,,,,,,,,,,,,,,,,,,,,,,,,,,,,,,,,,,,,1930.2387838,1930.2545198,1930.2545198,1930.7544726,1930.7544726,1933.2545546,1933.2545546,1933.2386805,space,1.0,0.4184525999999096,None,,,,,,,,,,,,,,,,,,,,,,,nback16,1.0,2023-12-11_16h21.30.750,untitled,2023.2.3,60.033414598564455,2023-12-11 16h21.40.403837 -0500,
8.0,"[-0.2, -0.1]",None,,,,,0.0,15.0,15.0,15.0,,,,,1933.2545546,,,,,,,,,,,,,,,,,,,,,,,,,,,,,,,,,,,,,,,,,,,,,,1933.2394326,1933.2545546,1933.2545546,1933.7544218,1933.7544218,1936.2544689,1936.2544689,1936.2385102,None,1.0,,,,,,,,,,,,,,,,,,,,,,,,,nback16,1.0,2023-12-11_16h21.30.750,untitled,2023.2.3,60.033414598564455,2023-12-11 16h21.40.403837 -0500,
1.0,"[-0.64, 0.4]",None,,,,,0.0,16.0,16.0,16.0,,,,,1936.2544689,,,,,,,,,,,,,,,,,,,,,,,,,,,,,,,,,,,,,,,,,,,,,,1936.2390608,1936.2544689,1936.2544689,1936.7544391,1936.7544391,1939.2543868,1939.2543868,1939.2386957,None,1.0,,,,,,,,,,,,,,,,,,,,,,,,,nback16,1.0,2023-12-11_16h21.30.750,untitled,2023.2.3,60.033414598564455,2023-12-11 16h21.40.403837 -0500,
2.0,"[0.64, 0.4]",None,,,,,0.0,17.0,17.0,17.0,,,,,1939.2543868,,,,,,,,,,,,,,,,,,,,,,,,,,,,,,,,,,,,,,,,,,,,,,1939.2393357,1939.2543868,1939.2543868,1939.7542834,1939.7542834,1942.2542582,1942.2542582,1942.2384878,None,1.0,,,,,,,,,,,,,,,,,,,,,,,,,nback16,1.0,2023-12-11_16h21.30.750,untitled,2023.2.3,60.033414598564455,2023-12-11 16h21.40.403837 -0500,
4.0,"[-0.2, 0.1]",None,,,,,0.0,18.0,18.0,18.0,,,,,1942.2542582,,,,,,,,,,,,,,,,,,,,,,,,,,,,,,,,,,,,,,,,,,,,,,1942.239199,1942.2542582,1942.2542582,1942.7543324,1942.7543324,1945.2542052,1945.2542052,1945.2379642,None,1.0,,,,,,,,,,,,,,,,,,,,,,,,,nback16,1.0,2023-12-11_16h21.30.750,untitled,2023.2.3,60.033414598564455,2023-12-11 16h21.40.403837 -0500,
4.0,"[-0.2, 0.1]",space,,,,,0.0,19.0,19.0,19.0,,,,,1945.2542052,,,,,,,,,,,,,,,,,,,,,,,,,,,,,,,,,,,,,,,,,,,,,,1945.2382915,1945.2542052,1945.2542052,1945.7541269,1945.7541269,1948.2542336,1948.2542336,1948.2387554,space,1.0,0.5475482000001648,None,,,,,,,,,,,,,,,,,,,,,,,nback16,1.0,2023-12-11_16h21.30.750,untitled,2023.2.3,60.033414598564455,2023-12-11 16h21.40.403837 -0500,
8.0,"[-0.2, -0.1]",None,,,,,0.0,20.0,20.0,20.0,,,,,1948.2542336,,,,,,,,,,,,,,,,,,,,,,,,,,,,,,,,,,,,,,,,,,,,,,1948.2397808,1948.2542336,1948.2542336,1948.7543243,1948.7543243,1951.2540456,1951.2540456,1951.238062,None,1.0,,,,,,,,,,,,,,,,,,,,,,,,,nback16,1.0,2023-12-11_16h21.30.750,untitled,2023.2.3,60.033414598564455,2023-12-11 16h21.40.403837 -0500,
5.0,"[0.2, 0.1]",None,,,,,0.0,21.0,21.0,21.0,,,,,1951.2540456,,,,,,,,,,,,,,,,,,,,,,,,,,,,,,,,,,,,,,,,,,,,,,1951.2386392,1951.2540456,1951.2540456,1951.7541816,1951.7541816,1954.2541718,1954.2541718,1954.2387256,None,1.0,,,,,,,,,,,,,,,,,,,,,,,,,nback16,1.0,2023-12-11_16h21.30.750,untitled,2023.2.3,60.033414598564455,2023-12-11 16h21.40.403837 -0500,
5.0,"[0.2, 0.1]",space,,,,,0.0,22.0,22.0,22.0,,,,,1954.2541718,,,,,,,,,,,,,,,,,,,,,,,,,,,,,,,,,,,,,,,,,,,,,,1954.2395644,1954.2541718,1954.2541718,1954.7541156,1954.7541156,1957.2541477,1957.2541477,1957.2382485,space,1.0,0.3580186000003778,None,,,,,,,,,,,,,,,,,,,,,,,nback16,1.0,2023-12-11_16h21.30.750,untitled,2023.2.3,60.033414598564455,2023-12-11 16h21.40.403837 -0500,
1.0,"[-0.64, 0.4]",None,,,,,0.0,23.0,23.0,23.0,,,,,1957.2541477,,,,,,,,,,,,,,,,,,,,,,,,,,,,,,,,,,,,,,,,,,,,,,1957.2389891,1957.2541477,1957.2541477,1957.7541112,1957.7541112,1960.2538858,1960.2538858,1960.2382344,None,1.0,,,,,,,,,,,,,,,,,,,,,,,,,nback16,1.0,2023-12-11_16h21.30.750,untitled,2023.2.3,60.033414598564455,2023-12-11 16h21.40.403837 -0500,
3.0,"[0, 0.2]",None,,,,,0.0,24.0,24.0,24.0,,,,,1960.2538858,,,,,,,,,,,,,,,,,,,,,,,,,,,,,,,,,,,,,,,,,,,,,,1960.2389323,1960.2538858,1960.2538858,1960.7540352,1960.7540352,1963.2538529,1963.2538529,1963.2384329,None,1.0,,,,,,,,,,,,,,,,,,,,,,,,,nback16,1.0,2023-12-11_16h21.30.750,untitled,2023.2.3,60.033414598564455,2023-12-11 16h21.40.403837 -0500,
6.0,"[-0.3, 0]",None,,,,,0.0,25.0,25.0,25.0,,,,,1963.2538529,,,,,,,,,,,,,,,,,,,,,,,,,,,,,,,,,,,,,,,,,,,,,,1963.2392067,1963.2538529,1963.2538529,1963.7540451,1963.7540451,1966.2539525,1966.2539525,1966.2381039,None,1.0,,,,,,,,,,,,,,,,,,,,,,,,,nback16,1.0,2023-12-11_16h21.30.750,untitled,2023.2.3,60.033414598564455,2023-12-11 16h21.40.403837 -0500,
1.0,"[-0.64, 0.4]",None,,,,,0.0,26.0,26.0,26.0,,,,,1966.2539525,,,,,,,,,,,,,,,,,,,,,,,,,,,,,,,,,,,,,,,,,,,,,,1966.2387758,1966.2539525,1966.2539525,1966.7539738,1966.7539738,1969.2538516,1969.2538516,1969.2380656,None,1.0,,,,,,,,,,,,,,,,,,,,,,,,,nback16,1.0,2023-12-11_16h21.30.750,untitled,2023.2.3,60.033414598564455,2023-12-11 16h21.40.403837 -0500,
1.0,"[-0.64, 0.4]",space,,,,,0.0,27.0,27.0,27.0,,,,,1969.2538516,,,,,,,,,,,,,,,,,,,,,,,,,,,,,,,,,,,,,,,,,,,,,,1969.238732,1969.2538516,1969.2538516,1969.7537103,1969.7537103,1972.2538537,1972.2538537,1972.2380754,space,1.0,0.4551581999999143,None,,,,,,,,,,,,,,,,,,,,,,,nback16,1.0,2023-12-11_16h21.30.750,untitled,2023.2.3,60.033414598564455,2023-12-11 16h21.40.403837 -0500,
1.0,"[-0.64, 0.4]",space,,,,,0.0,28.0,28.0,28.0,,,,,1972.2538537,,,,,,,,,,,,,,,,,,,,,,,,,,,,,,,,,,,,,,,,,,,,,,1972.2389563,1972.2538537,1972.2538537,1972.7538967,1972.7538967,1975.25374,1975.25374,1975.2378798,None,0.0,,,,,,,,,,,,,,,,,,,,,,,,,nback16,1.0,2023-12-11_16h21.30.750,untitled,2023.2.3,60.033414598564455,2023-12-11 16h21.40.403837 -0500,
3.0,"[0, 0.2]",None,,,,,0.0,29.0,29.0,29.0,,,,,1975.25374,,,,,,,,,,,,,,,,,,,,,,,,,,,,,,,,,,,,,,,,,,,,,,1975.2385284,1975.25374,1975.25374,1975.7537187,1975.7537187,1978.2537688,1978.2537688,1978.2377244,None,1.0,,,,,,,,,,,,,,,,,,,,,,,,,nback16,1.0,2023-12-11_16h21.30.750,untitled,2023.2.3,60.033414598564455,2023-12-11 16h21.40.403837 -0500,
12.0,"[0.64, -0.4]",None,,,,,0.0,30.0,30.0,30.0,,,,,1978.2537688,,,,,,,,,,,,,,,,,,,,,,,,,,,,,,,,,,,,,,,,,,,,,,1978.2383252,1978.2537688,1978.2537688,1978.7536589,1978.7536589,1981.2536901,1981.2536901,1981.2380553,None,1.0,,,,,,,,,,,,,,,,,,,,,,,,,nback16,1.0,2023-12-11_16h21.30.750,untitled,2023.2.3,60.033414598564455,2023-12-11 16h21.40.403837 -0500,
12.0,"[0.64, -0.4]",space,,,,,0.0,31.0,31.0,31.0,,,,,1981.2536901,,,,,,,,,,,,,,,,,,,,,,,,,,,,,,,,,,,,,,,,,,,,,,1981.2388472,1981.2536901,1981.2536901,1981.7538224,1981.7538224,1984.2535476,1984.2535476,1984.2380001,space,1.0,0.5828661999998985,None,,,,,,,,,,,,,,,,,,,,,,,nback16,1.0,2023-12-11_16h21.30.750,untitled,2023.2.3,60.033414598564455,2023-12-11 16h21.40.403837 -0500,
2.0,"[0.64, 0.4]",None,,,,,0.0,32.0,32.0,32.0,,,,,1984.2535476,,,,,,,,,,,,,,,,,,,,,,,,,,,,,,,,,,,,,,,,,,,,,,1984.2391021,1984.2535476,1984.2535476,1984.7536049,1984.7536049,1987.253625,1987.253625,1987.2379101,None,1.0,,,,,,,,,,,,,,,,,,,,,,,,,nback16,1.0,2023-12-11_16h21.30.750,untitled,2023.2.3,60.033414598564455,2023-12-11 16h21.40.403837 -0500,
1.0,"[-0.64, 0.4]",None,,,,,0.0,33.0,33.0,33.0,,,,,1987.253625,,,,,,,,,,,,,,,,,,,,,,,,,,,,,,,,,,,,,,,,,,,,,,1987.2387432,1987.253625,1987.253625,1987.7536254,1987.7536254,1990.2536164,1990.2536164,1990.2382149,None,1.0,,,,,,,,,,,,,,,,,,,,,,,,,nback16,1.0,2023-12-11_16h21.30.750,untitled,2023.2.3,60.033414598564455,2023-12-11 16h21.40.403837 -0500,
7.0,"[0.3, 0]",None,,,,,0.0,34.0,34.0,34.0,,,,,1990.2536164,,,,,,,,,,,,,,,,,,,,,,,,,,,,,,,,,,,,,,,,,,,,,,1990.2390699,1990.2536164,1990.2536164,1990.7534562,1990.7534562,1993.2534221,1993.2534221,1993.2376741,None,1.0,,,,,,,,,,,,,,,,,,,,,,,,,nback16,1.0,2023-12-11_16h21.30.750,untitled,2023.2.3,60.033414598564455,2023-12-11 16h21.40.403837 -0500,
7.0,"[0.3, 0]",space,,,,,0.0,35.0,35.0,35.0,,,,,1993.2534221,,,,,,,,,,,,,,,,,,,,,,,,,,,,,,,,,,,,,,,,,,,,,,1993.2382906,1993.2534221,1993.2534221,1993.7535806,1993.7535806,1996.2534167,1996.2534167,1996.2375994,space,1.0,0.3629731000000902,None,,,,,,,,,,,,,,,,,,,,,,,nback16,1.0,2023-12-11_16h21.30.750,untitled,2023.2.3,60.033414598564455,2023-12-11 16h21.40.403837 -0500,
11.0,"[-0.64, -0.4]",None,,,,,0.0,36.0,36.0,36.0,,,,,1996.2534167,,,,,,,,,,,,,,,,,,,,,,,,,,,,,,,,,,,,,,,,,,,,,,1996.2384905,1996.2534167,1996.2534167,1996.7535619,1996.7535619,1999.2533065,1999.2533065,1999.2374211,None,1.0,,,,,,,,,,,,,,,,,,,,,,,,,nback16,1.0,2023-12-11_16h21.30.750,untitled,2023.2.3,60.033414598564455,2023-12-11 16h21.40.403837 -0500,
2.0,"[0.64, 0.4]",None,,,,,0.0,37.0,37.0,37.0,,,,,1999.2533065,,,,,,,,,,,,,,,,,,,,,,,,,,,,,,,,,,,,,,,,,,,,,,1999.237984,1999.2533065,1999.2533065,1999.753196,1999.753196,2002.253377,2002.253377,2002.2376478,None,1.0,,,,,,,,,,,,,,,,,,,,,,,,,nback16,1.0,2023-12-11_16h21.30.750,untitled,2023.2.3,60.033414598564455,2023-12-11 16h21.40.403837 -0500,
6.0,"[-0.3, 0]",None,,,,,0.0,38.0,38.0,38.0,,,,,2002.253377,,,,,,,,,,,,,,,,,,,,,,,,,,,,,,,,,,,,,,,,,,,,,,2002.2383498,2002.253377,2002.253377,2002.7533392,2002.7533392,2005.2531421,2005.2531421,2005.2373249,None,1.0,,,,,,,,,,,,,,,,,,,,,,,,,nback16,1.0,2023-12-11_16h21.30.750,untitled,2023.2.3,60.033414598564455,2023-12-11 16h21.40.403837 -0500,
10.0,"[0, -0.2]",None,,,,,0.0,39.0,39.0,39.0,,,,,2005.2531421,,,,,,,,,,,,,,,,,,,,,,,,,,,,,,,,,,,,,,,,,,,,,,2005.2379853,2005.2531421,2005.2531421,2005.7533653,2005.7533653,2008.2533695,2008.2533695,2008.2370128,None,1.0,,,,,,,,,,,,,,,,,,,,,,,,,nback16,1.0,2023-12-11_16h21.30.750,untitled,2023.2.3,60.033414598564455,2023-12-11 16h21.40.403837 -0500,
,,,,,,,,,,,,,,,,,,,,,,,,,,,,,,,,,,,,,,,,,,,,,,,,,,,,,,,,,,,,,,,,,,,,,,,,,2008.2373437,2008.2533695,2008.2533695,2062.1539087,space,53.89917240000045,None,,,,,,,,,,,,,,,,nback16,1.0,2023-12-11_16h21.30.750,untitled,2023.2.3,60.033414598564455,2023-12-11 16h21.40.403837 -0500,
,"[0.2, 0.1]",None,,,,,,,,,0.0,0.0,0.0,0.0,2063.1700766000004,,,,,,,,,,,,,,,,,,,,,,,,2062.1539487,2062.1690352,2063.1700766000004,2063.1531097,,,,,,,,,,,,,,,,,,,,,,,,,,,,,,,,,,,,,,2063.1682282,2063.1700766000004,2063.1700766000004,2063.6689631000004,2063.6858646,2066.1692285000004,2066.1692285000004,2066.1535114000003,None,1.0,,,,,,nback16,1.0,2023-12-11_16h21.30.750,untitled,2023.2.3,60.033414598564455,2023-12-11 16h21.40.403837 -0500,
,"[0.64, 0.4]",None,,,,,,,,,0.0,1.0,1.0,1.0,2066.1692285000004,,,,,,,,,,,,,,,,,,,,,,,,,,,,,,,,,,,,,,,,,,,,,,,,,,,,,,,,,,,,,,,,,2066.1545294,2066.1692285000004,2066.1692285000004,2066.6688291,2066.6688291,2069.1688612000003,2069.1688612000003,2069.1531201000003,None,1.0,,,,,,nback16,1.0,2023-12-11_16h21.30.750,untitled,2023.2.3,60.033414598564455,2023-12-11 16h21.40.403837 -0500,
,"[-0.3, 0]",None,,,,,,,,,0.0,2.0,2.0,2.0,2069.1688612000003,,,,,,,,,,,,,,,,,,,,,,,,,,,,,,,,,,,,,,,,,,,,,,,,,,,,,,,,,,,,,,,,,2069.1537791,2069.1688612000003,2069.1688612000003,2069.6689997000003,2069.6689997000003,2072.1690325000004,2072.1690325000004,2072.1531623,None,1.0,,,,,,nback16,1.0,2023-12-11_16h21.30.750,untitled,2023.2.3,60.033414598564455,2023-12-11 16h21.40.403837 -0500,
,"[0.2, -0.1]",None,,,,,,,,,0.0,3.0,3.0,3.0,2072.1690325000004,,,,,,,,,,,,,,,,,,,,,,,,,,,,,,,,,,,,,,,,,,,,,,,,,,,,,,,,,,,,,,,,,2072.1538131,2072.1690325000004,2072.1690325000004,2072.6688936,2072.6688936,2075.1688473000004,2075.1688473000004,2075.1530034,None,1.0,,,,,,nback16,1.0,2023-12-11_16h21.30.750,untitled,2023.2.3,60.033414598564455,2023-12-11 16h21.40.403837 -0500,
,"[0, 0.2]",None,,,,,,,,,0.0,4.0,4.0,4.0,2075.1688473000004,,,,,,,,,,,,,,,,,,,,,,,,,,,,,,,,,,,,,,,,,,,,,,,,,,,,,,,,,,,,,,,,,2075.1537815,2075.1688473000004,2075.1688473000004,2075.6688878,2075.6688878,2078.1687451000003,2078.1687451000003,2078.1531895000003,None,1.0,,,,,,nback16,1.0,2023-12-11_16h21.30.750,untitled,2023.2.3,60.033414598564455,2023-12-11 16h21.40.403837 -0500,
,"[0.2, -0.1]",space,,,,,,,,,0.0,5.0,5.0,5.0,2078.1687451000003,,,,,,,,,,,,,,,,,,,,,,,,,,,,,,,,,,,,,,,,,,,,,,,,,,,,,,,,,,,,,,,,,2078.1540713000004,2078.1687451000003,2078.1687451000003,2078.6686912,2078.6686912,2081.1687676,2081.1687676,2081.1526336,space,1.0,0.6451658000000862,None,,,,nback16,1.0,2023-12-11_16h21.30.750,untitled,2023.2.3,60.033414598564455,2023-12-11 16h21.40.403837 -0500,
,"[0, -0.2]",None,,,,,,,,,0.0,6.0,6.0,6.0,2081.1687676,,,,,,,,,,,,,,,,,,,,,,,,,,,,,,,,,,,,,,,,,,,,,,,,,,,,,,,,,,,,,,,,,2081.1535235,2081.1687676,2081.1687676,2081.6687326,2081.6687326,2084.1689178,2084.1689178,2084.1530486,None,1.0,,,,,,nback16,1.0,2023-12-11_16h21.30.750,untitled,2023.2.3,60.033414598564455,2023-12-11 16h21.40.403837 -0500,
,"[0.64, -0.4]",None,,,,,,,,,0.0,7.0,7.0,7.0,2084.1689178,,,,,,,,,,,,,,,,,,,,,,,,,,,,,,,,,,,,,,,,,,,,,,,,,,,,,,,,,,,,,,,,,2084.1538947000004,2084.1689178,2084.1689178,2084.6689509000003,2084.6689509000003,2087.1687271,2087.1687271,2087.1527425000004,None,1.0,,,,,,nback16,1.0,2023-12-11_16h21.30.750,untitled,2023.2.3,60.033414598564455,2023-12-11 16h21.40.403837 -0500,
,"[0.3, 0]",None,,,,,,,,,0.0,8.0,8.0,8.0,2087.1687271,,,,,,,,,,,,,,,,,,,,,,,,,,,,,,,,,,,,,,,,,,,,,,,,,,,,,,,,,,,,,,,,,2087.1533678,2087.1687271,2087.1687271,2087.668463,2087.668463,2090.1685928,2090.1685928,2090.1529602,None,1.0,,,,,,nback16,1.0,2023-12-11_16h21.30.750,untitled,2023.2.3,60.033414598564455,2023-12-11 16h21.40.403837 -0500,
,"[0.64, -0.4]",space,,,,,,,,,0.0,9.0,9.0,9.0,2090.1685928,,,,,,,,,,,,,,,,,,,,,,,,,,,,,,,,,,,,,,,,,,,,,,,,,,,,,,,,,,,,,,,,,2090.1536979,2090.1685928,2090.1685928,2090.6686871,2090.6686871,2093.16854,2093.16854,2093.1525559,space,1.0,0.7775867999998809,None,,,,nback16,1.0,2023-12-11_16h21.30.750,untitled,2023.2.3,60.033414598564455,2023-12-11 16h21.40.403837 -0500,
,"[-0.64, 0.4]",None,,,,,,,,,0.0,10.0,10.0,10.0,2093.16854,,,,,,,,,,,,,,,,,,,,,,,,,,,,,,,,,,,,,,,,,,,,,,,,,,,,,,,,,,,,,,,,,2093.1533027,2093.16854,2093.16854,2093.6685438000004,2093.6685438000004,2096.1684379000003,2096.1684379000003,2096.1519809,None,1.0,,,,,,nback16,1.0,2023-12-11_16h21.30.750,untitled,2023.2.3,60.033414598564455,2023-12-11 16h21.40.403837 -0500,
,"[0.2, 0.1]",None,,,,,,,,,0.0,11.0,11.0,11.0,2096.1684379000003,,,,,,,,,,,,,,,,,,,,,,,,,,,,,,,,,,,,,,,,,,,,,,,,,,,,,,,,,,,,,,,,,2096.1522876000004,2096.1684379000003,2096.1684379000003,2096.6685637,2096.6685637,2099.1685863,2099.1685863,2099.1527586,None,1.0,,,,,,nback16,1.0,2023-12-11_16h21.30.750,untitled,2023.2.3,60.033414598564455,2023-12-11 16h21.40.403837 -0500,
,"[0.3, 0]",None,,,,,,,,,0.0,12.0,12.0,12.0,2099.1685863,,,,,,,,,,,,,,,,,,,,,,,,,,,,,,,,,,,,,,,,,,,,,,,,,,,,,,,,,,,,,,,,,2099.1535846,2099.1685863,2099.1685863,2099.6685361,2099.6685361,2102.1682659000003,2102.1682659000003,2102.1524783,None,1.0,,,,,,nback16,1.0,2023-12-11_16h21.30.750,untitled,2023.2.3,60.033414598564455,2023-12-11 16h21.40.403837 -0500,
,"[0.2, 0.1]",space,,,,,,,,,0.0,13.0,13.0,13.0,2102.1682659000003,,,,,,,,,,,,,,,,,,,,,,,,,,,,,,,,,,,,,,,,,,,,,,,,,,,,,,,,,,,,,,,,,2102.1531428000003,2102.1682659000003,2102.1682659000003,2102.6683190000003,2102.6683190000003,2105.1682764,2105.1682764,2105.1522857,space,1.0,0.5586708000000726,None,,,,nback16,1.0,2023-12-11_16h21.30.750,untitled,2023.2.3,60.033414598564455,2023-12-11 16h21.40.403837 -0500,
,"[-0.3, 0]",None,,,,,,,,,0.0,14.0,14.0,14.0,2105.1682764,,,,,,,,,,,,,,,,,,,,,,,,,,,,,,,,,,,,,,,,,,,,,,,,,,,,,,,,,,,,,,,,,2105.1528985,2105.1682764,2105.1682764,2105.6683859,2105.6683859,2108.1683708,2108.1683708,2108.152645,None,1.0,,,,,,nback16,1.0,2023-12-11_16h21.30.750,untitled,2023.2.3,60.033414598564455,2023-12-11 16h21.40.403837 -0500,
,"[0, 0.2]",None,,,,,,,,,0.0,15.0,15.0,15.0,2108.1683708,,,,,,,,,,,,,,,,,,,,,,,,,,,,,,,,,,,,,,,,,,,,,,,,,,,,,,,,,,,,,,,,,2108.1534616000004,2108.1683708,2108.1683708,2108.6683733,2108.6683733,2111.1681792000004,2111.1681792000004,2111.1523996,None,1.0,,,,,,nback16,1.0,2023-12-11_16h21.30.750,untitled,2023.2.3,60.033414598564455,2023-12-11 16h21.40.403837 -0500,
,"[-0.3, 0]",space,,,,,,,,,0.0,16.0,16.0,16.0,2111.1681792000004,,,,,,,,,,,,,,,,,,,,,,,,,,,,,,,,,,,,,,,,,,,,,,,,,,,,,,,,,,,,,,,,,2111.1531828,2111.1681792000004,2111.1681792000004,2111.6681892,2111.6681892,2114.1681209000003,2114.1681209000003,2114.1525033000003,space,1.0,0.3998660000002019,None,,,,nback16,1.0,2023-12-11_16h21.30.750,untitled,2023.2.3,60.033414598564455,2023-12-11 16h21.40.403837 -0500,
,"[-0.64, -0.4]",None,,,,,,,,,0.0,17.0,17.0,17.0,2114.1681209000003,,,,,,,,,,,,,,,,,,,,,,,,,,,,,,,,,,,,,,,,,,,,,,,,,,,,,,,,,,,,,,,,,2114.1535514,2114.1681209000003,2114.1681209000003,2114.6681822,2114.6681822,2117.1682100000003,2117.1682100000003,2117.1524587000004,None,1.0,,,,,,nback16,1.0,2023-12-11_16h21.30.750,untitled,2023.2.3,60.033414598564455,2023-12-11 16h21.40.403837 -0500,
,"[-0.2, -0.1]",None,,,,,,,,,0.0,18.0,18.0,18.0,2117.1682100000003,,,,,,,,,,,,,,,,,,,,,,,,,,,,,,,,,,,,,,,,,,,,,,,,,,,,,,,,,,,,,,,,,2117.1532173,2117.1682100000003,2117.1682100000003,2117.6684871,2117.6684871,2120.168007,2120.168007,2120.1520983,None,1.0,,,,,,nback16,1.0,2023-12-11_16h21.30.750,untitled,2023.2.3,60.033414598564455,2023-12-11 16h21.40.403837 -0500,
,"[0.2, -0.1]",None,,,,,,,,,0.0,19.0,19.0,19.0,2120.168007,,,,,,,,,,,,,,,,,,,,,,,,,,,,,,,,,,,,,,,,,,,,,,,,,,,,,,,,,,,,,,,,,2120.1527357,2120.168007,2120.168007,2120.6682812000004,2120.6682812000004,2123.1680303000003,2123.1680303000003,2123.1521166,None,1.0,,,,,,nback16,1.0,2023-12-11_16h21.30.750,untitled,2023.2.3,60.033414598564455,2023-12-11 16h21.40.403837 -0500,
,"[0.2, -0.1]",None,,,,,,,,,0.0,20.0,20.0,20.0,2123.1680303000003,,,,,,,,,,,,,,,,,,,,,,,,,,,,,,,,,,,,,,,,,,,,,,,,,,,,,,,,,,,,,,,,,2123.1527062,2123.1680303000003,2123.1680303000003,2123.6679474,2123.6679474,2126.1681755,2126.1681755,2126.1523782000004,None,1.0,,,,,,nback16,1.0,2023-12-11_16h21.30.750,untitled,2023.2.3,60.033414598564455,2023-12-11 16h21.40.403837 -0500,
,"[-0.64, 0.4]",None,,,,,,,,,0.0,21.0,21.0,21.0,2126.1681755,,,,,,,,,,,,,,,,,,,,,,,,,,,,,,,,,,,,,,,,,,,,,,,,,,,,,,,,,,,,,,,,,2126.1531427,2126.1681755,2126.1681755,2126.6679943000004,2126.6679943000004,2129.1677721,2129.1677721,2129.1518344,None,1.0,,,,,,nback16,1.0,2023-12-11_16h21.30.750,untitled,2023.2.3,60.033414598564455,2023-12-11 16h21.40.403837 -0500,
,"[0, 0.2]",None,,,,,,,,,0.0,22.0,22.0,22.0,2129.1677721,,,,,,,,,,,,,,,,,,,,,,,,,,,,,,,,,,,,,,,,,,,,,,,,,,,,,,,,,,,,,,,,,2129.1524202,2129.1677721,2129.1677721,2129.6680126,2129.6680126,2132.1679323000003,2132.1679323000003,2132.1520735000004,None,1.0,,,,,,nback16,1.0,2023-12-11_16h21.30.750,untitled,2023.2.3,60.033414598564455,2023-12-11 16h21.40.403837 -0500,
,"[0.64, -0.4]",None,,,,,,,,,0.0,23.0,23.0,23.0,2132.1679323000003,,,,,,,,,,,,,,,,,,,,,,,,,,,,,,,,,,,,,,,,,,,,,,,,,,,,,,,,,,,,,,,,,2132.1527568,2132.1679323000003,2132.1679323000003,2132.6681688000003,2132.6681688000003,2135.1679518,2135.1679518,2135.1522955,None,1.0,,,,,,nback16,1.0,2023-12-11_16h21.30.750,untitled,2023.2.3,60.033414598564455,2023-12-11 16h21.40.403837 -0500,
,"[0, 0.2]",space,,,,,,,,,0.0,24.0,24.0,24.0,2135.1679518,,,,,,,,,,,,,,,,,,,,,,,,,,,,,,,,,,,,,,,,,,,,,,,,,,,,,,,,,,,,,,,,,2135.1530860000003,2135.1679518,2135.1679518,2135.6677925000004,2135.6677925000004,2138.1677635,2138.1677635,2138.152132,space,1.0,0.308794300000045,None,,,,nback16,1.0,2023-12-11_16h21.30.750,untitled,2023.2.3,60.033414598564455,2023-12-11 16h21.40.403837 -0500,
,"[-0.2, 0.1]",None,,,,,,,,,0.0,25.0,25.0,25.0,2138.1677635,,,,,,,,,,,,,,,,,,,,,,,,,,,,,,,,,,,,,,,,,,,,,,,,,,,,,,,,,,,,,,,,,2138.1530868,2138.1677635,2138.1677635,2138.667719,2138.667719,2141.1678694,2141.1678694,2141.1522222000003,None,1.0,,,,,,nback16,1.0,2023-12-11_16h21.30.750,untitled,2023.2.3,60.033414598564455,2023-12-11 16h21.40.403837 -0500,
,"[0.3, 0]",None,,,,,,,,,0.0,26.0,26.0,26.0,2141.1678694,,,,,,,,,,,,,,,,,,,,,,,,,,,,,,,,,,,,,,,,,,,,,,,,,,,,,,,,,,,,,,,,,2141.1530515000004,2141.1678694,2141.1678694,2141.6678785000004,2141.6678785000004,2144.1678271,2144.1678271,2144.1522022000004,None,1.0,,,,,,nback16,1.0,2023-12-11_16h21.30.750,untitled,2023.2.3,60.033414598564455,2023-12-11 16h21.40.403837 -0500,
,"[-0.2, 0.1]",space,,,,,,,,,0.0,27.0,27.0,27.0,2144.1678271,,,,,,,,,,,,,,,,,,,,,,,,,,,,,,,,,,,,,,,,,,,,,,,,,,,,,,,,,,,,,,,,,2144.1530434,2144.1678271,2144.1678271,2144.6675818000003,2144.6675818000003,2147.1678177000003,2147.1678177000003,2147.1520440000004,space,1.0,0.3597027000000707,None,,,,nback16,1.0,2023-12-11_16h21.30.750,untitled,2023.2.3,60.033414598564455,2023-12-11 16h21.40.403837 -0500,
,"[-0.2, 0.1]",None,,,,,,,,,0.0,28.0,28.0,28.0,2147.1678177000003,,,,,,,,,,,,,,,,,,,,,,,,,,,,,,,,,,,,,,,,,,,,,,,,,,,,,,,,,,,,,,,,,2147.1529871,2147.1678177000003,2147.1678177000003,2147.6675733,2147.6675733,2150.1675949,2150.1675949,2150.1520328,None,1.0,,,,,,nback16,1.0,2023-12-11_16h21.30.750,untitled,2023.2.3,60.033414598564455,2023-12-11 16h21.40.403837 -0500,
,"[0.2, 0.1]",None,,,,,,,,,0.0,29.0,29.0,29.0,2150.1675949,,,,,,,,,,,,,,,,,,,,,,,,,,,,,,,,,,,,,,,,,,,,,,,,,,,,,,,,,,,,,,,,,2150.152834,2150.1675949,2150.1675949,2150.6674981,2150.6674981,2153.1675488,2153.1675488,2153.1517446000003,None,1.0,,,,,,nback16,1.0,2023-12-11_16h21.30.750,untitled,2023.2.3,60.033414598564455,2023-12-11 16h21.40.403837 -0500,
,"[-0.64, -0.4]",None,,,,,,,,,0.0,30.0,30.0,30.0,2153.1675488,,,,,,,,,,,,,,,,,,,,,,,,,,,,,,,,,,,,,,,,,,,,,,,,,,,,,,,,,,,,,,,,,2153.1525444000004,2153.1675488,2153.1675488,2153.6675847,2153.6675847,2156.167578,2156.167578,2156.1518601,None,1.0,,,,,,nback16,1.0,2023-12-11_16h21.30.750,untitled,2023.2.3,60.033414598564455,2023-12-11 16h21.40.403837 -0500,
,"[0, -0.2]",None,,,,,,,,,0.0,31.0,31.0,31.0,2156.167578,,,,,,,,,,,,,,,,,,,,,,,,,,,,,,,,,,,,,,,,,,,,,,,,,,,,,,,,,,,,,,,,,2156.1526173,2156.167578,2156.167578,2156.6675573,2156.6675573,2159.1675398,2159.1675398,2159.1518099,None,1.0,,,,,,nback16,1.0,2023-12-11_16h21.30.750,untitled,2023.2.3,60.033414598564455,2023-12-11 16h21.40.403837 -0500,
,"[-0.64, -0.4]",space,,,,,,,,,0.0,32.0,32.0,32.0,2159.1675398,,,,,,,,,,,,,,,,,,,,,,,,,,,,,,,,,,,,,,,,,,,,,,,,,,,,,,,,,,,,,,,,,2159.1525884,2159.1675398,2159.1675398,2159.6674344000003,2159.6674344000003,2162.1676549000003,2162.1676549000003,2162.1518276,space,1.0,0.416979099999935,None,,,,nback16,1.0,2023-12-11_16h21.30.750,untitled,2023.2.3,60.033414598564455,2023-12-11 16h21.40.403837 -0500,
,"[0.64, 0.4]",None,,,,,,,,,0.0,33.0,33.0,33.0,2162.1676549000003,,,,,,,,,,,,,,,,,,,,,,,,,,,,,,,,,,,,,,,,,,,,,,,,,,,,,,,,,,,,,,,,,2162.1528367,2162.1676549000003,2162.1676549000003,2162.6674432,2162.6674432,2165.1674437,2165.1674437,2165.1518963000003,None,1.0,,,,,,nback16,1.0,2023-12-11_16h21.30.750,untitled,2023.2.3,60.033414598564455,2023-12-11 16h21.40.403837 -0500,
,"[-0.3, 0]",None,,,,,,,,,0.0,34.0,34.0,34.0,2165.1674437,,,,,,,,,,,,,,,,,,,,,,,,,,,,,,,,,,,,,,,,,,,,,,,,,,,,,,,,,,,,,,,,,2165.152732,2165.1674437,2165.1674437,2165.6674255000003,2165.6674255000003,2168.16818,2168.16818,2168.1516384,None,1.0,,,,,,nback16,1.0,2023-12-11_16h21.30.750,untitled,2023.2.3,60.033414598564455,2023-12-11 16h21.40.403837 -0500,
,"[0.3, 0]",None,,,,,,,,,0.0,35.0,35.0,35.0,2168.16818,,,,,,,,,,,,,,,,,,,,,,,,,,,,,,,,,,,,,,,,,,,,,,,,,,,,,,,,,,,,,,,,,2168.1524040000004,2168.16818,2168.16818,2168.6674591,2168.6674591,2171.1671642,,2171.1673414,None,1.0,,,,,,nback16,1.0,2023-12-11_16h21.30.750,untitled,2023.2.3,60.033414598564455,2023-12-11 16h21.40.403837 -0500,
,"[-0.3, 0]",space,,,,,,,,,0.0,36.0,36.0,36.0,2171.1841344000004,,,,,,,,,,,,,,,,,,,,,,,,,,,,,,,,,,,,,,,,,,,,,,,,,,,,,,,,,,,,,,,,,2171.1680155000004,2171.1841344000004,2171.1841344000004,2171.6673098,2171.6838985000004,2174.1672224000004,,2174.1674055000003,space,1.0,0.6258634999999231,None,,,,nback16,1.0,2023-12-11_16h21.30.750,untitled,2023.2.3,60.033414598564455,2023-12-11 16h21.40.403837 -0500,
,"[0, -0.2]",None,,,,,,,,,0.0,37.0,37.0,37.0,2174.1839895000003,,,,,,,,,,,,,,,,,,,,,,,,,,,,,,,,,,,,,,,,,,,,,,,,,,,,,,,,,,,,,,,,,2174.1684087000003,2174.1839895000003,2174.1839895000003,2174.6672735,2174.6839924,2177.1673311000004,,2177.1675360000004,None,1.0,,,,,,nback16,1.0,2023-12-11_16h21.30.750,untitled,2023.2.3,60.033414598564455,2023-12-11 16h21.40.403837 -0500,
,"[0.3, 0]",None,,,,,,,,,0.0,38.0,38.0,38.0,2177.1838254000004,,,,,,,,,,,,,,,,,,,,,,,,,,,,,,,,,,,,,,,,,,,,,,,,,,,,,,,,,,,,,,,,,2177.1683237,2177.1838254000004,2177.1838254000004,2177.6671918,2177.6838161,2180.1670785,,2180.1672495000003,None,1.0,,,,,,nback16,1.0,2023-12-11_16h21.30.750,untitled,2023.2.3,60.033414598564455,2023-12-11 16h21.40.403837 -0500,
,"[0.2, 0.1]",None,,,,,,,,,0.0,39.0,39.0,39.0,2180.1839250000003,,,,,,,,,,,,,,,,,,,,,,,,,,,,,,,,,,,,,,,,,,,,,,,,,,,,,,,,,,,,,,,,,2180.1679125,2180.1839250000003,2180.1839250000003,2180.6671688,2180.6838380000004,2183.1671432000003,,2183.1673171,None,1.0,,,,,,nback16,1.0,2023-12-11_16h21.30.750,untitled,2023.2.3,60.033414598564455,2023-12-11 16h21.40.403837 -0500,
,,,,,,,,,,,,,,,,,,,,,,,,,,,,,,,,,,,,,,,,,,,,,,,,,,,,,,,,,,,,,,,,,,,,,,,,,,,,,,,,,,,,,,,,,,,,2183.1677911,2183.1839756000004,2186.1674406,,,,,,,,
