square,location,corrAns,trials_0.thisRepN,trials_0.thisTrialN,trials_0.thisN,trials_0.thisIndex,trials_1.thisRepN,trials_1.thisTrialN,trials_1.thisN,trials_1.thisIndex,trials_2.thisRepN,trials_2.thisTrialN,trials_2.thisN,trials_2.thisIndex,thisRow.t,notes,Instructions.started,instructions.started,key_resp.started,inst_sq11.started,Instructions.stopped,key_resp.keys,key_resp.rt,key_resp.duration,All.started,sq_1.started,sq_2.started,sq_3.started,sq_4.started,sq_5.started,sq_6.started,sq_7.started,sq_8.started,sq_9.started,sq_10.started,sq_11.started,sq_12.started,All.stopped,Fixation.started,fixation_3.started,fixation_3.stopped,Fixation.stopped,N_back_0_Trial.started,target_square_0.started,response_0.started,fixation_0.started,target_square_0.stopped,fixation_0.stopped,N_back_0_Trial.stopped,response_0.keys,response_0.corr,response_0.rt,response_0.duration,Instructions_1.started,instructions_1.started,key_resp_1.started,Instructions_1.stopped,key_resp_1.keys,key_resp_1.rt,key_resp_1.duration,N_back_1_Trial.started,target_square_1.started,response_1.started,target_square_1.stopped,fixation_1.started,fixation_1.stopped,response_1.stopped,N_back_1_Trial.stopped,response_1.keys,response_1.corr,response_1.rt,response_1.duration,Instructions_2.started,instructions_2.started,key_resp_2.started,Instructions_2.stopped,key_resp_2.keys,key_resp_2.rt,key_resp_2.duration,N_back_2_trials.started,target_square_2.started,response_2.started,fixation_2.started,target_square_2.stopped,fixation_2.stopped,N_back_2_trials.stopped,response_2.keys,response_2.corr,response_2.rt,response_2.duration,End.started,thank_you.started,End.stopped,participant,session,date,expName,psychopyVersion,frameRate,expStart,Unnamed: 101
,,,,,,,,,,,,,,,,,0.0014391000149771,0.0037932000122964,0.0037932000122964,0.0037932000122964,1703.5594158000313,space,1703.545137600042,None,,,,,,,,,,,,,,,,,,,,,,,,,,,,,,,,,,,,,,,,,,,,,,,,,,,,,,,,,,,,,,,,,,,,,,nback62,1.0,2024-01-19_15h27.04.947,untitled,2023.2.3,60.031144150133,2024-01-19 15h49.54.572113 -0500,
6.0,"[-0.3, 0]",None,0.0,0.0,0.0,0.0,,,,,,,,,1705.5784700000077,,,,,,,,,,1703.5594593000133,1703.574691100046,1703.574691100046,1703.574691100046,1703.574691100046,1703.574691100046,1703.574691100046,1703.574691100046,1703.574691100046,1703.574691100046,1703.574691100046,1703.574691100046,1703.574691100046,1704.5587421000237,1704.558768899995,1704.5747305999976,1705.5784700000077,1705.5588933000108,1705.5766071000253,1705.5784700000077,1705.5784700000077,1706.0580213000069,1706.091411900008,1708.5578661000472,1708.574902000022,None,1.0,,,,,,,,,,,,,,,,,,,,,,,,,,,,,,,,,,,,,,,,,,,nback62,1.0,2024-01-19_15h27.04.947,untitled,2023.2.3,60.031144150133,2024-01-19 15h49.54.572113 -0500,
10.0,"[0, -0.2]",None,0.0,1.0,1.0,1.0,,,,,,,,,1708.5912657000008,,,,,,,,,,,,,,,,,,,,,,,,,,,,1708.575360900024,1708.5912657000008,1708.5912657000008,1709.0579117000452,1709.0912480000409,1711.5580362000037,1711.5749404000237,None,1.0,,,,,,,,,,,,,,,,,,,,,,,,,,,,,,,,,,,,,,,,,,,nback62,1.0,2024-01-19_15h27.04.947,untitled,2023.2.3,60.031144150133,2024-01-19 15h49.54.572113 -0500,
11.0,"[-0.64, -0.4]",space,0.0,2.0,2.0,2.0,,,,,,,,,1711.591362300038,,,,,,,,,,,,,,,,,,,,,,,,,,,,1711.575706200034,1711.591362300038,1711.591362300038,1712.0579128999962,1712.0911207000026,1714.5578925000154,1714.5748472000123,space,1.0,0.458719199988991,None,,,,,,,,,,,,,,,,,,,,,,,,,,,,,,,,,,,,,,,,,nback62,1.0,2024-01-19_15h27.04.947,untitled,2023.2.3,60.031144150133,2024-01-19 15h49.54.572113 -0500,
12.0,"[0.64, -0.4]",None,0.0,3.0,3.0,3.0,,,,,,,,,1714.5911042999942,,,,,,,,,,,,,,,,,,,,,,,,,,,,1714.5760368999909,1714.5911042999942,1714.5911042999942,1715.0579521000036,1715.0912031999906,1717.5578543000156,1717.574626000016,None,1.0,,,,,,,,,,,,,,,,,,,,,,,,,,,,,,,,,,,,,,,,,,,nback62,1.0,2024-01-19_15h27.04.947,untitled,2023.2.3,60.031144150133,2024-01-19 15h49.54.572113 -0500,
1.0,"[-0.64, 0.4]",None,0.0,4.0,4.0,4.0,,,,,,,,,1717.5912347999983,,,,,,,,,,,,,,,,,,,,,,,,,,,,1717.5753199000028,1717.5912347999983,1717.5912347999983,1718.0577342000324,1718.0913238000358,1720.55796060001,1720.574712100031,None,1.0,,,,,,,,,,,,,,,,,,,,,,,,,,,,,,,,,,,,,,,,,,,nback62,1.0,2024-01-19_15h27.04.947,untitled,2023.2.3,60.031144150133,2024-01-19 15h49.54.572113 -0500,
1.0,"[-0.64, 0.4]",None,0.0,5.0,5.0,5.0,,,,,,,,,1720.5913160000346,,,,,,,,,,,,,,,,,,,,,,,,,,,,1720.5755380000337,1720.5913160000346,1720.5913160000346,1721.0579758000094,1721.0913351000054,1723.5577677999972,1723.5747207000386,None,1.0,,,,,,,,,,,,,,,,,,,,,,,,,,,,,,,,,,,,,,,,,,,nback62,1.0,2024-01-19_15h27.04.947,untitled,2023.2.3,60.031144150133,2024-01-19 15h49.54.572113 -0500,
4.0,"[-0.2, 0.1]",None,0.0,6.0,6.0,6.0,,,,,,,,,1723.5911366000073,,,,,,,,,,,,,,,,,,,,,,,,,,,,1723.5755360000185,1723.5911366000073,1723.5911366000073,1724.0745355000254,1724.0910654000472,1726.5742699000402,1726.5744243999943,None,1.0,,,,,,,,,,,,,,,,,,,,,,,,,,,,,,,,,,,,,,,,,,,nback62,1.0,2024-01-19_15h27.04.947,untitled,2023.2.3,60.031144150133,2024-01-19 15h49.54.572113 -0500,
5.0,"[0.2, 0.1]",None,0.0,7.0,7.0,7.0,,,,,,,,,1726.5909470000188,,,,,,,,,,,,,,,,,,,,,,,,,,,,1726.5749978999957,1726.5909470000188,1726.5909470000188,1727.0743883000105,1727.091060900013,1729.5744481000002,1729.574624600005,None,1.0,,,,,,,,,,,,,,,,,,,,,,,,,,,,,,,,,,,,,,,,,,,nback62,1.0,2024-01-19_15h27.04.947,untitled,2023.2.3,60.031144150133,2024-01-19 15h49.54.572113 -0500,
11.0,"[-0.64, -0.4]",space,0.0,8.0,8.0,8.0,,,,,,,,,1729.591014000005,,,,,,,,,,,,,,,,,,,,,,,,,,,,1729.575324000034,1729.591014000005,1729.591014000005,1730.074102200044,1730.0906930000056,1732.5742296000244,1732.574496300018,space,1.0,0.4348584999679588,None,,,,,,,,,,,,,,,,,,,,,,,,,,,,,,,,,,,,,,,,,nback62,1.0,2024-01-19_15h27.04.947,untitled,2023.2.3,60.031144150133,2024-01-19 15h49.54.572113 -0500,
9.0,"[0.2, -0.1]",None,0.0,9.0,9.0,9.0,,,,,,,,,1732.5908281000447,,,,,,,,,,,,,,,,,,,,,,,,,,,,1732.5753242000355,1732.5908281000447,1732.5908281000447,1733.0742705000448,1733.0908581000404,1735.5743531000337,1735.5745294000371,None,1.0,,,,,,,,,,,,,,,,,,,,,,,,,,,,,,,,,,,,,,,,,,,nback62,1.0,2024-01-19_15h27.04.947,untitled,2023.2.3,60.031144150133,2024-01-19 15h49.54.572113 -0500,
8.0,"[-0.2, -0.1]",None,0.0,10.0,10.0,10.0,,,,,,,,,1735.5909897999954,,,,,,,,,,,,,,,,,,,,,,,,,,,,1735.5752231000224,1735.5909897999954,1735.5909897999954,1736.0742559999926,1736.0907713000197,1738.5741429000043,1738.5742993000313,None,1.0,,,,,,,,,,,,,,,,,,,,,,,,,,,,,,,,,,,,,,,,,,,nback62,1.0,2024-01-19_15h27.04.947,untitled,2023.2.3,60.031144150133,2024-01-19 15h49.54.572113 -0500,
9.0,"[0.2, -0.1]",None,0.0,11.0,11.0,11.0,,,,,,,,,1738.59081220004,,,,,,,,,,,,,,,,,,,,,,,,,,,,1738.5749114000355,1738.59081220004,1738.59081220004,1739.0742454000283,1739.0908353000414,1741.5739357999992,1741.5740717000444,None,1.0,,,,,,,,,,,,,,,,,,,,,,,,,,,,,,,,,,,,,,,,,,,nback62,1.0,2024-01-19_15h27.04.947,untitled,2023.2.3,60.031144150133,2024-01-19 15h49.54.572113 -0500,
6.0,"[-0.3, 0]",None,0.0,12.0,12.0,12.0,,,,,,,,,1741.5905974000343,,,,,,,,,,,,,,,,,,,,,,,,,,,,1741.5745969000272,1741.5905974000343,1741.5905974000343,1742.0740508000015,1742.0907647000276,1744.5742461000336,1744.5744352000183,None,1.0,,,,,,,,,,,,,,,,,,,,,,,,,,,,,,,,,,,,,,,,,,,nback62,1.0,2024-01-19_15h27.04.947,untitled,2023.2.3,60.031144150133,2024-01-19 15h49.54.572113 -0500,
9.0,"[0.2, -0.1]",None,0.0,13.0,13.0,13.0,,,,,,,,,1744.59076370002,,,,,,,,,,,,,,,,,,,,,,,,,,,,1744.5751740999983,1744.59076370002,1744.59076370002,1745.0741187999956,1745.090675799991,1747.5739615000202,1747.5741314000334,None,1.0,,,,,,,,,,,,,,,,,,,,,,,,,,,,,,,,,,,,,,,,,,,nback62,1.0,2024-01-19_15h27.04.947,untitled,2023.2.3,60.031144150133,2024-01-19 15h49.54.572113 -0500,
7.0,"[0.3, 0]",None,0.0,14.0,14.0,14.0,,,,,,,,,1747.5907237000065,,,,,,,,,,,,,,,,,,,,,,,,,,,,1747.5747758999933,1747.5907237000065,1747.5907237000065,1748.0738947000357,1748.0907171000144,1750.5741318000364,1750.574368200032,None,1.0,,,,,,,,,,,,,,,,,,,,,,,,,,,,,,,,,,,,,,,,,,,nback62,1.0,2024-01-19_15h27.04.947,untitled,2023.2.3,60.031144150133,2024-01-19 15h49.54.572113 -0500,
2.0,"[0.64, 0.4]",None,0.0,15.0,15.0,15.0,,,,,,,,,1750.5905377000454,,,,,,,,,,,,,,,,,,,,,,,,,,,,1750.5752213000087,1750.5905377000454,1750.5905377000454,1751.0740446000127,1751.0905085999984,1753.5739514000015,1753.574109200039,None,1.0,,,,,,,,,,,,,,,,,,,,,,,,,,,,,,,,,,,,,,,,,,,nback62,1.0,2024-01-19_15h27.04.947,untitled,2023.2.3,60.031144150133,2024-01-19 15h49.54.572113 -0500,
2.0,"[0.64, 0.4]",None,0.0,16.0,16.0,16.0,,,,,,,,,1753.5904413000098,,,,,,,,,,,,,,,,,,,,,,,,,,,,1753.5748036000296,1753.5904413000098,1753.5904413000098,1754.0740402000374,1754.0904817000264,1756.573903600045,1756.5740762000205,None,1.0,,,,,,,,,,,,,,,,,,,,,,,,,,,,,,,,,,,,,,,,,,,nback62,1.0,2024-01-19_15h27.04.947,untitled,2023.2.3,60.031144150133,2024-01-19 15h49.54.572113 -0500,
11.0,"[-0.64, -0.4]",space,0.0,17.0,17.0,17.0,,,,,,,,,1756.5904456000426,,,,,,,,,,,,,,,,,,,,,,,,,,,,1756.5747094000108,1756.5904456000426,1756.5904456000426,1757.0738222000073,1757.0903449000325,1759.5739050999982,1759.574114100018,space,1.0,0.4104630000074394,None,,,,,,,,,,,,,,,,,,,,,,,,,,,,,,,,,,,,,,,,,nback62,1.0,2024-01-19_15h27.04.947,untitled,2023.2.3,60.031144150133,2024-01-19 15h49.54.572113 -0500,
11.0,"[-0.64, -0.4]",space,0.0,18.0,18.0,18.0,,,,,,,,,1759.590605400037,,,,,,,,,,,,,,,,,,,,,,,,,,,,1759.5750934000243,1759.590605400037,1759.590605400037,1760.0737529000037,1760.0903642000048,1762.573958699999,1762.574168900028,space,1.0,0.4461845999467186,None,,,,,,,,,,,,,,,,,,,,,,,,,,,,,,,,,,,,,,,,,nback62,1.0,2024-01-19_15h27.04.947,untitled,2023.2.3,60.031144150133,2024-01-19 15h49.54.572113 -0500,
7.0,"[0.3, 0]",None,0.0,19.0,19.0,19.0,,,,,,,,,1762.590313200024,,,,,,,,,,,,,,,,,,,,,,,,,,,,1762.5751848000218,1762.590313200024,1762.590313200024,1763.073720400047,1763.090524900006,1765.5737408000275,1765.5739161000238,None,1.0,,,,,,,,,,,,,,,,,,,,,,,,,,,,,,,,,,,,,,,,,,,nback62,1.0,2024-01-19_15h27.04.947,untitled,2023.2.3,60.031144150133,2024-01-19 15h49.54.572113 -0500,
3.0,"[0, 0.2]",None,0.0,20.0,20.0,20.0,,,,,,,,,1765.5903085000464,,,,,,,,,,,,,,,,,,,,,,,,,,,,1765.5746276000282,1765.5903085000464,1765.5903085000464,1766.0735838999972,1766.090406900039,1768.573680600035,1768.573868700012,None,1.0,,,,,,,,,,,,,,,,,,,,,,,,,,,,,,,,,,,,,,,,,,,nback62,1.0,2024-01-19_15h27.04.947,untitled,2023.2.3,60.031144150133,2024-01-19 15h49.54.572113 -0500,
10.0,"[0, -0.2]",None,0.0,21.0,21.0,21.0,,,,,,,,,1768.590312400018,,,,,,,,,,,,,,,,,,,,,,,,,,,,1768.5746064000414,1768.590312400018,1768.590312400018,1769.0735717000207,1769.090286599996,1771.5736609000014,1771.573837600008,None,1.0,,,,,,,,,,,,,,,,,,,,,,,,,,,,,,,,,,,,,,,,,,,nback62,1.0,2024-01-19_15h27.04.947,untitled,2023.2.3,60.031144150133,2024-01-19 15h49.54.572113 -0500,
1.0,"[-0.64, 0.4]",None,0.0,22.0,22.0,22.0,,,,,,,,,1771.5902425000097,,,,,,,,,,,,,,,,,,,,,,,,,,,,1771.574642200023,1771.5902425000097,1771.5902425000097,1772.073416500003,1772.09000190004,1774.5734599000425,1774.5736164000118,None,1.0,,,,,,,,,,,,,,,,,,,,,,,,,,,,,,,,,,,,,,,,,,,nback62,1.0,2024-01-19_15h27.04.947,untitled,2023.2.3,60.031144150133,2024-01-19 15h49.54.572113 -0500,
2.0,"[0.64, 0.4]",None,0.0,23.0,23.0,23.0,,,,,,,,,1774.590069900034,,,,,,,,,,,,,,,,,,,,,,,,,,,,1774.574235000007,1774.590069900034,1774.590069900034,1775.0734396000043,1775.0901131000137,1777.5736218999955,1777.573843299993,None,1.0,,,,,,,,,,,,,,,,,,,,,,,,,,,,,,,,,,,,,,,,,,,nback62,1.0,2024-01-19_15h27.04.947,untitled,2023.2.3,60.031144150133,2024-01-19 15h49.54.572113 -0500,
6.0,"[-0.3, 0]",None,0.0,24.0,24.0,24.0,,,,,,,,,1777.5901487999945,,,,,,,,,,,,,,,,,,,,,,,,,,,,1777.5746543999994,1777.5901487999945,1777.5901487999945,1778.0735386000017,1778.0901011000387,1780.573524700012,1780.5737037000365,None,1.0,,,,,,,,,,,,,,,,,,,,,,,,,,,,,,,,,,,,,,,,,,,nback62,1.0,2024-01-19_15h27.04.947,untitled,2023.2.3,60.031144150133,2024-01-19 15h49.54.572113 -0500,
3.0,"[0, 0.2]",None,0.0,25.0,25.0,25.0,,,,,,,,,1780.5900777000352,,,,,,,,,,,,,,,,,,,,,,,,,,,,1780.5743843000382,1780.5900777000352,1780.5900777000352,1781.073405400035,1781.0901065000216,1783.5735197000322,1783.5737176000257,None,1.0,,,,,,,,,,,,,,,,,,,,,,,,,,,,,,,,,,,,,,,,,,,nback62,1.0,2024-01-19_15h27.04.947,untitled,2023.2.3,60.031144150133,2024-01-19 15h49.54.572113 -0500,
11.0,"[-0.64, -0.4]",space,0.0,26.0,26.0,26.0,,,,,,,,,1783.590096400003,,,,,,,,,,,,,,,,,,,,,,,,,,,,1783.574477599992,1783.590096400003,1783.590096400003,1784.0733929999988,1784.0900323000387,1786.5732103000046,1786.573376400047,space,1.0,0.493951000040397,None,,,,,,,,,,,,,,,,,,,,,,,,,,,,,,,,,,,,,,,,,nback62,1.0,2024-01-19_15h27.04.947,untitled,2023.2.3,60.031144150133,2024-01-19 15h49.54.572113 -0500,
1.0,"[-0.64, 0.4]",None,0.0,27.0,27.0,27.0,,,,,,,,,1786.5900400000392,,,,,,,,,,,,,,,,,,,,,,,,,,,,1786.5742638999943,1786.5900400000392,1786.5900400000392,1787.073270199995,1787.0897770000156,1789.5732916000416,1789.5734457999934,None,1.0,,,,,,,,,,,,,,,,,,,,,,,,,,,,,,,,,,,,,,,,,,,nback62,1.0,2024-01-19_15h27.04.947,untitled,2023.2.3,60.031144150133,2024-01-19 15h49.54.572113 -0500,
3.0,"[0, 0.2]",None,0.0,28.0,28.0,28.0,,,,,,,,,1789.58991650003,,,,,,,,,,,,,,,,,,,,,,,,,,,,1789.5740364000085,1789.58991650003,1789.58991650003,1790.073254499992,1790.0899258000427,1792.5732030000072,1792.573370500002,None,1.0,,,,,,,,,,,,,,,,,,,,,,,,,,,,,,,,,,,,,,,,,,,nback62,1.0,2024-01-19_15h27.04.947,untitled,2023.2.3,60.031144150133,2024-01-19 15h49.54.572113 -0500,
9.0,"[0.2, -0.1]",None,0.0,29.0,29.0,29.0,,,,,,,,,1792.5897222000058,,,,,,,,,,,,,,,,,,,,,,,,,,,,1792.574095399992,1792.5897222000058,1792.5897222000058,1793.073221400031,1793.0898520000046,1795.5732605000376,1795.5734613999955,None,1.0,,,,,,,,,,,,,,,,,,,,,,,,,,,,,,,,,,,,,,,,,,,nback62,1.0,2024-01-19_15h27.04.947,untitled,2023.2.3,60.031144150133,2024-01-19 15h49.54.572113 -0500,
8.0,"[-0.2, -0.1]",None,0.0,30.0,30.0,30.0,,,,,,,,,1795.5899420999922,,,,,,,,,,,,,,,,,,,,,,,,,,,,1795.5742228000308,1795.5899420999922,1795.5899420999922,1796.073316599999,1796.0899073000182,1798.5730938999914,1798.57329010003,None,1.0,,,,,,,,,,,,,,,,,,,,,,,,,,,,,,,,,,,,,,,,,,,nback62,1.0,2024-01-19_15h27.04.947,untitled,2023.2.3,60.031144150133,2024-01-19 15h49.54.572113 -0500,
12.0,"[0.64, -0.4]",None,0.0,31.0,31.0,31.0,,,,,,,,,1798.5896988000022,,,,,,,,,,,,,,,,,,,,,,,,,,,,1798.574046600028,1798.5896988000022,1798.5896988000022,1799.0731131000211,1799.0897433999926,1801.5730380000316,1801.57323020004,None,1.0,,,,,,,,,,,,,,,,,,,,,,,,,,,,,,,,,,,,,,,,,,,nback62,1.0,2024-01-19_15h27.04.947,untitled,2023.2.3,60.031144150133,2024-01-19 15h49.54.572113 -0500,
9.0,"[0.2, -0.1]",None,0.0,32.0,32.0,32.0,,,,,,,,,1801.5896337000304,,,,,,,,,,,,,,,,,,,,,,,,,,,,1801.5738664999956,1801.5896337000304,1801.5896337000304,1802.0730331999948,1802.089701000019,1804.5731291000263,1804.573308899999,None,1.0,,,,,,,,,,,,,,,,,,,,,,,,,,,,,,,,,,,,,,,,,,,nback62,1.0,2024-01-19_15h27.04.947,untitled,2023.2.3,60.031144150133,2024-01-19 15h49.54.572113 -0500,
11.0,"[-0.64, -0.4]",space,0.0,33.0,33.0,33.0,,,,,,,,,1804.5897773000177,,,,,,,,,,,,,,,,,,,,,,,,,,,,1804.574018100044,1804.5897773000177,1804.5897773000177,1805.073017399991,1805.089602300024,1807.5730907000247,1807.573289800028,space,1.0,0.4051388999796472,None,,,,,,,,,,,,,,,,,,,,,,,,,,,,,,,,,,,,,,,,,nback62,1.0,2024-01-19_15h27.04.947,untitled,2023.2.3,60.031144150133,2024-01-19 15h49.54.572113 -0500,
7.0,"[0.3, 0]",None,0.0,34.0,34.0,34.0,,,,,,,,,1807.5895923000064,,,,,,,,,,,,,,,,,,,,,,,,,,,,1807.574150200002,1807.5895923000064,1807.5895923000064,1808.0730942999944,1808.0895997000043,1810.5728735000007,1810.573062200041,None,1.0,,,,,,,,,,,,,,,,,,,,,,,,,,,,,,,,,,,,,,,,,,,nback62,1.0,2024-01-19_15h27.04.947,untitled,2023.2.3,60.031144150133,2024-01-19 15h49.54.572113 -0500,
11.0,"[-0.64, -0.4]",space,0.0,35.0,35.0,35.0,,,,,,,,,1810.589613899996,,,,,,,,,,,,,,,,,,,,,,,,,,,,1810.5738589999964,1810.589613899996,1810.589613899996,1811.0729216000184,1811.0893775000004,1813.5729724999983,1813.5731602000303,space,1.0,0.5336229999666102,None,,,,,,,,,,,,,,,,,,,,,,,,,,,,,,,,,,,,,,,,,nback62,1.0,2024-01-19_15h27.04.947,untitled,2023.2.3,60.031144150133,2024-01-19 15h49.54.572113 -0500,
4.0,"[-0.2, 0.1]",None,0.0,36.0,36.0,36.0,,,,,,,,,1813.589608500013,,,,,,,,,,,,,,,,,,,,,,,,,,,,1813.574025800044,1813.589608500013,1813.589608500013,1814.073016600043,1814.089599600004,1816.5728611000231,1816.5730586000136,None,1.0,,,,,,,,,,,,,,,,,,,,,,,,,,,,,,,,,,,,,,,,,,,nback62,1.0,2024-01-19_15h27.04.947,untitled,2023.2.3,60.031144150133,2024-01-19 15h49.54.572113 -0500,
5.0,"[0.2, 0.1]",None,0.0,37.0,37.0,37.0,,,,,,,,,1816.5894621000043,,,,,,,,,,,,,,,,,,,,,,,,,,,,1816.5738026000329,1816.5894621000043,1816.5894621000043,1817.0728088000324,1817.0894729000283,1819.5725415000345,1819.572642100044,None,1.0,,,,,,,,,,,,,,,,,,,,,,,,,,,,,,,,,,,,,,,,,,,nback62,1.0,2024-01-19_15h27.04.947,untitled,2023.2.3,60.031144150133,2024-01-19 15h49.54.572113 -0500,
6.0,"[-0.3, 0]",None,0.0,38.0,38.0,38.0,,,,,,,,,1819.589250500023,,,,,,,,,,,,,,,,,,,,,,,,,,,,1819.5730142000248,1819.589250500023,1819.589250500023,1820.0727185000435,1820.0892818000284,1822.5725161000155,1822.5726135000004,None,1.0,,,,,,,,,,,,,,,,,,,,,,,,,,,,,,,,,,,,,,,,,,,nback62,1.0,2024-01-19_15h27.04.947,untitled,2023.2.3,60.031144150133,2024-01-19 15h49.54.572113 -0500,
11.0,"[-0.64, -0.4]",space,0.0,39.0,39.0,39.0,,,,,,,,,1822.589217700006,,,,,,,,,,,,,,,,,,,,,,,,,,,,1822.572973400005,1822.589217700006,1822.589217700006,1823.0725347000407,1823.0892363000312,1825.5725227000075,1825.5726208999984,space,1.0,0.3510482999845408,None,,,,,,,,,,,,,,,,,,,,,,,,,,,,,,,,,,,,,,,,,nback62,1.0,2024-01-19_15h27.04.947,untitled,2023.2.3,60.031144150133,2024-01-19 15h49.54.572113 -0500,
,,,,,,,,,,,,,,,,,,,,,,,,,,,,,,,,,,,,,,,,,,,,,,,,,,,,,,1825.57295240002,1825.5893306999933,1825.5893306999933,1840.6906332999931,space,15.0899188000476,None,,,,,,,,,,,,,,,,,,,,,,,,,,,,,,,,,,nback62,1.0,2024-01-19_15h27.04.947,untitled,2023.2.3,60.031144150133,2024-01-19 15h49.54.572113 -0500,
10.0,"[0, -0.2]",None,,,,,0.0,0.0,0.0,0.0,,,,,1841.70632560004,,,,,,,,,,,,,,,,,,,,,,,,1840.690676100028,1840.7056691999896,1841.70632560004,1841.6897763000447,,,,,,,,,,,,,,,,,,,1841.7043148000373,1841.70632560004,1841.70632560004,1842.2056516000305,1842.2056516000305,1844.7056239999947,1844.7056239999947,1844.6896949000077,None,1.0,,,,,,,,,,,,,,,,,,,,,,,,nback62,1.0,2024-01-19_15h27.04.947,untitled,2023.2.3,60.031144150133,2024-01-19 15h49.54.572113 -0500,
5.0,"[0.2, 0.1]",None,,,,,0.0,1.0,1.0,1.0,,,,,1844.7056239999947,,,,,,,,,,,,,,,,,,,,,,,,,,,,,,,,,,,,,,,,,,,,,,1844.69068,1844.7056239999947,1844.7056239999947,1845.205760700046,1845.205760700046,1847.7054901000229,1847.7054901000229,1847.6897795000116,None,1.0,,,,,,,,,,,,,,,,,,,,,,,,nback62,1.0,2024-01-19_15h27.04.947,untitled,2023.2.3,60.031144150133,2024-01-19 15h49.54.572113 -0500,
6.0,"[-0.3, 0]",None,,,,,0.0,2.0,2.0,2.0,,,,,1847.7054901000229,,,,,,,,,,,,,,,,,,,,,,,,,,,,,,,,,,,,,,,,,,,,,,1847.6904704000333,1847.7054901000229,1847.7054901000229,1848.205588600016,1848.205588600016,1850.7055161000465,1850.7055161000465,1850.6897995999896,None,1.0,,,,,,,,,,,,,,,,,,,,,,,,nback62,1.0,2024-01-19_15h27.04.947,untitled,2023.2.3,60.031144150133,2024-01-19 15h49.54.572113 -0500,
6.0,"[-0.3, 0]",space,,,,,0.0,3.0,3.0,3.0,,,,,1850.7055161000465,,,,,,,,,,,,,,,,,,,,,,,,,,,,,,,,,,,,,,,,,,,,,,1850.6905628000384,1850.7055161000465,1850.7055161000465,1851.2054281000164,1851.2054281000164,1853.7054016000477,1853.7054016000477,1853.689668200037,space,1.0,0.704158800013829,None,,,,,,,,,,,,,,,,,,,,,,nback62,1.0,2024-01-19_15h27.04.947,untitled,2023.2.3,60.031144150133,2024-01-19 15h49.54.572113 -0500,
12.0,"[0.64, -0.4]",None,,,,,0.0,4.0,4.0,4.0,,,,,1853.7054016000477,,,,,,,,,,,,,,,,,,,,,,,,,,,,,,,,,,,,,,,,,,,,,,1853.690728400019,1853.7054016000477,1853.7054016000477,1854.2056927999947,1854.2056927999947,1856.7054348000088,1856.7054348000088,1856.6895635999967,None,1.0,,,,,,,,,,,,,,,,,,,,,,,,nback62,1.0,2024-01-19_15h27.04.947,untitled,2023.2.3,60.031144150133,2024-01-19 15h49.54.572113 -0500,
10.0,"[0, -0.2]",None,,,,,0.0,5.0,5.0,5.0,,,,,1856.7054348000088,,,,,,,,,,,,,,,,,,,,,,,,,,,,,,,,,,,,,,,,,,,,,,1856.690170900023,1856.7054348000088,1856.7054348000088,1857.20559670002,1857.20559670002,1859.705274100008,1859.705274100008,1859.6894504000084,None,1.0,,,,,,,,,,,,,,,,,,,,,,,,nback62,1.0,2024-01-19_15h27.04.947,untitled,2023.2.3,60.031144150133,2024-01-19 15h49.54.572113 -0500,
2.0,"[0.64, 0.4]",None,,,,,0.0,6.0,6.0,6.0,,,,,1859.705274100008,,,,,,,,,,,,,,,,,,,,,,,,,,,,,,,,,,,,,,,,,,,,,,1859.6899857000096,1859.705274100008,1859.705274100008,1860.2054732000104,1860.2054732000104,1862.7052627000376,1862.7052627000376,1862.689722900046,None,1.0,,,,,,,,,,,,,,,,,,,,,,,,nback62,1.0,2024-01-19_15h27.04.947,untitled,2023.2.3,60.031144150133,2024-01-19 15h49.54.572113 -0500,
9.0,"[0.2, -0.1]",None,,,,,0.0,7.0,7.0,7.0,,,,,1862.7052627000376,,,,,,,,,,,,,,,,,,,,,,,,,,,,,,,,,,,,,,,,,,,,,,1862.690497800009,1862.7052627000376,1862.7052627000376,1863.2053212000171,1863.2053212000171,1865.7052029999904,1865.7052029999904,1865.6888408000232,None,1.0,,,,,,,,,,,,,,,,,,,,,,,,nback62,1.0,2024-01-19_15h27.04.947,untitled,2023.2.3,60.031144150133,2024-01-19 15h49.54.572113 -0500,
9.0,"[0.2, -0.1]",space,,,,,0.0,8.0,8.0,8.0,,,,,1865.7052029999904,,,,,,,,,,,,,,,,,,,,,,,,,,,,,,,,,,,,,,,,,,,,,,1865.6891541000225,1865.7052029999904,1865.7052029999904,1866.2053074000287,1866.2053074000287,1868.70519030001,1868.70519030001,1868.6897178000072,space,1.0,0.3592229000059888,None,,,,,,,,,,,,,,,,,,,,,,nback62,1.0,2024-01-19_15h27.04.947,untitled,2023.2.3,60.031144150133,2024-01-19 15h49.54.572113 -0500,
6.0,"[-0.3, 0]",None,,,,,0.0,9.0,9.0,9.0,,,,,1868.70519030001,,,,,,,,,,,,,,,,,,,,,,,,,,,,,,,,,,,,,,,,,,,,,,1868.6907086000429,1868.70519030001,1868.70519030001,1869.205379699997,1869.205379699997,1871.7051429999992,1871.7051429999992,1871.6893632000429,None,1.0,,,,,,,,,,,,,,,,,,,,,,,,nback62,1.0,2024-01-19_15h27.04.947,untitled,2023.2.3,60.031144150133,2024-01-19 15h49.54.572113 -0500,
11.0,"[-0.64, -0.4]",None,,,,,0.0,10.0,10.0,10.0,,,,,1871.7051429999992,,,,,,,,,,,,,,,,,,,,,,,,,,,,,,,,,,,,,,,,,,,,,,1871.6899965000337,1871.7051429999992,1871.7051429999992,1872.2050980000056,1872.2050980000056,1874.7051006000256,1874.7051006000256,1874.6891887999957,None,1.0,,,,,,,,,,,,,,,,,,,,,,,,nback62,1.0,2024-01-19_15h27.04.947,untitled,2023.2.3,60.031144150133,2024-01-19 15h49.54.572113 -0500,
11.0,"[-0.64, -0.4]",space,,,,,0.0,11.0,11.0,11.0,,,,,1874.7051006000256,,,,,,,,,,,,,,,,,,,,,,,,,,,,,,,,,,,,,,,,,,,,,,1874.6898013000027,1874.7051006000256,1874.7051006000256,1875.2057128000304,1875.2057128000304,1877.7051176000384,1877.7051176000384,1877.689244600013,space,1.0,0.4507130999700166,None,,,,,,,,,,,,,,,,,,,,,,nback62,1.0,2024-01-19_15h27.04.947,untitled,2023.2.3,60.031144150133,2024-01-19 15h49.54.572113 -0500,
4.0,"[-0.2, 0.1]",None,,,,,0.0,12.0,12.0,12.0,,,,,1877.7051176000384,,,,,,,,,,,,,,,,,,,,,,,,,,,,,,,,,,,,,,,,,,,,,,1877.6900550000137,1877.7051176000384,1877.7051176000384,1878.2051082000253,1878.2051082000253,1880.705111999996,1880.705111999996,1880.6894351000085,None,1.0,,,,,,,,,,,,,,,,,,,,,,,,nback62,1.0,2024-01-19_15h27.04.947,untitled,2023.2.3,60.031144150133,2024-01-19 15h49.54.572113 -0500,
3.0,"[0, 0.2]",None,,,,,0.0,13.0,13.0,13.0,,,,,1880.705111999996,,,,,,,,,,,,,,,,,,,,,,,,,,,,,,,,,,,,,,,,,,,,,,1880.6902529000072,1880.705111999996,1880.705111999996,1881.205039700028,1881.205039700028,1883.7050617000205,1883.7050617000205,1883.689465100004,None,1.0,,,,,,,,,,,,,,,,,,,,,,,,nback62,1.0,2024-01-19_15h27.04.947,untitled,2023.2.3,60.031144150133,2024-01-19 15h49.54.572113 -0500,
3.0,"[0, 0.2]",space,,,,,0.0,14.0,14.0,14.0,,,,,1883.7050617000205,,,,,,,,,,,,,,,,,,,,,,,,,,,,,,,,,,,,,,,,,,,,,,1883.6903040999896,1883.7050617000205,1883.7050617000205,1884.2049636000304,1884.2049636000304,1886.7051471000304,1886.7051471000304,1886.6894148000283,space,1.0,0.4102322000544518,None,,,,,,,,,,,,,,,,,,,,,,nback62,1.0,2024-01-19_15h27.04.947,untitled,2023.2.3,60.031144150133,2024-01-19 15h49.54.572113 -0500,
8.0,"[-0.2, -0.1]",None,,,,,0.0,15.0,15.0,15.0,,,,,1886.7051471000304,,,,,,,,,,,,,,,,,,,,,,,,,,,,,,,,,,,,,,,,,,,,,,1886.6904258000432,1886.7051471000304,1886.7051471000304,1887.2050441000029,1887.2050441000029,1889.7048246000195,1889.7048246000195,1889.6890793000348,None,1.0,,,,,,,,,,,,,,,,,,,,,,,,nback62,1.0,2024-01-19_15h27.04.947,untitled,2023.2.3,60.031144150133,2024-01-19 15h49.54.572113 -0500,
1.0,"[-0.64, 0.4]",None,,,,,0.0,16.0,16.0,16.0,,,,,1889.7048246000195,,,,,,,,,,,,,,,,,,,,,,,,,,,,,,,,,,,,,,,,,,,,,,1889.6898155999952,1889.7048246000195,1889.7048246000195,1890.2049535000117,1890.2049535000117,1892.70472030004,1892.70472030004,1892.6887577000307,None,1.0,,,,,,,,,,,,,,,,,,,,,,,,nback62,1.0,2024-01-19_15h27.04.947,untitled,2023.2.3,60.031144150133,2024-01-19 15h49.54.572113 -0500,
2.0,"[0.64, 0.4]",None,,,,,0.0,17.0,17.0,17.0,,,,,1892.70472030004,,,,,,,,,,,,,,,,,,,,,,,,,,,,,,,,,,,,,,,,,,,,,,1892.6892739000032,1892.70472030004,1892.70472030004,1893.2048597999965,1893.2048597999965,1895.7048253000248,1895.7048253000248,1895.688884800009,None,1.0,,,,,,,,,,,,,,,,,,,,,,,,nback62,1.0,2024-01-19_15h27.04.947,untitled,2023.2.3,60.031144150133,2024-01-19 15h49.54.572113 -0500,
4.0,"[-0.2, 0.1]",None,,,,,0.0,18.0,18.0,18.0,,,,,1895.7048253000248,,,,,,,,,,,,,,,,,,,,,,,,,,,,,,,,,,,,,,,,,,,,,,1895.689528100018,1895.7048253000248,1895.7048253000248,1896.2048006000116,1896.2048006000116,1898.704666200036,1898.704666200036,1898.688838300004,None,1.0,,,,,,,,,,,,,,,,,,,,,,,,nback62,1.0,2024-01-19_15h27.04.947,untitled,2023.2.3,60.031144150133,2024-01-19 15h49.54.572113 -0500,
4.0,"[-0.2, 0.1]",space,,,,,0.0,19.0,19.0,19.0,,,,,1898.704666200036,,,,,,,,,,,,,,,,,,,,,,,,,,,,,,,,,,,,,,,,,,,,,,1898.689368900028,1898.704666200036,1898.704666200036,1899.2048081000105,1899.2048081000105,1901.7047134000456,1901.7047134000456,1901.6890536000135,space,1.0,0.6168588000000454,None,,,,,,,,,,,,,,,,,,,,,,nback62,1.0,2024-01-19_15h27.04.947,untitled,2023.2.3,60.031144150133,2024-01-19 15h49.54.572113 -0500,
8.0,"[-0.2, -0.1]",None,,,,,0.0,20.0,20.0,20.0,,,,,1901.7047134000456,,,,,,,,,,,,,,,,,,,,,,,,,,,,,,,,,,,,,,,,,,,,,,1901.6900277000384,1901.7047134000456,1901.7047134000456,1902.2047528999972,1902.2047528999972,1904.7046940000143,1904.7046940000143,1904.6888507000403,None,1.0,,,,,,,,,,,,,,,,,,,,,,,,nback62,1.0,2024-01-19_15h27.04.947,untitled,2023.2.3,60.031144150133,2024-01-19 15h49.54.572113 -0500,
5.0,"[0.2, 0.1]",None,,,,,0.0,21.0,21.0,21.0,,,,,1904.7046940000143,,,,,,,,,,,,,,,,,,,,,,,,,,,,,,,,,,,,,,,,,,,,,,1904.689665200014,1904.7046940000143,1904.7046940000143,1905.2046890000347,1905.2046890000347,1907.7045580000267,1907.7045580000267,1907.6886641000165,None,1.0,,,,,,,,,,,,,,,,,,,,,,,,nback62,1.0,2024-01-19_15h27.04.947,untitled,2023.2.3,60.031144150133,2024-01-19 15h49.54.572113 -0500,
5.0,"[0.2, 0.1]",space,,,,,0.0,22.0,22.0,22.0,,,,,1907.7045580000267,,,,,,,,,,,,,,,,,,,,,,,,,,,,,,,,,,,,,,,,,,,,,,1907.689389200008,1907.7045580000267,1907.7045580000267,1908.2046500000288,1908.2046500000288,1910.704573600029,1910.704573600029,1910.688671100012,space,1.0,0.4669134999858215,None,,,,,,,,,,,,,,,,,,,,,,nback62,1.0,2024-01-19_15h27.04.947,untitled,2023.2.3,60.031144150133,2024-01-19 15h49.54.572113 -0500,
1.0,"[-0.64, 0.4]",None,,,,,0.0,23.0,23.0,23.0,,,,,1910.704573600029,,,,,,,,,,,,,,,,,,,,,,,,,,,,,,,,,,,,,,,,,,,,,,1910.689421900024,1910.704573600029,1910.704573600029,1911.204513000033,1911.204513000033,1913.704611100024,1913.704611100024,1913.688543800032,None,1.0,,,,,,,,,,,,,,,,,,,,,,,,nback62,1.0,2024-01-19_15h27.04.947,untitled,2023.2.3,60.031144150133,2024-01-19 15h49.54.572113 -0500,
3.0,"[0, 0.2]",None,,,,,0.0,24.0,24.0,24.0,,,,,1913.704611100024,,,,,,,,,,,,,,,,,,,,,,,,,,,,,,,,,,,,,,,,,,,,,,1913.689138900023,1913.704611100024,1913.704611100024,1914.20434570004,1914.20434570004,1916.7044727000173,1916.7044727000173,1916.688462399994,None,1.0,,,,,,,,,,,,,,,,,,,,,,,,nback62,1.0,2024-01-19_15h27.04.947,untitled,2023.2.3,60.031144150133,2024-01-19 15h49.54.572113 -0500,
6.0,"[-0.3, 0]",None,,,,,0.0,25.0,25.0,25.0,,,,,1916.7044727000173,,,,,,,,,,,,,,,,,,,,,,,,,,,,,,,,,,,,,,,,,,,,,,1916.6890791000333,1916.7044727000173,1916.7044727000173,1917.204403300013,1917.204403300013,1919.7043483000016,1919.7043483000016,1919.6883046000148,None,1.0,,,,,,,,,,,,,,,,,,,,,,,,nback62,1.0,2024-01-19_15h27.04.947,untitled,2023.2.3,60.031144150133,2024-01-19 15h49.54.572113 -0500,
1.0,"[-0.64, 0.4]",None,,,,,0.0,26.0,26.0,26.0,,,,,1919.7043483000016,,,,,,,,,,,,,,,,,,,,,,,,,,,,,,,,,,,,,,,,,,,,,,1919.6888740000431,1919.7043483000016,1919.7043483000016,1920.2043492000084,1920.2043492000084,1922.7043259000056,1922.7043259000056,1922.6887832999928,None,1.0,,,,,,,,,,,,,,,,,,,,,,,,nback62,1.0,2024-01-19_15h27.04.947,untitled,2023.2.3,60.031144150133,2024-01-19 15h49.54.572113 -0500,
1.0,"[-0.64, 0.4]",space,,,,,0.0,27.0,27.0,27.0,,,,,1922.7043259000056,,,,,,,,,,,,,,,,,,,,,,,,,,,,,,,,,,,,,,,,,,,,,,1922.689624799997,1922.7043259000056,1922.7043259000056,1923.2040993000264,1923.2040993000264,1925.704022800026,1925.704022800026,1925.687801400025,space,1.0,0.3264849000261165,None,,,,,,,,,,,,,,,,,,,,,,nback62,1.0,2024-01-19_15h27.04.947,untitled,2023.2.3,60.031144150133,2024-01-19 15h49.54.572113 -0500,
1.0,"[-0.64, 0.4]",space,,,,,0.0,28.0,28.0,28.0,,,,,1925.704022800026,,,,,,,,,,,,,,,,,,,,,,,,,,,,,,,,,,,,,,,,,,,,,,1925.6881869999925,1925.704022800026,1925.704022800026,1926.2041822000172,1926.2041822000172,1928.7041125000103,1928.7041125000103,1928.68827730004,space,1.0,0.4843985000043176,None,,,,,,,,,,,,,,,,,,,,,,nback62,1.0,2024-01-19_15h27.04.947,untitled,2023.2.3,60.031144150133,2024-01-19 15h49.54.572113 -0500,
3.0,"[0, 0.2]",None,,,,,0.0,29.0,29.0,29.0,,,,,1928.7041125000103,,,,,,,,,,,,,,,,,,,,,,,,,,,,,,,,,,,,,,,,,,,,,,1928.6890098000292,1928.7041125000103,1928.7041125000103,1929.2041029999964,1929.2041029999964,1931.704324099992,1931.704324099992,1931.6886303999927,None,1.0,,,,,,,,,,,,,,,,,,,,,,,,nback62,1.0,2024-01-19_15h27.04.947,untitled,2023.2.3,60.031144150133,2024-01-19 15h49.54.572113 -0500,
12.0,"[0.64, -0.4]",None,,,,,0.0,30.0,30.0,30.0,,,,,1931.704324099992,,,,,,,,,,,,,,,,,,,,,,,,,,,,,,,,,,,,,,,,,,,,,,1931.689459700021,1931.704324099992,1931.704324099992,1932.2042497000075,1932.2042497000075,1934.7041369000217,1934.7041369000217,1934.6883898000235,None,1.0,,,,,,,,,,,,,,,,,,,,,,,,nback62,1.0,2024-01-19_15h27.04.947,untitled,2023.2.3,60.031144150133,2024-01-19 15h49.54.572113 -0500,
12.0,"[0.64, -0.4]",space,,,,,0.0,31.0,31.0,31.0,,,,,1934.7041369000217,,,,,,,,,,,,,,,,,,,,,,,,,,,,,,,,,,,,,,,,,,,,,,1934.6891856000293,1934.7041369000217,1934.7041369000217,1935.2040644999945,1935.2040644999945,1937.7041638999945,1937.7041638999945,1937.6881025000475,space,1.0,0.537561499979347,None,,,,,,,,,,,,,,,,,,,,,,nback62,1.0,2024-01-19_15h27.04.947,untitled,2023.2.3,60.031144150133,2024-01-19 15h49.54.572113 -0500,
2.0,"[0.64, 0.4]",None,,,,,0.0,32.0,32.0,32.0,,,,,1937.7041638999945,,,,,,,,,,,,,,,,,,,,,,,,,,,,,,,,,,,,,,,,,,,,,,1937.688928399992,1937.7041638999945,1937.7041638999945,1938.2041988000276,1938.2041988000276,1940.7039075000207,1940.7039075000207,1940.6879961999948,None,1.0,,,,,,,,,,,,,,,,,,,,,,,,nback62,1.0,2024-01-19_15h27.04.947,untitled,2023.2.3,60.031144150133,2024-01-19 15h49.54.572113 -0500,
1.0,"[-0.64, 0.4]",None,,,,,0.0,33.0,33.0,33.0,,,,,1940.7039075000207,,,,,,,,,,,,,,,,,,,,,,,,,,,,,,,,,,,,,,,,,,,,,,1940.6886680000464,1940.7039075000207,1940.7039075000207,1941.2039941000403,1941.2039941000403,1943.7037267000412,1943.7037267000412,1943.6883731000123,None,1.0,,,,,,,,,,,,,,,,,,,,,,,,nback62,1.0,2024-01-19_15h27.04.947,untitled,2023.2.3,60.031144150133,2024-01-19 15h49.54.572113 -0500,
7.0,"[0.3, 0]",None,,,,,0.0,34.0,34.0,34.0,,,,,1943.7037267000412,,,,,,,,,,,,,,,,,,,,,,,,,,,,,,,,,,,,,,,,,,,,,,1943.6891979000063,1943.7037267000412,1943.7037267000412,1944.2039161000284,1944.2039161000284,1946.703975500015,1946.703975500015,1946.6883130000208,None,1.0,,,,,,,,,,,,,,,,,,,,,,,,nback62,1.0,2024-01-19_15h27.04.947,untitled,2023.2.3,60.031144150133,2024-01-19 15h49.54.572113 -0500,
7.0,"[0.3, 0]",space,,,,,0.0,35.0,35.0,35.0,,,,,1946.703975500015,,,,,,,,,,,,,,,,,,,,,,,,,,,,,,,,,,,,,,,,,,,,,,1946.689139000024,1946.703975500015,1946.703975500015,1947.2039814000016,1947.2039814000016,1949.7037485000328,1949.7037485000328,1949.6881636999897,space,1.0,0.5382271999842487,None,,,,,,,,,,,,,,,,,,,,,,nback62,1.0,2024-01-19_15h27.04.947,untitled,2023.2.3,60.031144150133,2024-01-19 15h49.54.572113 -0500,
11.0,"[-0.64, -0.4]",None,,,,,0.0,36.0,36.0,36.0,,,,,1949.7037485000328,,,,,,,,,,,,,,,,,,,,,,,,,,,,,,,,,,,,,,,,,,,,,,1949.6892294000136,1949.7037485000328,1949.7037485000328,1950.2037909000064,1950.2037909000064,1952.703794200032,1952.703794200032,1952.6880400000373,None,1.0,,,,,,,,,,,,,,,,,,,,,,,,nback62,1.0,2024-01-19_15h27.04.947,untitled,2023.2.3,60.031144150133,2024-01-19 15h49.54.572113 -0500,
2.0,"[0.64, 0.4]",None,,,,,0.0,37.0,37.0,37.0,,,,,1952.703794200032,,,,,,,,,,,,,,,,,,,,,,,,,,,,,,,,,,,,,,,,,,,,,,1952.688854500011,1952.703794200032,1952.703794200032,1953.203809500032,1953.203809500032,1955.703673800046,1955.703673800046,1955.6879975000047,None,1.0,,,,,,,,,,,,,,,,,,,,,,,,nback62,1.0,2024-01-19_15h27.04.947,untitled,2023.2.3,60.031144150133,2024-01-19 15h49.54.572113 -0500,
6.0,"[-0.3, 0]",None,,,,,0.0,38.0,38.0,38.0,,,,,1955.703673800046,,,,,,,,,,,,,,,,,,,,,,,,,,,,,,,,,,,,,,,,,,,,,,1955.688682600041,1955.703673800046,1955.703673800046,1956.2036844000104,1956.2036844000104,1958.7036835000035,1958.7036835000035,1958.687898700009,None,1.0,,,,,,,,,,,,,,,,,,,,,,,,nback62,1.0,2024-01-19_15h27.04.947,untitled,2023.2.3,60.031144150133,2024-01-19 15h49.54.572113 -0500,
10.0,"[0, -0.2]",None,,,,,0.0,39.0,39.0,39.0,,,,,1958.7036835000035,,,,,,,,,,,,,,,,,,,,,,,,,,,,,,,,,,,,,,,,,,,,,,1958.688632500009,1958.7036835000035,1958.7036835000035,1959.2037794000355,1959.2037794000355,1961.7036760000049,1961.7036760000049,1961.687914900016,None,1.0,,,,,,,,,,,,,,,,,,,,,,,,nback62,1.0,2024-01-19_15h27.04.947,untitled,2023.2.3,60.031144150133,2024-01-19 15h49.54.572113 -0500,
,,,,,,,,,,,,,,,,,,,,,,,,,,,,,,,,,,,,,,,,,,,,,,,,,,,,,,,,,,,,,,,,,,,,,,,,,1961.6883864999984,1961.7036760000049,1961.7036760000049,1989.5549606000425,space,27.833972799999174,None,,,,,,,,,,,,,,,nback62,1.0,2024-01-19_15h27.04.947,untitled,2023.2.3,60.031144150133,2024-01-19 15h49.54.572113 -0500,
,"[0.2, 0.1]",None,,,,,,,,,0.0,0.0,0.0,0.0,1990.57198290003,,,,,,,,,,,,,,,,,,,,,,,,1989.5550175000096,1989.5698173000128,1990.57198290003,1990.553825300012,,,,,,,,,,,,,,,,,,,,,,,,,,,,,,,,,,,,,,1990.5699600999944,1990.57198290003,1990.57198290003,1991.06967560004,1991.0863594000111,1993.5697465999983,1993.5699372999952,None,1.0,,,,,,nback62,1.0,2024-01-19_15h27.04.947,untitled,2023.2.3,60.031144150133,2024-01-19 15h49.54.572113 -0500,
,"[0.64, 0.4]",None,,,,,,,,,0.0,1.0,1.0,1.0,1993.5862939000365,,,,,,,,,,,,,,,,,,,,,,,,,,,,,,,,,,,,,,,,,,,,,,,,,,,,,,,,,,,,,,,,,1993.57086420001,1993.5862939000365,1993.5862939000365,1994.0697278000296,1994.0863040999973,1996.5695497000124,1996.5697159999984,None,1.0,,,,,,nback62,1.0,2024-01-19_15h27.04.947,untitled,2023.2.3,60.031144150133,2024-01-19 15h49.54.572113 -0500,
,"[-0.3, 0]",None,,,,,,,,,0.0,2.0,2.0,2.0,1996.586313100008,,,,,,,,,,,,,,,,,,,,,,,,,,,,,,,,,,,,,,,,,,,,,,,,,,,,,,,,,,,,,,,,,1996.5704345999984,1996.586313100008,1996.586313100008,1997.069686700008,1997.0863867000444,1999.569530900044,1999.5696895000287,None,1.0,,,,,,nback62,1.0,2024-01-19_15h27.04.947,untitled,2023.2.3,60.031144150133,2024-01-19 15h49.54.572113 -0500,
,"[0.2, -0.1]",None,,,,,,,,,0.0,3.0,3.0,3.0,1999.5861117000456,,,,,,,,,,,,,,,,,,,,,,,,,,,,,,,,,,,,,,,,,,,,,,,,,,,,,,,,,,,,,,,,,1999.570384100021,1999.5861117000456,1999.5861117000456,2000.069512200018,2000.0863079000264,2002.5695004000445,2002.569653500046,None,1.0,,,,,,nback62,1.0,2024-01-19_15h27.04.947,untitled,2023.2.3,60.031144150133,2024-01-19 15h49.54.572113 -0500,
,"[0, 0.2]",None,,,,,,,,,0.0,4.0,4.0,4.0,2002.5859901999936,,,,,,,,,,,,,,,,,,,,,,,,,,,,,,,,,,,,,,,,,,,,,,,,,,,,,,,,,,,,,,,,,2002.570250299992,2002.5859901999936,2002.5859901999936,2003.0694997000392,2003.0860924000156,2005.5696600000372,2005.569876499998,None,1.0,,,,,,nback62,1.0,2024-01-19_15h27.04.947,untitled,2023.2.3,60.031144150133,2024-01-19 15h49.54.572113 -0500,
,"[0.2, -0.1]",space,,,,,,,,,0.0,5.0,5.0,5.0,2005.5860262000351,,,,,,,,,,,,,,,,,,,,,,,,,,,,,,,,,,,,,,,,,,,,,,,,,,,,,,,,,,,,,,,,,2005.5707646000085,2005.5860262000351,2005.5860262000351,2006.069424300047,2006.0861621000224,2008.5695730000152,2008.5697346000236,space,1.0,0.3409628999652341,None,,,,nback62,1.0,2024-01-19_15h27.04.947,untitled,2023.2.3,60.031144150133,2024-01-19 15h49.54.572113 -0500,
,"[0, -0.2]",None,,,,,,,,,0.0,6.0,6.0,6.0,2008.58598600002,,,,,,,,,,,,,,,,,,,,,,,,,,,,,,,,,,,,,,,,,,,,,,,,,,,,,,,,,,,,,,,,,2008.5707078000412,2008.58598600002,2008.58598600002,2009.069520900026,2009.086055300024,2011.5695836000375,2011.5698083000025,None,1.0,,,,,,nback62,1.0,2024-01-19_15h27.04.947,untitled,2023.2.3,60.031144150133,2024-01-19 15h49.54.572113 -0500,
,"[0.64, -0.4]",None,,,,,,,,,0.0,7.0,7.0,7.0,2011.586102500034,,,,,,,,,,,,,,,,,,,,,,,,,,,,,,,,,,,,,,,,,,,,,,,,,,,,,,,,,,,,,,,,,2011.5706488,2011.586102500034,2011.586102500034,2012.0693875,2012.085911300033,2014.5694793,2014.5696781000008,None,1.0,,,,,,nback62,1.0,2024-01-19_15h27.04.947,untitled,2023.2.3,60.031144150133,2024-01-19 15h49.54.572113 -0500,
,"[0.3, 0]",None,,,,,,,,,0.0,8.0,8.0,8.0,2014.5862269999925,,,,,,,,,,,,,,,,,,,,,,,,,,,,,,,,,,,,,,,,,,,,,,,,,,,,,,,,,,,,,,,,,2014.5704652999996,2014.5862269999925,2014.5862269999925,2015.0694630999933,2015.086069300014,2017.5693380000305,2017.5695242999936,None,1.0,,,,,,nback62,1.0,2024-01-19_15h27.04.947,untitled,2023.2.3,60.031144150133,2024-01-19 15h49.54.572113 -0500,
,"[0.64, -0.4]",space,,,,,,,,,0.0,9.0,9.0,9.0,2017.585966999992,,,,,,,,,,,,,,,,,,,,,,,,,,,,,,,,,,,,,,,,,,,,,,,,,,,,,,,,,,,,,,,,,2017.5703466000268,2017.585966999992,2017.585966999992,2018.0693718999971,2018.086018700036,2020.569230300025,2020.5694006000413,space,1.0,0.3761125999735668,None,,,,nback62,1.0,2024-01-19_15h27.04.947,untitled,2023.2.3,60.031144150133,2024-01-19 15h49.54.572113 -0500,
,"[-0.64, 0.4]",None,,,,,,,,,0.0,10.0,10.0,10.0,2020.5859032000296,,,,,,,,,,,,,,,,,,,,,,,,,,,,,,,,,,,,,,,,,,,,,,,,,,,,,,,,,,,,,,,,,2020.5701902,2020.5859032000296,2020.5859032000296,2021.0693449000248,2021.08596570004,2023.5692800999968,2023.5694826000251,None,1.0,,,,,,nback62,1.0,2024-01-19_15h27.04.947,untitled,2023.2.3,60.031144150133,2024-01-19 15h49.54.572113 -0500,
,"[0.2, 0.1]",None,,,,,,,,,0.0,11.0,11.0,11.0,2023.585983900004,,,,,,,,,,,,,,,,,,,,,,,,,,,,,,,,,,,,,,,,,,,,,,,,,,,,,,,,,,,,,,,,,2023.570279000036,2023.585983900004,2023.585983900004,2024.0691886999996,2024.0858381,2026.5693391000384,2026.569552800036,None,1.0,,,,,,nback62,1.0,2024-01-19_15h27.04.947,untitled,2023.2.3,60.031144150133,2024-01-19 15h49.54.572113 -0500,
,"[0.3, 0]",None,,,,,,,,,0.0,12.0,12.0,12.0,2026.5858412000237,,,,,,,,,,,,,,,,,,,,,,,,,,,,,,,,,,,,,,,,,,,,,,,,,,,,,,,,,,,,,,,,,2026.5703720000456,2026.5858412000237,2026.5858412000237,2027.0691074000208,2027.0857533999952,2029.5688837000048,2029.5690344000468,None,1.0,,,,,,nback62,1.0,2024-01-19_15h27.04.947,untitled,2023.2.3,60.031144150133,2024-01-19 15h49.54.572113 -0500,
,"[0.2, 0.1]",space,,,,,,,,,0.0,13.0,13.0,13.0,2029.585491300037,,,,,,,,,,,,,,,,,,,,,,,,,,,,,,,,,,,,,,,,,,,,,,,,,,,,,,,,,,,,,,,,,2029.5694224000329,2029.585491300037,2029.585491300037,2030.06903350004,2030.085627900029,2032.5690711000352,2032.56927810004,space,1.0,0.3262122999876737,None,,,,nback62,1.0,2024-01-19_15h27.04.947,untitled,2023.2.3,60.031144150133,2024-01-19 15h49.54.572113 -0500,
,"[-0.3, 0]",None,,,,,,,,,0.0,14.0,14.0,14.0,2032.585569999996,,,,,,,,,,,,,,,,,,,,,,,,,,,,,,,,,,,,,,,,,,,,,,,,,,,,,,,,,,,,,,,,,2032.570243199996,2032.585569999996,2032.585569999996,2033.0691062000117,2033.085645500047,2035.5690858000307,2035.5692899000128,None,1.0,,,,,,nback62,1.0,2024-01-19_15h27.04.947,untitled,2023.2.3,60.031144150133,2024-01-19 15h49.54.572113 -0500,
,"[0, 0.2]",None,,,,,,,,,0.0,15.0,15.0,15.0,2035.585719100025,,,,,,,,,,,,,,,,,,,,,,,,,,,,,,,,,,,,,,,,,,,,,,,,,,,,,,,,,,,,,,,,,2035.5700356000448,2035.585719100025,2035.585719100025,2036.0689852000212,2036.08566099999,2038.5689711000305,2038.569129700016,None,1.0,,,,,,nback62,1.0,2024-01-19_15h27.04.947,untitled,2023.2.3,60.031144150133,2024-01-19 15h49.54.572113 -0500,
,"[-0.3, 0]",space,,,,,,,,,0.0,16.0,16.0,16.0,2038.585566600028,,,,,,,,,,,,,,,,,,,,,,,,,,,,,,,,,,,,,,,,,,,,,,,,,,,,,,,,,,,,,,,,,2038.569738399994,2038.585566600028,2038.585566600028,2039.068849900039,2039.0856865000096,2041.569052900013,2041.569242800004,space,1.0,0.3415803000098094,None,,,,nback62,1.0,2024-01-19_15h27.04.947,untitled,2023.2.3,60.031144150133,2024-01-19 15h49.54.572113 -0500,
,"[-0.64, -0.4]",None,,,,,,,,,0.0,17.0,17.0,17.0,2041.5854745000247,,,,,,,,,,,,,,,,,,,,,,,,,,,,,,,,,,,,,,,,,,,,,,,,,,,,,,,,,,,,,,,,,2041.5701509999928,2041.5854745000247,2041.5854745000247,2042.0687832999972,2042.085521800036,2044.5688445999983,2044.5690307000184,None,1.0,,,,,,nback62,1.0,2024-01-19_15h27.04.947,untitled,2023.2.3,60.031144150133,2024-01-19 15h49.54.572113 -0500,
,"[-0.2, -0.1]",None,,,,,,,,,0.0,18.0,18.0,18.0,2044.5854666000232,,,,,,,,,,,,,,,,,,,,,,,,,,,,,,,,,,,,,,,,,,,,,,,,,,,,,,,,,,,,,,,,,2044.569776899996,2044.5854666000232,2044.5854666000232,2045.0687739000423,2045.0854370000309,2047.5687875000292,2047.5689732000465,None,1.0,,,,,,nback62,1.0,2024-01-19_15h27.04.947,untitled,2023.2.3,60.031144150133,2024-01-19 15h49.54.572113 -0500,
,"[0.2, -0.1]",None,,,,,,,,,0.0,19.0,19.0,19.0,2047.585214700026,,,,,,,,,,,,,,,,,,,,,,,,,,,,,,,,,,,,,,,,,,,,,,,,,,,,,,,,,,,,,,,,,2047.569713300036,2047.585214700026,2047.585214700026,2048.068807100004,2048.085465900018,2050.5687061999924,2050.5688826999976,None,1.0,,,,,,nback62,1.0,2024-01-19_15h27.04.947,untitled,2023.2.3,60.031144150133,2024-01-19 15h49.54.572113 -0500,
,"[0.2, -0.1]",None,,,,,,,,,0.0,20.0,20.0,20.0,2050.585365200008,,,,,,,,,,,,,,,,,,,,,,,,,,,,,,,,,,,,,,,,,,,,,,,,,,,,,,,,,,,,,,,,,2050.569595400011,2050.585365200008,2050.585365200008,2051.0686884000315,2051.085433,2053.568761300005,2053.5689728000434,None,1.0,,,,,,nback62,1.0,2024-01-19_15h27.04.947,untitled,2023.2.3,60.031144150133,2024-01-19 15h49.54.572113 -0500,
,"[-0.64, 0.4]",None,,,,,,,,,0.0,21.0,21.0,21.0,2053.5853015000466,,,,,,,,,,,,,,,,,,,,,,,,,,,,,,,,,,,,,,,,,,,,,,,,,,,,,,,,,,,,,,,,,2053.5697963000275,2053.5853015000466,2053.5853015000466,2054.0685981000424,2054.0852815000108,2056.568702900025,2056.568899300008,None,1.0,,,,,,nback62,1.0,2024-01-19_15h27.04.947,untitled,2023.2.3,60.031144150133,2024-01-19 15h49.54.572113 -0500,
,"[0, 0.2]",None,,,,,,,,,0.0,22.0,22.0,22.0,2056.585366700019,,,,,,,,,,,,,,,,,,,,,,,,,,,,,,,,,,,,,,,,,,,,,,,,,,,,,,,,,,,,,,,,,2056.569666000025,2056.585366700019,2056.585366700019,2057.0686325000133,2057.085311600007,2059.568411300017,2059.568564200017,None,1.0,,,,,,nback62,1.0,2024-01-19_15h27.04.947,untitled,2023.2.3,60.031144150133,2024-01-19 15h49.54.572113 -0500,
,"[0.64, -0.4]",None,,,,,,,,,0.0,23.0,23.0,23.0,2059.5850744000054,,,,,,,,,,,,,,,,,,,,,,,,,,,,,,,,,,,,,,,,,,,,,,,,,,,,,,,,,,,,,,,,,2059.569261400029,2059.5850744000054,2059.5850744000054,2060.0685912999907,2060.0847692000098,2062.568389300024,2062.5686010000063,None,1.0,,,,,,nback62,1.0,2024-01-19_15h27.04.947,untitled,2023.2.3,60.031144150133,2024-01-19 15h49.54.572113 -0500,
,"[0, 0.2]",space,,,,,,,,,0.0,24.0,24.0,24.0,2062.585182200012,,,,,,,,,,,,,,,,,,,,,,,,,,,,,,,,,,,,,,,,,,,,,,,,,,,,,,,,,,,,,,,,,2062.5690929000266,2062.585182200012,2062.585182200012,2063.0685387999984,2063.0849219000083,2065.568611900031,2065.568820400047,space,1.0,0.3532601000042632,None,,,,nback62,1.0,2024-01-19_15h27.04.947,untitled,2023.2.3,60.031144150133,2024-01-19 15h49.54.572113 -0500,
,"[-0.2, 0.1]",None,,,,,,,,,0.0,25.0,25.0,25.0,2065.5851054000086,,,,,,,,,,,,,,,,,,,,,,,,,,,,,,,,,,,,,,,,,,,,,,,,,,,,,,,,,,,,,,,,,2065.569839800009,2065.5851054000086,2065.5851054000086,2066.068441200012,2066.08514879999,2068.568374900031,2068.5685298000462,None,1.0,,,,,,nback62,1.0,2024-01-19_15h27.04.947,untitled,2023.2.3,60.031144150133,2024-01-19 15h49.54.572113 -0500,
,"[0.3, 0]",None,,,,,,,,,0.0,26.0,26.0,26.0,2068.584963100031,,,,,,,,,,,,,,,,,,,,,,,,,,,,,,,,,,,,,,,,,,,,,,,,,,,,,,,,,,,,,,,,,2068.569133400044,2068.584963100031,2068.584963100031,2069.0685032000183,2069.0850487000425,2071.56833129999,2071.5685097000096,None,1.0,,,,,,nback62,1.0,2024-01-19_15h27.04.947,untitled,2023.2.3,60.031144150133,2024-01-19 15h49.54.572113 -0500,
,"[-0.2, 0.1]",space,,,,,,,,,0.0,27.0,27.0,27.0,2071.585014500015,,,,,,,,,,,,,,,,,,,,,,,,,,,,,,,,,,,,,,,,,,,,,,,,,,,,,,,,,,,,,,,,,2071.569213300012,2071.585014500015,2071.585014500015,2072.0684037000174,2072.0850961999968,2074.5681640999974,2074.5683076000423,space,1.0,0.5028230000170879,None,,,,nback62,1.0,2024-01-19_15h27.04.947,untitled,2023.2.3,60.031144150133,2024-01-19 15h49.54.572113 -0500,
,"[-0.2, 0.1]",None,,,,,,,,,0.0,28.0,28.0,28.0,2074.5848708000267,,,,,,,,,,,,,,,,,,,,,,,,,,,,,,,,,,,,,,,,,,,,,,,,,,,,,,,,,,,,,,,,,2074.568859699997,2074.5848708000267,2074.5848708000267,2075.068370599998,2075.084597900044,2077.568269200041,2077.568452000036,None,1.0,,,,,,nback62,1.0,2024-01-19_15h27.04.947,untitled,2023.2.3,60.031144150133,2024-01-19 15h49.54.572113 -0500,
,"[0.2, 0.1]",None,,,,,,,,,0.0,29.0,29.0,29.0,2077.5847477000207,,,,,,,,,,,,,,,,,,,,,,,,,,,,,,,,,,,,,,,,,,,,,,,,,,,,,,,,,,,,,,,,,2077.569212500006,2077.5847477000207,2077.5847477000207,2078.06829200004,2078.084841600037,2080.568223600043,2080.568398100033,space,0.0,0.6218431000015698,None,,,,nback62,1.0,2024-01-19_15h27.04.947,untitled,2023.2.3,60.031144150133,2024-01-19 15h49.54.572113 -0500,
,"[-0.64, -0.4]",None,,,,,,,,,0.0,30.0,30.0,30.0,2080.584895200038,,,,,,,,,,,,,,,,,,,,,,,,,,,,,,,,,,,,,,,,,,,,,,,,,,,,,,,,,,,,,,,,,2080.569330500032,2080.584895200038,2080.584895200038,2081.068109899992,2081.084797599993,2083.568254600046,2083.568455600005,None,1.0,,,,,,nback62,1.0,2024-01-19_15h27.04.947,untitled,2023.2.3,60.031144150133,2024-01-19 15h49.54.572113 -0500,
,"[0, -0.2]",None,,,,,,,,,0.0,31.0,31.0,31.0,2083.584835899994,,,,,,,,,,,,,,,,,,,,,,,,,,,,,,,,,,,,,,,,,,,,,,,,,,,,,,,,,,,,,,,,,2083.5692165000364,2083.584835899994,2083.584835899994,2084.0679971000063,2084.0846507000388,2086.5681673000217,2086.568346200045,None,1.0,,,,,,nback62,1.0,2024-01-19_15h27.04.947,untitled,2023.2.3,60.031144150133,2024-01-19 15h49.54.572113 -0500,
,"[-0.64, -0.4]",space,,,,,,,,,0.0,32.0,32.0,32.0,2086.584692200005,,,,,,,,,,,,,,,,,,,,,,,,,,,,,,,,,,,,,,,,,,,,,,,,,,,,,,,,,,,,,,,,,2086.569025100034,2086.584692200005,2086.584692200005,2087.068155899993,2087.0847315000137,2089.568263699999,2089.568466400029,space,1.0,0.5582157000317238,None,,,,nback62,1.0,2024-01-19_15h27.04.947,untitled,2023.2.3,60.031144150133,2024-01-19 15h49.54.572113 -0500,
,"[0.64, 0.4]",None,,,,,,,,,0.0,33.0,33.0,33.0,2089.584668299998,,,,,,,,,,,,,,,,,,,,,,,,,,,,,,,,,,,,,,,,,,,,,,,,,,,,,,,,,,,,,,,,,2089.56933160004,2089.584668299998,2089.584668299998,2090.0681323000463,2090.084730600007,2092.5678610000177,2092.5679481000407,None,1.0,,,,,,nback62,1.0,2024-01-19_15h27.04.947,untitled,2023.2.3,60.031144150133,2024-01-19 15h49.54.572113 -0500,
,"[-0.3, 0]",None,,,,,,,,,0.0,34.0,34.0,34.0,2092.5846662000404,,,,,,,,,,,,,,,,,,,,,,,,,,,,,,,,,,,,,,,,,,,,,,,,,,,,,,,,,,,,,,,,,2092.5683932999964,2092.5846662000404,2092.5846662000404,2093.0679818000062,2093.0846408000216,2095.5679698000317,2095.568161000032,None,1.0,,,,,,nback62,1.0,2024-01-19_15h27.04.947,untitled,2023.2.3,60.031144150133,2024-01-19 15h49.54.572113 -0500,
,"[0.3, 0]",None,,,,,,,,,0.0,35.0,35.0,35.0,2095.584624600014,,,,,,,,,,,,,,,,,,,,,,,,,,,,,,,,,,,,,,,,,,,,,,,,,,,,,,,,,,,,,,,,,2095.5688799000345,2095.584624600014,2095.584624600014,2096.067921400012,2096.084697200044,2098.5680148000247,2098.5682318999898,None,1.0,,,,,,nback62,1.0,2024-01-19_15h27.04.947,untitled,2023.2.3,60.031144150133,2024-01-19 15h49.54.572113 -0500,
,"[-0.3, 0]",space,,,,,,,,,0.0,36.0,36.0,36.0,2098.5844054000336,,,,,,,,,,,,,,,,,,,,,,,,,,,,,,,,,,,,,,,,,,,,,,,,,,,,,,,,,,,,,,,,,2098.5690589000005,2098.5844054000336,2098.5844054000336,2099.067874400004,2099.0845989999943,2101.567926100048,2101.5681401000475,space,1.0,0.4687218999606557,None,,,,nback62,1.0,2024-01-19_15h27.04.947,untitled,2023.2.3,60.031144150133,2024-01-19 15h49.54.572113 -0500,
,"[0, -0.2]",None,,,,,,,,,0.0,37.0,37.0,37.0,2101.584543300036,,,,,,,,,,,,,,,,,,,,,,,,,,,,,,,,,,,,,,,,,,,,,,,,,,,,,,,,,,,,,,,,,2101.569124100032,2101.584543300036,2101.584543300036,2102.0677566000377,2102.084371100005,2104.567812699999,2104.5680231000297,None,1.0,,,,,,nback62,1.0,2024-01-19_15h27.04.947,untitled,2023.2.3,60.031144150133,2024-01-19 15h49.54.572113 -0500,
,"[0.3, 0]",None,,,,,,,,,0.0,38.0,38.0,38.0,2104.58448640001,,,,,,,,,,,,,,,,,,,,,,,,,,,,,,,,,,,,,,,,,,,,,,,,,,,,,,,,,,,,,,,,,2104.568868500006,2104.58448640001,2104.58448640001,2105.0677551000263,2105.0844045000267,2107.5675362000475,2107.5676836000057,None,1.0,,,,,,nback62,1.0,2024-01-19_15h27.04.947,untitled,2023.2.3,60.031144150133,2024-01-19 15h49.54.572113 -0500,
,"[0.2, 0.1]",None,,,,,,,,,0.0,39.0,39.0,39.0,2107.584161900042,,,,,,,,,,,,,,,,,,,,,,,,,,,,,,,,,,,,,,,,,,,,,,,,,,,,,,,,,,,,,,,,,2107.5681654000077,2107.584161900042,2107.584161900042,2108.0677524000057,2108.08439969999,2110.567684100009,2110.567861800024,None,1.0,,,,,,nback62,1.0,2024-01-19_15h27.04.947,untitled,2023.2.3,60.031144150133,2024-01-19 15h49.54.572113 -0500,
,,,,,,,,,,,,,,,,,,,,,,,,,,,,,,,,,,,,,,,,,,,,,,,,,,,,,,,,,,,,,,,,,,,,,,,,,,,,,,,,,,,,,,,,,,,2110.56833790004,2110.5844365000376,2113.567950299999,,,,,,,,
