square,location,corrAns,trials_0.thisRepN,trials_0.thisTrialN,trials_0.thisN,trials_0.thisIndex,trials_1.thisRepN,trials_1.thisTrialN,trials_1.thisN,trials_1.thisIndex,trials_2.thisRepN,trials_2.thisTrialN,trials_2.thisN,trials_2.thisIndex,thisRow.t,notes,Instructions.started,instructions.started,key_resp.started,inst_sq11.started,Instructions.stopped,key_resp.keys,key_resp.rt,key_resp.duration,All.started,sq_1.started,sq_2.started,sq_3.started,sq_4.started,sq_5.started,sq_6.started,sq_7.started,sq_8.started,sq_9.started,sq_10.started,sq_11.started,sq_12.started,All.stopped,Fixation.started,fixation_3.started,fixation_3.stopped,Fixation.stopped,N_back_0_Trial.started,target_square_0.started,response_0.started,fixation_0.started,target_square_0.stopped,fixation_0.stopped,N_back_0_Trial.stopped,response_0.keys,response_0.corr,response_0.rt,response_0.duration,Instructions_1.started,instructions_1.started,key_resp_1.started,Instructions_1.stopped,key_resp_1.keys,key_resp_1.rt,key_resp_1.duration,N_back_1_Trial.started,target_square_1.started,response_1.started,target_square_1.stopped,fixation_1.started,fixation_1.stopped,response_1.stopped,N_back_1_Trial.stopped,response_1.keys,response_1.corr,response_1.rt,response_1.duration,Instructions_2.started,instructions_2.started,key_resp_2.started,Instructions_2.stopped,key_resp_2.keys,key_resp_2.rt,key_resp_2.duration,N_back_2_trials.started,target_square_2.started,response_2.started,target_square_2.stopped,fixation_2.started,fixation_2.stopped,response_2.stopped,N_back_2_trials.stopped,response_2.keys,response_2.corr,response_2.rt,response_2.duration,End.started,thank_you.started,thank_you.stopped,End.stopped,participant,session,date,expName,psychopyVersion,frameRate,expStart,Unnamed: 103
,,,,,,,,,,,,,,,,,0.0014517999952659,0.0038167999882716,0.0038167999882716,0.0038167999882716,1981.1808984999952,space,1981.1604489000165,None,,,,,,,,,,,,,,,,,,,,,,,,,,,,,,,,,,,,,,,,,,,,,,,,,,,,,,,,,,,,,,,,,,,,,,,,nback51,1.0,2024-01-12_17h18.39.372,untitled,2023.2.3,60.05371203655631,2024-01-12 17h53.18.129485 -0500,
6.0,"[-0.3, 0]",None,0.0,0.0,0.0,0.0,,,,,,,,,1983.196980100009,,,,,,,,,,1981.1809530000028,1981.1956256999983,1981.1956256999983,1981.1956256999983,1981.1956256999983,1981.1956256999983,1981.1956256999983,1981.1956256999983,1981.1956256999983,1981.1956256999983,1981.1956256999983,1981.1956256999983,1981.1956256999983,1982.1798972999968,1982.1799176000056,1982.1955484999928,1983.196980100009,1983.1799787000052,1983.1950523999983,1983.196980100009,1983.196980100009,1983.679078699992,1983.712402300007,1986.1790510000135,1986.1957835000069,None,1.0,,,,,,,,,,,,,,,,,,,,,,,,,,,,,,,,,,,,,,,,,,,,,nback51,1.0,2024-01-12_17h18.39.372,untitled,2023.2.3,60.05371203655631,2024-01-12 17h53.18.129485 -0500,
10.0,"[0, -0.2]",None,0.0,1.0,1.0,1.0,,,,,,,,,1986.2121588999871,,,,,,,,,,,,,,,,,,,,,,,,,,,,1986.1968127999864,1986.2121588999871,1986.2121588999871,1986.6955047000083,1986.712157700007,1989.1954541000011,1989.1956620000128,None,1.0,,,,,,,,,,,,,,,,,,,,,,,,,,,,,,,,,,,,,,,,,,,,,nback51,1.0,2024-01-12_17h18.39.372,untitled,2023.2.3,60.05371203655631,2024-01-12 17h53.18.129485 -0500,
11.0,"[-0.64, -0.4]",space,0.0,2.0,2.0,2.0,,,,,,,,,1989.212024700013,,,,,,,,,,,,,,,,,,,,,,,,,,,,1989.1965201999992,1989.212024700013,1989.212024700013,1989.6788270999969,1989.7121236000091,1992.178882200009,1992.1957102000013,space,1.0,0.4840753999887965,None,,,,,,,,,,,,,,,,,,,,,,,,,,,,,,,,,,,,,,,,,,,nback51,1.0,2024-01-12_17h18.39.372,untitled,2023.2.3,60.05371203655631,2024-01-12 17h53.18.129485 -0500,
12.0,"[0.64, -0.4]",None,0.0,3.0,3.0,3.0,,,,,,,,,1992.212209699996,,,,,,,,,,,,,,,,,,,,,,,,,,,,1992.196964200004,1992.212209699996,1992.212209699996,1992.6787974000035,1992.712198299996,1995.178880099993,1995.195444699988,None,1.0,,,,,,,,,,,,,,,,,,,,,,,,,,,,,,,,,,,,,,,,,,,,,nback51,1.0,2024-01-12_17h18.39.372,untitled,2023.2.3,60.05371203655631,2024-01-12 17h53.18.129485 -0500,
1.0,"[-0.64, 0.4]",None,0.0,4.0,4.0,4.0,,,,,,,,,1995.2121075000032,,,,,,,,,,,,,,,,,,,,,,,,,,,,1995.1962443999944,1995.2121075000032,1995.2121075000032,1995.6954400000104,1995.711987799994,1998.1954154999985,1998.1956317999864,None,1.0,,,,,,,,,,,,,,,,,,,,,,,,,,,,,,,,,,,,,,,,,,,,,nback51,1.0,2024-01-12_17h18.39.372,untitled,2023.2.3,60.05371203655631,2024-01-12 17h53.18.129485 -0500,
1.0,"[-0.64, 0.4]",None,0.0,5.0,5.0,5.0,,,,,,,,,1998.2119560000135,,,,,,,,,,,,,,,,,,,,,,,,,,,,1998.196489900001,1998.2119560000135,1998.2119560000135,1998.6952825000044,1998.7119313000003,2001.195339400001,2001.195538500004,None,1.0,,,,,,,,,,,,,,,,,,,,,,,,,,,,,,,,,,,,,,,,,,,,,nback51,1.0,2024-01-12_17h18.39.372,untitled,2023.2.3,60.05371203655631,2024-01-12 17h53.18.129485 -0500,
4.0,"[-0.2, 0.1]",None,0.0,6.0,6.0,6.0,,,,,,,,,2001.212034600001,,,,,,,,,,,,,,,,,,,,,,,,,,,,2001.1962503000104,2001.212034600001,2001.212034600001,2001.6952373000092,2001.7119697000016,2004.1952537999896,2004.1954396000076,None,1.0,,,,,,,,,,,,,,,,,,,,,,,,,,,,,,,,,,,,,,,,,,,,,nback51,1.0,2024-01-12_17h18.39.372,untitled,2023.2.3,60.05371203655631,2024-01-12 17h53.18.129485 -0500,
5.0,"[0.2, 0.1]",None,0.0,7.0,7.0,7.0,,,,,,,,,2004.2119693999996,,,,,,,,,,,,,,,,,,,,,,,,,,,,2004.1961954,2004.2119693999996,2004.2119693999996,2004.695229200006,2004.712117999996,2007.1952037999872,2007.1953644999885,None,1.0,,,,,,,,,,,,,,,,,,,,,,,,,,,,,,,,,,,,,,,,,,,,,nback51,1.0,2024-01-12_17h18.39.372,untitled,2023.2.3,60.05371203655631,2024-01-12 17h53.18.129485 -0500,
11.0,"[-0.64, -0.4]",space,0.0,8.0,8.0,8.0,,,,,,,,,2007.212098999997,,,,,,,,,,,,,,,,,,,,,,,,,,,,2007.1959734999984,2007.212098999997,2007.212098999997,2007.695129300002,2007.7117295000064,2010.1950639999995,2010.1952269999888,space,1.0,0.3370086000068113,None,,,,,,,,,,,,,,,,,,,,,,,,,,,,,,,,,,,,,,,,,,,nback51,1.0,2024-01-12_17h18.39.372,untitled,2023.2.3,60.05371203655631,2024-01-12 17h53.18.129485 -0500,
9.0,"[0.2, -0.1]",None,0.0,9.0,9.0,9.0,,,,,,,,,2010.2119576999976,,,,,,,,,,,,,,,,,,,,,,,,,,,,2010.195986200008,2010.2119576999976,2010.2119576999976,2010.694982599991,2010.7119485999865,2013.195076200005,2013.195272300014,None,1.0,,,,,,,,,,,,,,,,,,,,,,,,,,,,,,,,,,,,,,,,,,,,,nback51,1.0,2024-01-12_17h18.39.372,untitled,2023.2.3,60.05371203655631,2024-01-12 17h53.18.129485 -0500,
8.0,"[-0.2, -0.1]",None,0.0,10.0,10.0,10.0,,,,,,,,,2013.211773899995,,,,,,,,,,,,,,,,,,,,,,,,,,,,2013.1960306999968,2013.211773899995,2013.211773899995,2013.694977200008,2013.7116828,2016.1950196000107,2016.195230799989,None,1.0,,,,,,,,,,,,,,,,,,,,,,,,,,,,,,,,,,,,,,,,,,,,,nback51,1.0,2024-01-12_17h18.39.372,untitled,2023.2.3,60.05371203655631,2024-01-12 17h53.18.129485 -0500,
9.0,"[0.2, -0.1]",None,0.0,11.0,11.0,11.0,,,,,,,,,2016.211812900001,,,,,,,,,,,,,,,,,,,,,,,,,,,,2016.1961100999904,2016.211812900001,2016.211812900001,2016.6949519999907,2016.711718800012,2019.1950259000005,2019.1952250000031,None,1.0,,,,,,,,,,,,,,,,,,,,,,,,,,,,,,,,,,,,,,,,,,,,,nback51,1.0,2024-01-12_17h18.39.372,untitled,2023.2.3,60.05371203655631,2024-01-12 17h53.18.129485 -0500,
6.0,"[-0.3, 0]",None,0.0,12.0,12.0,12.0,,,,,,,,,2019.2117523000047,,,,,,,,,,,,,,,,,,,,,,,,,,,,2019.1960709000125,2019.2117523000047,2019.2117523000047,2019.6950277000144,2019.711817100004,2022.1945743999968,2022.1947502999972,None,1.0,,,,,,,,,,,,,,,,,,,,,,,,,,,,,,,,,,,,,,,,,,,,,nback51,1.0,2024-01-12_17h18.39.372,untitled,2023.2.3,60.05371203655631,2024-01-12 17h53.18.129485 -0500,
9.0,"[0.2, -0.1]",None,0.0,13.0,13.0,13.0,,,,,,,,,2022.2115146,,,,,,,,,,,,,,,,,,,,,,,,,,,,2022.1954885000011,2022.2115146,2022.2115146,2022.695007000002,2022.7115472999867,2025.194840400014,2025.1950353999853,None,1.0,,,,,,,,,,,,,,,,,,,,,,,,,,,,,,,,,,,,,,,,,,,,,nback51,1.0,2024-01-12_17h18.39.372,untitled,2023.2.3,60.05371203655631,2024-01-12 17h53.18.129485 -0500,
7.0,"[0.3, 0]",None,0.0,14.0,14.0,14.0,,,,,,,,,2025.2115264000024,,,,,,,,,,,,,,,,,,,,,,,,,,,,2025.195804999996,2025.2115264000024,2025.2115264000024,2025.694857099996,2025.711591600004,2028.1947224999892,2028.194900100003,None,1.0,,,,,,,,,,,,,,,,,,,,,,,,,,,,,,,,,,,,,,,,,,,,,nback51,1.0,2024-01-12_17h18.39.372,untitled,2023.2.3,60.05371203655631,2024-01-12 17h53.18.129485 -0500,
2.0,"[0.64, 0.4]",None,0.0,15.0,15.0,15.0,,,,,,,,,2028.211512400012,,,,,,,,,,,,,,,,,,,,,,,,,,,,2028.195612899988,2028.211512400012,2028.211512400012,2028.6948918999988,2028.711439200008,2031.194600799994,2031.194704199996,None,1.0,,,,,,,,,,,,,,,,,,,,,,,,,,,,,,,,,,,,,,,,,,,,,nback51,1.0,2024-01-12_17h18.39.372,untitled,2023.2.3,60.05371203655631,2024-01-12 17h53.18.129485 -0500,
2.0,"[0.64, 0.4]",None,0.0,16.0,16.0,16.0,,,,,,,,,2031.2113015000068,,,,,,,,,,,,,,,,,,,,,,,,,,,,2031.1950602,2031.2113015000068,2031.2113015000068,2031.6948344999985,2031.711538100004,2034.1948542000027,2034.1950337000017,None,1.0,,,,,,,,,,,,,,,,,,,,,,,,,,,,,,,,,,,,,,,,,,,,,nback51,1.0,2024-01-12_17h18.39.372,untitled,2023.2.3,60.05371203655631,2024-01-12 17h53.18.129485 -0500,
11.0,"[-0.64, -0.4]",space,0.0,17.0,17.0,17.0,,,,,,,,,2034.2113600999876,,,,,,,,,,,,,,,,,,,,,,,,,,,,2034.1957122999884,2034.2113600999876,2034.2113600999876,2034.6946609999868,2034.711286100006,2037.1945943000028,2037.1947876999911,space,1.0,0.4047317999938968,None,,,,,,,,,,,,,,,,,,,,,,,,,,,,,,,,,,,,,,,,,,,nback51,1.0,2024-01-12_17h18.39.372,untitled,2023.2.3,60.05371203655631,2024-01-12 17h53.18.129485 -0500,
11.0,"[-0.64, -0.4]",space,0.0,18.0,18.0,18.0,,,,,,,,,2037.2112640000123,,,,,,,,,,,,,,,,,,,,,,,,,,,,2037.1956274000115,2037.2112640000123,2037.2112640000123,2037.6946093000008,2037.7112344999916,2040.1945894999956,2040.1947623000012,space,1.0,0.4453704000043217,None,,,,,,,,,,,,,,,,,,,,,,,,,,,,,,,,,,,,,,,,,,,nback51,1.0,2024-01-12_17h18.39.372,untitled,2023.2.3,60.05371203655631,2024-01-12 17h53.18.129485 -0500,
7.0,"[0.3, 0]",None,0.0,19.0,19.0,19.0,,,,,,,,,2040.2113308999976,,,,,,,,,,,,,,,,,,,,,,,,,,,,2040.1955912999983,2040.2113308999976,2040.2113308999976,2040.694808100001,2040.711273499997,2043.1946743000008,2043.1949318000115,None,1.0,,,,,,,,,,,,,,,,,,,,,,,,,,,,,,,,,,,,,,,,,,,,,nback51,1.0,2024-01-12_17h18.39.372,untitled,2023.2.3,60.05371203655631,2024-01-12 17h53.18.129485 -0500,
3.0,"[0, 0.2]",None,0.0,20.0,20.0,20.0,,,,,,,,,2043.211293100001,,,,,,,,,,,,,,,,,,,,,,,,,,,,2043.1957790000013,2043.211293100001,2043.211293100001,2043.694572999986,2043.7112449000124,2046.1944882000096,2046.1946848999944,None,1.0,,,,,,,,,,,,,,,,,,,,,,,,,,,,,,,,,,,,,,,,,,,,,nback51,1.0,2024-01-12_17h18.39.372,untitled,2023.2.3,60.05371203655631,2024-01-12 17h53.18.129485 -0500,
10.0,"[0, -0.2]",None,0.0,21.0,21.0,21.0,,,,,,,,,2046.2113143999889,,,,,,,,,,,,,,,,,,,,,,,,,,,,2046.1954650999976,2046.2113143999889,2046.2113143999889,2046.694611499988,2046.7112203,2049.194395900005,2049.194538599986,None,1.0,,,,,,,,,,,,,,,,,,,,,,,,,,,,,,,,,,,,,,,,,,,,,nback51,1.0,2024-01-12_17h18.39.372,untitled,2023.2.3,60.05371203655631,2024-01-12 17h53.18.129485 -0500,
1.0,"[-0.64, 0.4]",None,0.0,22.0,22.0,22.0,,,,,,,,,2049.211211599992,,,,,,,,,,,,,,,,,,,,,,,,,,,,2049.1950923000118,2049.211211599992,2049.211211599992,2049.6944199999853,2049.7111497999867,2052.194398099993,2052.19462200001,None,1.0,,,,,,,,,,,,,,,,,,,,,,,,,,,,,,,,,,,,,,,,,,,,,nback51,1.0,2024-01-12_17h18.39.372,untitled,2023.2.3,60.05371203655631,2024-01-12 17h53.18.129485 -0500,
2.0,"[0.64, 0.4]",None,0.0,23.0,23.0,23.0,,,,,,,,,2052.211148200004,,,,,,,,,,,,,,,,,,,,,,,,,,,,2052.1954613999987,2052.211148200004,2052.211148200004,2052.694352499995,2052.711138899991,2055.1941416999907,2055.1943201000104,None,1.0,,,,,,,,,,,,,,,,,,,,,,,,,,,,,,,,,,,,,,,,,,,,,nback51,1.0,2024-01-12_17h18.39.372,untitled,2023.2.3,60.05371203655631,2024-01-12 17h53.18.129485 -0500,
6.0,"[-0.3, 0]",None,0.0,24.0,24.0,24.0,,,,,,,,,2055.210925799998,,,,,,,,,,,,,,,,,,,,,,,,,,,,2055.194993699988,2055.210925799998,2055.210925799998,2055.694281000004,2055.7110261000053,2058.1943784999894,2058.1946022000047,None,1.0,,,,,,,,,,,,,,,,,,,,,,,,,,,,,,,,,,,,,,,,,,,,,nback51,1.0,2024-01-12_17h18.39.372,untitled,2023.2.3,60.05371203655631,2024-01-12 17h53.18.129485 -0500,
3.0,"[0, 0.2]",None,0.0,25.0,25.0,25.0,,,,,,,,,2058.210964099999,,,,,,,,,,,,,,,,,,,,,,,,,,,,2058.195377199998,2058.210964099999,2058.210964099999,2058.6942119000014,2058.7110260000045,2061.1943085000094,2061.1944831,None,1.0,,,,,,,,,,,,,,,,,,,,,,,,,,,,,,,,,,,,,,,,,,,,,nback51,1.0,2024-01-12_17h18.39.372,untitled,2023.2.3,60.05371203655631,2024-01-12 17h53.18.129485 -0500,
11.0,"[-0.64, -0.4]",space,0.0,26.0,26.0,26.0,,,,,,,,,2061.210947899992,,,,,,,,,,,,,,,,,,,,,,,,,,,,2061.1951788000006,2061.210947899992,2061.210947899992,2061.6941347999964,2061.7109452000004,2064.1942113999976,2064.1944008000137,space,1.0,0.3368530000152532,None,,,,,,,,,,,,,,,,,,,,,,,,,,,,,,,,,,,,,,,,,,,nback51,1.0,2024-01-12_17h18.39.372,untitled,2023.2.3,60.05371203655631,2024-01-12 17h53.18.129485 -0500,
1.0,"[-0.64, 0.4]",None,0.0,27.0,27.0,27.0,,,,,,,,,2064.210927200009,,,,,,,,,,,,,,,,,,,,,,,,,,,,2064.19529589999,2064.210927200009,2064.210927200009,2064.6941375999886,2064.710890599992,2067.194166400004,2067.1943551999866,None,1.0,,,,,,,,,,,,,,,,,,,,,,,,,,,,,,,,,,,,,,,,,,,,,nback51,1.0,2024-01-12_17h18.39.372,untitled,2023.2.3,60.05371203655631,2024-01-12 17h53.18.129485 -0500,
3.0,"[0, 0.2]",None,0.0,28.0,28.0,28.0,,,,,,,,,2067.210938100005,,,,,,,,,,,,,,,,,,,,,,,,,,,,2067.1951061,2067.210938100005,2067.210938100005,2067.694105900009,2067.7108754999936,2070.1940738999983,2070.194251100009,None,1.0,,,,,,,,,,,,,,,,,,,,,,,,,,,,,,,,,,,,,,,,,,,,,nback51,1.0,2024-01-12_17h18.39.372,untitled,2023.2.3,60.05371203655631,2024-01-12 17h53.18.129485 -0500,
9.0,"[0.2, -0.1]",None,0.0,29.0,29.0,29.0,,,,,,,,,2070.2107270999986,,,,,,,,,,,,,,,,,,,,,,,,,,,,2070.194919500005,2070.2107270999986,2070.2107270999986,2070.6940572999883,2070.710787399992,2073.1939830000047,2073.194172999996,None,1.0,,,,,,,,,,,,,,,,,,,,,,,,,,,,,,,,,,,,,,,,,,,,,nback51,1.0,2024-01-12_17h18.39.372,untitled,2023.2.3,60.05371203655631,2024-01-12 17h53.18.129485 -0500,
8.0,"[-0.2, -0.1]",None,0.0,30.0,30.0,30.0,,,,,,,,,2073.2106620999984,,,,,,,,,,,,,,,,,,,,,,,,,,,,2073.1949598999927,2073.2106620999984,2073.2106620999984,2073.693889099988,2073.710615299992,2076.193961300014,2076.194139600004,None,1.0,,,,,,,,,,,,,,,,,,,,,,,,,,,,,,,,,,,,,,,,,,,,,nback51,1.0,2024-01-12_17h18.39.372,untitled,2023.2.3,60.05371203655631,2024-01-12 17h53.18.129485 -0500,
12.0,"[0.64, -0.4]",None,0.0,31.0,31.0,31.0,,,,,,,,,2076.210722599993,,,,,,,,,,,,,,,,,,,,,,,,,,,,2076.194876499998,2076.210722599993,2076.210722599993,2076.694092199992,2076.710678800009,2079.193986600003,2079.1942030999926,None,1.0,,,,,,,,,,,,,,,,,,,,,,,,,,,,,,,,,,,,,,,,,,,,,nback51,1.0,2024-01-12_17h18.39.372,untitled,2023.2.3,60.05371203655631,2024-01-12 17h53.18.129485 -0500,
9.0,"[0.2, -0.1]",None,0.0,32.0,32.0,32.0,,,,,,,,,2079.210773300001,,,,,,,,,,,,,,,,,,,,,,,,,,,,2079.1950184000016,2079.210773300001,2079.210773300001,2079.693759599992,2079.710595499986,2082.1937014999858,2082.193799700006,None,1.0,,,,,,,,,,,,,,,,,,,,,,,,,,,,,,,,,,,,,,,,,,,,,nback51,1.0,2024-01-12_17h18.39.372,untitled,2023.2.3,60.05371203655631,2024-01-12 17h53.18.129485 -0500,
11.0,"[-0.64, -0.4]",space,0.0,33.0,33.0,33.0,,,,,,,,,2082.2104616000142,,,,,,,,,,,,,,,,,,,,,,,,,,,,2082.194348899997,2082.2104616000142,2082.2104616000142,2082.693764900003,2082.7107401000103,2085.193888799986,2085.194090200006,space,1.0,0.3017824999988079,None,,,,,,,,,,,,,,,,,,,,,,,,,,,,,,,,,,,,,,,,,,,nback51,1.0,2024-01-12_17h18.39.372,untitled,2023.2.3,60.05371203655631,2024-01-12 17h53.18.129485 -0500,
7.0,"[0.3, 0]",None,0.0,34.0,34.0,34.0,,,,,,,,,2085.210592799994,,,,,,,,,,,,,,,,,,,,,,,,,,,,2085.195018700004,2085.210592799994,2085.210592799994,2085.6939808999887,2085.7104310999857,2088.193953500013,2088.1941537999955,None,1.0,,,,,,,,,,,,,,,,,,,,,,,,,,,,,,,,,,,,,,,,,,,,,nback51,1.0,2024-01-12_17h18.39.372,untitled,2023.2.3,60.05371203655631,2024-01-12 17h53.18.129485 -0500,
11.0,"[-0.64, -0.4]",space,0.0,35.0,35.0,35.0,,,,,,,,,2088.210588599992,,,,,,,,,,,,,,,,,,,,,,,,,,,,2088.1949287999887,2088.210588599992,2088.210588599992,2088.693878099992,2088.710366299987,2091.1938205999904,2091.193991999986,space,1.0,0.350560899998527,None,,,,,,,,,,,,,,,,,,,,,,,,,,,,,,,,,,,,,,,,,,,nback51,1.0,2024-01-12_17h18.39.372,untitled,2023.2.3,60.05371203655631,2024-01-12 17h53.18.129485 -0500,
4.0,"[-0.2, 0.1]",None,0.0,36.0,36.0,36.0,,,,,,,,,2091.2104718000046,,,,,,,,,,,,,,,,,,,,,,,,,,,,2091.194758700003,2091.2104718000046,2091.2104718000046,2091.6937977999914,2091.710349600005,2094.193716600013,2094.193915400014,None,1.0,,,,,,,,,,,,,,,,,,,,,,,,,,,,,,,,,,,,,,,,,,,,,nback51,1.0,2024-01-12_17h18.39.372,untitled,2023.2.3,60.05371203655631,2024-01-12 17h53.18.129485 -0500,
5.0,"[0.2, 0.1]",None,0.0,37.0,37.0,37.0,,,,,,,,,2094.210370199988,,,,,,,,,,,,,,,,,,,,,,,,,,,,2094.1946985000104,2094.210370199988,2094.210370199988,2094.6937408999947,2094.710370199988,2097.193514899991,2097.193704400008,None,1.0,,,,,,,,,,,,,,,,,,,,,,,,,,,,,,,,,,,,,,,,,,,,,nback51,1.0,2024-01-12_17h18.39.372,untitled,2023.2.3,60.05371203655631,2024-01-12 17h53.18.129485 -0500,
6.0,"[-0.3, 0]",None,0.0,38.0,38.0,38.0,,,,,,,,,2097.21034640001,,,,,,,,,,,,,,,,,,,,,,,,,,,,2097.1944522999984,2097.21034640001,2097.21034640001,2097.6937660000112,2097.710265200003,2100.193628899986,2100.193805499992,None,1.0,,,,,,,,,,,,,,,,,,,,,,,,,,,,,,,,,,,,,,,,,,,,,nback51,1.0,2024-01-12_17h18.39.372,untitled,2023.2.3,60.05371203655631,2024-01-12 17h53.18.129485 -0500,
11.0,"[-0.64, -0.4]",space,0.0,39.0,39.0,39.0,,,,,,,,,2100.2102589000133,,,,,,,,,,,,,,,,,,,,,,,,,,,,2100.1945314999903,2100.2102589000133,2100.2102589000133,2100.6936431000067,2100.7104008999886,2103.193684500002,2103.193910300004,space,1.0,0.3251532999856863,None,,,,,,,,,,,,,,,,,,,,,,,,,,,,,,,,,,,,,,,,,,,nback51,1.0,2024-01-12_17h18.39.372,untitled,2023.2.3,60.05371203655631,2024-01-12 17h53.18.129485 -0500,
,,,,,,,,,,,,,,,,,,,,,,,,,,,,,,,,,,,,,,,,,,,,,,,,,,,,,,2103.1946329000057,2103.2102812000085,2103.2102812000085,2121.0116811000044,space,17.785606099991128,None,,,,,,,,,,,,,,,,,,,,,,,,,,,,,,,,,,,,nback51,1.0,2024-01-12_17h18.39.372,untitled,2023.2.3,60.05371203655631,2024-01-12 17h53.18.129485 -0500,
10.0,"[0, -0.2]",None,,,,,0.0,0.0,0.0,0.0,,,,,2122.026681599993,,,,,,,,,,,,,,,,,,,,,,,,2121.011729699996,2121.026685699995,2122.026681599993,2122.010856000008,,,,,,,,,,,,,,,,,,,2122.020598100004,2122.026681599993,2122.026681599993,2122.52664560001,2122.52664560001,2125.0264865999925,2125.0264865999925,2125.0105868999963,None,1.0,,,,,,,,,,,,,,,,,,,,,,,,,,nback51,1.0,2024-01-12_17h18.39.372,untitled,2023.2.3,60.05371203655631,2024-01-12 17h53.18.129485 -0500,
5.0,"[0.2, 0.1]",None,,,,,0.0,1.0,1.0,1.0,,,,,2125.0264865999925,,,,,,,,,,,,,,,,,,,,,,,,,,,,,,,,,,,,,,,,,,,,,,2125.011261100008,2125.0264865999925,2125.0264865999925,2125.526550300012,2125.526550300012,2128.0264745999884,2128.0264745999884,2128.010799100012,None,1.0,,,,,,,,,,,,,,,,,,,,,,,,,,nback51,1.0,2024-01-12_17h18.39.372,untitled,2023.2.3,60.05371203655631,2024-01-12 17h53.18.129485 -0500,
6.0,"[-0.3, 0]",None,,,,,0.0,2.0,2.0,2.0,,,,,2128.0264745999884,,,,,,,,,,,,,,,,,,,,,,,,,,,,,,,,,,,,,,,,,,,,,,2128.011556599988,2128.0264745999884,2128.0264745999884,2128.5264538000047,2128.5264538000047,2131.026599200006,2131.026599200006,2131.010668600007,None,1.0,,,,,,,,,,,,,,,,,,,,,,,,,,nback51,1.0,2024-01-12_17h18.39.372,untitled,2023.2.3,60.05371203655631,2024-01-12 17h53.18.129485 -0500,
6.0,"[-0.3, 0]",space,,,,,0.0,3.0,3.0,3.0,,,,,2131.026599200006,,,,,,,,,,,,,,,,,,,,,,,,,,,,,,,,,,,,,,,,,,,,,,2131.01132759999,2131.026599200006,2131.026599200006,2131.526471099991,2131.526471099991,2134.026462600013,2134.026462600013,2134.0107112000114,space,1.0,1.4672050999943167,None,,,,,,,,,,,,,,,,,,,,,,,,nback51,1.0,2024-01-12_17h18.39.372,untitled,2023.2.3,60.05371203655631,2024-01-12 17h53.18.129485 -0500,
12.0,"[0.64, -0.4]",None,,,,,0.0,4.0,4.0,4.0,,,,,2134.026462600013,,,,,,,,,,,,,,,,,,,,,,,,,,,,,,,,,,,,,,,,,,,,,,2134.011657099996,2134.026462600013,2134.026462600013,2134.5263129000086,2134.5263129000086,2137.026413899992,2137.026413899992,2137.010535700014,None,1.0,,,,,,,,,,,,,,,,,,,,,,,,,,nback51,1.0,2024-01-12_17h18.39.372,untitled,2023.2.3,60.05371203655631,2024-01-12 17h53.18.129485 -0500,
10.0,"[0, -0.2]",None,,,,,0.0,5.0,5.0,5.0,,,,,2137.026413899992,,,,,,,,,,,,,,,,,,,,,,,,,,,,,,,,,,,,,,,,,,,,,,2137.011368600012,2137.026413899992,2137.026413899992,2137.5264603999967,2137.5264603999967,2140.026195999992,2140.026195999992,2140.01039380001,None,1.0,,,,,,,,,,,,,,,,,,,,,,,,,,nback51,1.0,2024-01-12_17h18.39.372,untitled,2023.2.3,60.05371203655631,2024-01-12 17h53.18.129485 -0500,
2.0,"[0.64, 0.4]",None,,,,,0.0,6.0,6.0,6.0,,,,,2140.026195999992,,,,,,,,,,,,,,,,,,,,,,,,,,,,,,,,,,,,,,,,,,,,,,2140.011014899996,2140.026195999992,2140.026195999992,2140.5262400000065,2140.5262400000065,2143.026146499993,2143.026146499993,2143.010322499991,None,1.0,,,,,,,,,,,,,,,,,,,,,,,,,,nback51,1.0,2024-01-12_17h18.39.372,untitled,2023.2.3,60.05371203655631,2024-01-12 17h53.18.129485 -0500,
9.0,"[0.2, -0.1]",None,,,,,0.0,7.0,7.0,7.0,,,,,2143.026146499993,,,,,,,,,,,,,,,,,,,,,,,,,,,,,,,,,,,,,,,,,,,,,,2143.0109411999874,2143.026146499993,2143.026146499993,2143.526309400011,2143.526309400011,2146.026224000001,2146.026224000001,2146.0103690999968,None,1.0,,,,,,,,,,,,,,,,,,,,,,,,,,nback51,1.0,2024-01-12_17h18.39.372,untitled,2023.2.3,60.05371203655631,2024-01-12 17h53.18.129485 -0500,
9.0,"[0.2, -0.1]",space,,,,,0.0,8.0,8.0,8.0,,,,,2146.026224000001,,,,,,,,,,,,,,,,,,,,,,,,,,,,,,,,,,,,,,,,,,,,,,2146.011076900002,2146.026224000001,2146.026224000001,2146.52619460001,2146.52619460001,2149.0262681999884,2149.0262681999884,2149.0105287999904,space,1.0,0.4939442000177223,None,,,,,,,,,,,,,,,,,,,,,,,,nback51,1.0,2024-01-12_17h18.39.372,untitled,2023.2.3,60.05371203655631,2024-01-12 17h53.18.129485 -0500,
6.0,"[-0.3, 0]",None,,,,,0.0,9.0,9.0,9.0,,,,,2149.0262681999884,,,,,,,,,,,,,,,,,,,,,,,,,,,,,,,,,,,,,,,,,,,,,,2149.0115296999866,2149.0262681999884,2149.0262681999884,2149.5260537999857,2149.5260537999857,2152.0260219000047,2152.0260219000047,2152.0102710000065,None,1.0,,,,,,,,,,,,,,,,,,,,,,,,,,nback51,1.0,2024-01-12_17h18.39.372,untitled,2023.2.3,60.05371203655631,2024-01-12 17h53.18.129485 -0500,
11.0,"[-0.64, -0.4]",None,,,,,0.0,10.0,10.0,10.0,,,,,2152.0260219000047,,,,,,,,,,,,,,,,,,,,,,,,,,,,,,,,,,,,,,,,,,,,,,2152.010989900009,2152.0260219000047,2152.0260219000047,2152.526052800007,2152.526052800007,2155.0260689000133,2155.0260689000133,2155.010303899995,None,1.0,,,,,,,,,,,,,,,,,,,,,,,,,,nback51,1.0,2024-01-12_17h18.39.372,untitled,2023.2.3,60.05371203655631,2024-01-12 17h53.18.129485 -0500,
11.0,"[-0.64, -0.4]",space,,,,,0.0,11.0,11.0,11.0,,,,,2155.0260689000133,,,,,,,,,,,,,,,,,,,,,,,,,,,,,,,,,,,,,,,,,,,,,,2155.011089700012,2155.0260689000133,2155.0260689000133,2155.526001099992,2155.526001099992,2158.026058399992,2158.026058399992,2158.010074799997,space,1.0,0.4669376999954693,None,,,,,,,,,,,,,,,,,,,,,,,,nback51,1.0,2024-01-12_17h18.39.372,untitled,2023.2.3,60.05371203655631,2024-01-12 17h53.18.129485 -0500,
4.0,"[-0.2, 0.1]",None,,,,,0.0,12.0,12.0,12.0,,,,,2158.026058399992,,,,,,,,,,,,,,,,,,,,,,,,,,,,,,,,,,,,,,,,,,,,,,2158.01081159999,2158.026058399992,2158.026058399992,2158.5261791000084,2158.5261791000084,2161.025919800013,2161.025919800013,2161.0099667999893,None,1.0,,,,,,,,,,,,,,,,,,,,,,,,,,nback51,1.0,2024-01-12_17h18.39.372,untitled,2023.2.3,60.05371203655631,2024-01-12 17h53.18.129485 -0500,
3.0,"[0, 0.2]",None,,,,,0.0,13.0,13.0,13.0,,,,,2161.025919800013,,,,,,,,,,,,,,,,,,,,,,,,,,,,,,,,,,,,,,,,,,,,,,2161.010534400004,2161.025919800013,2161.025919800013,2161.526037600008,2161.526037600008,2164.025852299994,2164.025852299994,2164.0100956000097,None,1.0,,,,,,,,,,,,,,,,,,,,,,,,,,nback51,1.0,2024-01-12_17h18.39.372,untitled,2023.2.3,60.05371203655631,2024-01-12 17h53.18.129485 -0500,
3.0,"[0, 0.2]",space,,,,,0.0,14.0,14.0,14.0,,,,,2164.025852299994,,,,,,,,,,,,,,,,,,,,,,,,,,,,,,,,,,,,,,,,,,,,,,2164.010831599997,2164.025852299994,2164.025852299994,2164.525858000008,2164.525858000008,2167.025726599997,2167.025726599997,2167.009863799991,space,1.0,0.5479128000151832,None,,,,,,,,,,,,,,,,,,,,,,,,nback51,1.0,2024-01-12_17h18.39.372,untitled,2023.2.3,60.05371203655631,2024-01-12 17h53.18.129485 -0500,
8.0,"[-0.2, -0.1]",None,,,,,0.0,15.0,15.0,15.0,,,,,2167.025726599997,,,,,,,,,,,,,,,,,,,,,,,,,,,,,,,,,,,,,,,,,,,,,,2167.010568800004,2167.025726599997,2167.025726599997,2167.525856799999,2167.525856799999,2170.025721100013,2170.025721100013,2170.009826099995,None,1.0,,,,,,,,,,,,,,,,,,,,,,,,,,nback51,1.0,2024-01-12_17h18.39.372,untitled,2023.2.3,60.05371203655631,2024-01-12 17h53.18.129485 -0500,
1.0,"[-0.64, 0.4]",None,,,,,0.0,16.0,16.0,16.0,,,,,2170.025721100013,,,,,,,,,,,,,,,,,,,,,,,,,,,,,,,,,,,,,,,,,,,,,,2170.010328300006,2170.025721100013,2170.025721100013,2170.5258508000115,2170.5258508000115,2173.0257699000067,2173.0257699000067,2173.0099090999865,None,1.0,,,,,,,,,,,,,,,,,,,,,,,,,,nback51,1.0,2024-01-12_17h18.39.372,untitled,2023.2.3,60.05371203655631,2024-01-12 17h53.18.129485 -0500,
2.0,"[0.64, 0.4]",None,,,,,0.0,17.0,17.0,17.0,,,,,2173.0257699000067,,,,,,,,,,,,,,,,,,,,,,,,,,,,,,,,,,,,,,,,,,,,,,2173.0105909999984,2173.0257699000067,2173.0257699000067,2173.5257213999867,2173.5257213999867,2176.025768899999,2176.025768899999,2176.0100185000047,None,1.0,,,,,,,,,,,,,,,,,,,,,,,,,,nback51,1.0,2024-01-12_17h18.39.372,untitled,2023.2.3,60.05371203655631,2024-01-12 17h53.18.129485 -0500,
4.0,"[-0.2, 0.1]",None,,,,,0.0,18.0,18.0,18.0,,,,,2176.025768899999,,,,,,,,,,,,,,,,,,,,,,,,,,,,,,,,,,,,,,,,,,,,,,2176.0107819999976,2176.025768899999,2176.025768899999,2176.5256580999994,2176.5256580999994,2179.025542299991,2179.025542299991,2179.009961600008,None,1.0,,,,,,,,,,,,,,,,,,,,,,,,,,nback51,1.0,2024-01-12_17h18.39.372,untitled,2023.2.3,60.05371203655631,2024-01-12 17h53.18.129485 -0500,
4.0,"[-0.2, 0.1]",space,,,,,0.0,19.0,19.0,19.0,,,,,2179.025542299991,,,,,,,,,,,,,,,,,,,,,,,,,,,,,,,,,,,,,,,,,,,,,,2179.01060780001,2179.025542299991,2179.025542299991,2179.525611699996,2179.525611699996,2182.025452300004,2182.025452300004,2182.0094034000067,space,1.0,0.3613937000045553,None,,,,,,,,,,,,,,,,,,,,,,,,nback51,1.0,2024-01-12_17h18.39.372,untitled,2023.2.3,60.05371203655631,2024-01-12 17h53.18.129485 -0500,
8.0,"[-0.2, -0.1]",None,,,,,0.0,20.0,20.0,20.0,,,,,2182.025452300004,,,,,,,,,,,,,,,,,,,,,,,,,,,,,,,,,,,,,,,,,,,,,,2182.010023300012,2182.025452300004,2182.025452300004,2182.5255378999864,2182.5255378999864,2185.025581599999,2185.025581599999,2185.009941600001,None,1.0,,,,,,,,,,,,,,,,,,,,,,,,,,nback51,1.0,2024-01-12_17h18.39.372,untitled,2023.2.3,60.05371203655631,2024-01-12 17h53.18.129485 -0500,
5.0,"[0.2, 0.1]",None,,,,,0.0,21.0,21.0,21.0,,,,,2185.025581599999,,,,,,,,,,,,,,,,,,,,,,,,,,,,,,,,,,,,,,,,,,,,,,2185.010776200012,2185.025581599999,2185.025581599999,2185.525506100006,2185.525506100006,2188.0253849999863,2188.0253849999863,2188.0097577999986,None,1.0,,,,,,,,,,,,,,,,,,,,,,,,,,nback51,1.0,2024-01-12_17h18.39.372,untitled,2023.2.3,60.05371203655631,2024-01-12 17h53.18.129485 -0500,
5.0,"[0.2, 0.1]",space,,,,,0.0,22.0,22.0,22.0,,,,,2188.0253849999863,,,,,,,,,,,,,,,,,,,,,,,,,,,,,,,,,,,,,,,,,,,,,,2188.010467199987,2188.0253849999863,2188.0253849999863,2188.5255628000014,2188.5255628000014,2191.025491600012,2191.025491600012,2191.00977959999,space,1.0,0.5386989999969956,None,,,,,,,,,,,,,,,,,,,,,,,,nback51,1.0,2024-01-12_17h18.39.372,untitled,2023.2.3,60.05371203655631,2024-01-12 17h53.18.129485 -0500,
1.0,"[-0.64, 0.4]",None,,,,,0.0,23.0,23.0,23.0,,,,,2191.025491600012,,,,,,,,,,,,,,,,,,,,,,,,,,,,,,,,,,,,,,,,,,,,,,2191.0106137999974,2191.025491600012,2191.025491600012,2191.525441500009,2191.525441500009,2194.025454799994,2194.025454799994,2194.009655500005,None,1.0,,,,,,,,,,,,,,,,,,,,,,,,,,nback51,1.0,2024-01-12_17h18.39.372,untitled,2023.2.3,60.05371203655631,2024-01-12 17h53.18.129485 -0500,
3.0,"[0, 0.2]",None,,,,,0.0,24.0,24.0,24.0,,,,,2194.025454799994,,,,,,,,,,,,,,,,,,,,,,,,,,,,,,,,,,,,,,,,,,,,,,2194.010479599994,2194.025454799994,2194.025454799994,2194.52540079999,2194.52540079999,2197.025264600001,2197.025264600001,2197.009484600014,None,1.0,,,,,,,,,,,,,,,,,,,,,,,,,,nback51,1.0,2024-01-12_17h18.39.372,untitled,2023.2.3,60.05371203655631,2024-01-12 17h53.18.129485 -0500,
6.0,"[-0.3, 0]",None,,,,,0.0,25.0,25.0,25.0,,,,,2197.025264600001,,,,,,,,,,,,,,,,,,,,,,,,,,,,,,,,,,,,,,,,,,,,,,2197.010173499992,2197.025264600001,2197.025264600001,2197.5251788999885,2197.5251788999885,2200.025240499992,2200.025240499992,2200.009771000012,None,1.0,,,,,,,,,,,,,,,,,,,,,,,,,,nback51,1.0,2024-01-12_17h18.39.372,untitled,2023.2.3,60.05371203655631,2024-01-12 17h53.18.129485 -0500,
1.0,"[-0.64, 0.4]",None,,,,,0.0,26.0,26.0,26.0,,,,,2200.025240499992,,,,,,,,,,,,,,,,,,,,,,,,,,,,,,,,,,,,,,,,,,,,,,2200.0106198999856,2200.025240499992,2200.025240499992,2200.5252319999854,2200.5252319999854,2203.0251490999945,2203.0251490999945,2203.0091014000063,space,0.0,0.771484099997906,None,,,,,,,,,,,,,,,,,,,,,,,,nback51,1.0,2024-01-12_17h18.39.372,untitled,2023.2.3,60.05371203655631,2024-01-12 17h53.18.129485 -0500,
1.0,"[-0.64, 0.4]",space,,,,,0.0,27.0,27.0,27.0,,,,,2203.0251490999945,,,,,,,,,,,,,,,,,,,,,,,,,,,,,,,,,,,,,,,,,,,,,,2203.009760199988,2203.0251490999945,2203.0251490999945,2203.525083399989,2203.525083399989,2206.025137499993,2206.025137499993,2206.008701499988,space,1.0,0.5509332999936305,None,,,,,,,,,,,,,,,,,,,,,,,,nback51,1.0,2024-01-12_17h18.39.372,untitled,2023.2.3,60.05371203655631,2024-01-12 17h53.18.129485 -0500,
1.0,"[-0.64, 0.4]",space,,,,,0.0,28.0,28.0,28.0,,,,,2206.025137499993,,,,,,,,,,,,,,,,,,,,,,,,,,,,,,,,,,,,,,,,,,,,,,2206.009063800011,2206.025137499993,2206.025137499993,2206.5252072000003,2206.5252072000003,2209.025093500008,2209.025093500008,2209.009190300014,space,1.0,1.2111789000045974,None,,,,,,,,,,,,,,,,,,,,,,,,nback51,1.0,2024-01-12_17h18.39.372,untitled,2023.2.3,60.05371203655631,2024-01-12 17h53.18.129485 -0500,
3.0,"[0, 0.2]",None,,,,,0.0,29.0,29.0,29.0,,,,,2209.025093500008,,,,,,,,,,,,,,,,,,,,,,,,,,,,,,,,,,,,,,,,,,,,,,2209.009860799997,2209.025093500008,2209.025093500008,2209.5250413999893,2209.5250413999893,2212.0250396000047,2212.0250396000047,2212.009195799997,None,1.0,,,,,,,,,,,,,,,,,,,,,,,,,,nback51,1.0,2024-01-12_17h18.39.372,untitled,2023.2.3,60.05371203655631,2024-01-12 17h53.18.129485 -0500,
12.0,"[0.64, -0.4]",None,,,,,0.0,30.0,30.0,30.0,,,,,2212.0250396000047,,,,,,,,,,,,,,,,,,,,,,,,,,,,,,,,,,,,,,,,,,,,,,2212.009886799992,2212.0250396000047,2212.0250396000047,2212.525129699992,2212.525129699992,2215.0250119999982,2215.0250119999982,2215.00919479999,None,1.0,,,,,,,,,,,,,,,,,,,,,,,,,,nback51,1.0,2024-01-12_17h18.39.372,untitled,2023.2.3,60.05371203655631,2024-01-12 17h53.18.129485 -0500,
12.0,"[0.64, -0.4]",space,,,,,0.0,31.0,31.0,31.0,,,,,2215.0250119999982,,,,,,,,,,,,,,,,,,,,,,,,,,,,,,,,,,,,,,,,,,,,,,2215.0098224999965,2215.0250119999982,2215.0250119999982,2215.524927999999,2215.524927999999,2218.024981800001,2218.024981800001,2218.0087312000105,space,1.0,0.7570390999899246,None,,,,,,,,,,,,,,,,,,,,,,,,nback51,1.0,2024-01-12_17h18.39.372,untitled,2023.2.3,60.05371203655631,2024-01-12 17h53.18.129485 -0500,
2.0,"[0.64, 0.4]",None,,,,,0.0,32.0,32.0,32.0,,,,,2218.024981800001,,,,,,,,,,,,,,,,,,,,,,,,,,,,,,,,,,,,,,,,,,,,,,2218.0093776999856,2218.024981800001,2218.024981800001,2218.524925500009,2218.524925500009,2221.0248896999983,2221.0248896999983,2221.0088911000057,None,1.0,,,,,,,,,,,,,,,,,,,,,,,,,,nback51,1.0,2024-01-12_17h18.39.372,untitled,2023.2.3,60.05371203655631,2024-01-12 17h53.18.129485 -0500,
1.0,"[-0.64, 0.4]",None,,,,,0.0,33.0,33.0,33.0,,,,,2221.0248896999983,,,,,,,,,,,,,,,,,,,,,,,,,,,,,,,,,,,,,,,,,,,,,,2221.0093639999977,2221.0248896999983,2221.0248896999983,2221.524845900014,2221.524845900014,2224.024934999994,2224.024934999994,2224.009017900011,None,1.0,,,,,,,,,,,,,,,,,,,,,,,,,,nback51,1.0,2024-01-12_17h18.39.372,untitled,2023.2.3,60.05371203655631,2024-01-12 17h53.18.129485 -0500,
7.0,"[0.3, 0]",None,,,,,0.0,34.0,34.0,34.0,,,,,2224.024934999994,,,,,,,,,,,,,,,,,,,,,,,,,,,,,,,,,,,,,,,,,,,,,,2224.009704099997,2224.024934999994,2224.024934999994,2224.5249859000032,2224.5249859000032,2227.024823399988,2227.024823399988,2227.0088770999864,None,1.0,,,,,,,,,,,,,,,,,,,,,,,,,,nback51,1.0,2024-01-12_17h18.39.372,untitled,2023.2.3,60.05371203655631,2024-01-12 17h53.18.129485 -0500,
7.0,"[0.3, 0]",space,,,,,0.0,35.0,35.0,35.0,,,,,2227.024823399988,,,,,,,,,,,,,,,,,,,,,,,,,,,,,,,,,,,,,,,,,,,,,,2227.0095510999963,2227.024823399988,2227.024823399988,2227.524699300004,2227.524699300004,2230.024774199992,2230.024774199992,2230.0093400999904,space,1.0,0.588156199984951,None,,,,,,,,,,,,,,,,,,,,,,,,nback51,1.0,2024-01-12_17h18.39.372,untitled,2023.2.3,60.05371203655631,2024-01-12 17h53.18.129485 -0500,
11.0,"[-0.64, -0.4]",None,,,,,0.0,36.0,36.0,36.0,,,,,2230.024774199992,,,,,,,,,,,,,,,,,,,,,,,,,,,,,,,,,,,,,,,,,,,,,,2230.010437299992,2230.024774199992,2230.024774199992,2230.524589700013,2230.524589700013,2233.024636799993,2233.024636799993,2233.0087747999933,None,1.0,,,,,,,,,,,,,,,,,,,,,,,,,,nback51,1.0,2024-01-12_17h18.39.372,untitled,2023.2.3,60.05371203655631,2024-01-12 17h53.18.129485 -0500,
2.0,"[0.64, 0.4]",None,,,,,0.0,37.0,37.0,37.0,,,,,2233.024636799993,,,,,,,,,,,,,,,,,,,,,,,,,,,,,,,,,,,,,,,,,,,,,,2233.0094391999883,2233.024636799993,2233.024636799993,2233.525199099997,2233.525199099997,2236.0245215999894,2236.0245215999894,2236.008798199997,None,1.0,,,,,,,,,,,,,,,,,,,,,,,,,,nback51,1.0,2024-01-12_17h18.39.372,untitled,2023.2.3,60.05371203655631,2024-01-12 17h53.18.129485 -0500,
6.0,"[-0.3, 0]",None,,,,,0.0,38.0,38.0,38.0,,,,,2236.0245215999894,,,,,,,,,,,,,,,,,,,,,,,,,,,,,,,,,,,,,,,,,,,,,,2236.0095426999906,2236.0245215999894,2236.0245215999894,2236.5246650000045,2236.5246650000045,2239.024692100007,2239.024692100007,2239.008788400009,None,1.0,,,,,,,,,,,,,,,,,,,,,,,,,,nback51,1.0,2024-01-12_17h18.39.372,untitled,2023.2.3,60.05371203655631,2024-01-12 17h53.18.129485 -0500,
10.0,"[0, -0.2]",None,,,,,0.0,39.0,39.0,39.0,,,,,2239.024692100007,,,,,,,,,,,,,,,,,,,,,,,,,,,,,,,,,,,,,,,,,,,,,,2239.009616399999,2239.024692100007,2239.024692100007,2239.5245995000005,2239.5245995000005,2242.024727000011,2242.024727000011,2242.008549199993,None,1.0,,,,,,,,,,,,,,,,,,,,,,,,,,nback51,1.0,2024-01-12_17h18.39.372,untitled,2023.2.3,60.05371203655631,2024-01-12 17h53.18.129485 -0500,
,,,,,,,,,,,,,,,,,,,,,,,,,,,,,,,,,,,,,,,,,,,,,,,,,,,,,,,,,,,,,,,,,,,,,,,,,2242.008983800013,2242.024727000011,2242.024727000011,2266.108856200008,space,24.070433799992315,None,,,,,,,,,,,,,,,,,nback51,1.0,2024-01-12_17h18.39.372,untitled,2023.2.3,60.05371203655631,2024-01-12 17h53.18.129485 -0500,
,"[0.2, 0.1]",None,,,,,,,,,0.0,0.0,0.0,0.0,2267.124078699999,,,,,,,,,,,,,,,,,,,,,,,,2266.108898800012,2266.1242019000056,2267.124078699999,2267.1085983999947,,,,,,,,,,,,,,,,,,,,,,,,,,,,,,,,,,,,,,2267.1184797000024,2267.124078699999,2267.124078699999,2267.624147099996,2267.624147099996,2270.1240813999902,2270.1240813999902,2270.1082486000087,None,1.0,,,,,,,nback51,1.0,2024-01-12_17h18.39.372,untitled,2023.2.3,60.05371203655631,2024-01-12 17h53.18.129485 -0500,
,"[0.64, 0.4]",None,,,,,,,,,0.0,1.0,1.0,1.0,2270.1240813999902,,,,,,,,,,,,,,,,,,,,,,,,,,,,,,,,,,,,,,,,,,,,,,,,,,,,,,,,,,,,,,,,,2270.1090889000043,2270.1240813999902,2270.1240813999902,2270.6240704999946,2270.6240704999946,2273.1239156000083,2273.1239156000083,2273.108161400014,None,1.0,,,,,,,nback51,1.0,2024-01-12_17h18.39.372,untitled,2023.2.3,60.05371203655631,2024-01-12 17h53.18.129485 -0500,
,"[-0.3, 0]",None,,,,,,,,,0.0,2.0,2.0,2.0,2273.1239156000083,,,,,,,,,,,,,,,,,,,,,,,,,,,,,,,,,,,,,,,,,,,,,,,,,,,,,,,,,,,,,,,,,2273.1087898999976,2273.1239156000083,2273.1239156000083,2273.6239541000105,2273.6239541000105,2276.124020099989,2276.124020099989,2276.108131099987,None,1.0,,,,,,,nback51,1.0,2024-01-12_17h18.39.372,untitled,2023.2.3,60.05371203655631,2024-01-12 17h53.18.129485 -0500,
,"[0.2, -0.1]",None,,,,,,,,,0.0,3.0,3.0,3.0,2276.124020099989,,,,,,,,,,,,,,,,,,,,,,,,,,,,,,,,,,,,,,,,,,,,,,,,,,,,,,,,,,,,,,,,,2276.108783100004,2276.124020099989,2276.124020099989,2276.623931000009,2276.623931000009,2279.123756099987,2279.123756099987,2279.1080807000108,None,1.0,,,,,,,nback51,1.0,2024-01-12_17h18.39.372,untitled,2023.2.3,60.05371203655631,2024-01-12 17h53.18.129485 -0500,
,"[0, 0.2]",None,,,,,,,,,0.0,4.0,4.0,4.0,2279.123756099987,,,,,,,,,,,,,,,,,,,,,,,,,,,,,,,,,,,,,,,,,,,,,,,,,,,,,,,,,,,,,,,,,2279.1087523000024,2279.123756099987,2279.123756099987,2279.6239001000067,2279.6239001000067,2282.1237593000114,2282.1237593000114,2282.107946700009,None,1.0,,,,,,,nback51,1.0,2024-01-12_17h18.39.372,untitled,2023.2.3,60.05371203655631,2024-01-12 17h53.18.129485 -0500,
,"[0.2, -0.1]",space,,,,,,,,,0.0,5.0,5.0,5.0,2282.1237593000114,,,,,,,,,,,,,,,,,,,,,,,,,,,,,,,,,,,,,,,,,,,,,,,,,,,,,,,,,,,,,,,,,2282.1086215999967,2282.1237593000114,2282.1237593000114,2282.623706999992,2282.623706999992,2285.123789800011,2285.123789800011,2285.108252000005,space,1.0,0.6003195999946911,None,,,,,nback51,1.0,2024-01-12_17h18.39.372,untitled,2023.2.3,60.05371203655631,2024-01-12 17h53.18.129485 -0500,
,"[0, -0.2]",None,,,,,,,,,0.0,6.0,6.0,6.0,2285.123789800011,,,,,,,,,,,,,,,,,,,,,,,,,,,,,,,,,,,,,,,,,,,,,,,,,,,,,,,,,,,,,,,,,2285.109494500008,2285.123789800011,2285.123789800011,2285.623682000005,2285.623682000005,2288.1237618000014,2288.1237618000014,2288.1081359999957,None,1.0,,,,,,,nback51,1.0,2024-01-12_17h18.39.372,untitled,2023.2.3,60.05371203655631,2024-01-12 17h53.18.129485 -0500,
,"[0.64, -0.4]",None,,,,,,,,,0.0,7.0,7.0,7.0,2288.1237618000014,,,,,,,,,,,,,,,,,,,,,,,,,,,,,,,,,,,,,,,,,,,,,,,,,,,,,,,,,,,,,,,,,2288.108972499991,2288.1237618000014,2288.1237618000014,2288.6236777000013,2288.6236777000013,2291.1237017000094,2291.1237017000094,2291.1081197999883,None,1.0,,,,,,,nback51,1.0,2024-01-12_17h18.39.372,untitled,2023.2.3,60.05371203655631,2024-01-12 17h53.18.129485 -0500,
,"[0.3, 0]",None,,,,,,,,,0.0,8.0,8.0,8.0,2291.1237017000094,,,,,,,,,,,,,,,,,,,,,,,,,,,,,,,,,,,,,,,,,,,,,,,,,,,,,,,,,,,,,,,,,2291.108971100009,2291.1237017000094,2291.1237017000094,2291.6237671000126,2291.6237671000126,2294.123564600013,2294.123564600013,2294.107613100001,None,1.0,,,,,,,nback51,1.0,2024-01-12_17h18.39.372,untitled,2023.2.3,60.05371203655631,2024-01-12 17h53.18.129485 -0500,
,"[0.64, -0.4]",space,,,,,,,,,0.0,9.0,9.0,9.0,2294.123564600013,,,,,,,,,,,,,,,,,,,,,,,,,,,,,,,,,,,,,,,,,,,,,,,,,,,,,,,,,,,,,,,,,2294.108225200005,2294.123564600013,2294.123564600013,2294.6237110999937,2294.6237110999937,2297.12366859999,2297.12366859999,2297.1079163000104,space,1.0,0.9519508999946992,None,,,,,nback51,1.0,2024-01-12_17h18.39.372,untitled,2023.2.3,60.05371203655631,2024-01-12 17h53.18.129485 -0500,
,"[-0.64, 0.4]",None,,,,,,,,,0.0,10.0,10.0,10.0,2297.12366859999,,,,,,,,,,,,,,,,,,,,,,,,,,,,,,,,,,,,,,,,,,,,,,,,,,,,,,,,,,,,,,,,,2297.108917900012,2297.12366859999,2297.12366859999,2297.6236553000053,2297.6236553000053,2300.123549699987,2300.123549699987,2300.1076853999984,None,1.0,,,,,,,nback51,1.0,2024-01-12_17h18.39.372,untitled,2023.2.3,60.05371203655631,2024-01-12 17h53.18.129485 -0500,
,"[0.2, 0.1]",None,,,,,,,,,0.0,11.0,11.0,11.0,2300.123549699987,,,,,,,,,,,,,,,,,,,,,,,,,,,,,,,,,,,,,,,,,,,,,,,,,,,,,,,,,,,,,,,,,2300.108425399987,2300.123549699987,2300.123549699987,2300.6235209000006,2300.6235209000006,2303.1233428000123,2303.1233428000123,2303.107420499989,None,1.0,,,,,,,nback51,1.0,2024-01-12_17h18.39.372,untitled,2023.2.3,60.05371203655631,2024-01-12 17h53.18.129485 -0500,
,"[0.3, 0]",None,,,,,,,,,0.0,12.0,12.0,12.0,2303.1233428000123,,,,,,,,,,,,,,,,,,,,,,,,,,,,,,,,,,,,,,,,,,,,,,,,,,,,,,,,,,,,,,,,,2303.107938500005,2303.1233428000123,2303.1233428000123,2303.623760699993,2303.623760699993,2306.1233512999897,2306.1233512999897,2306.1076742000005,space,0.0,0.8676967000064906,None,,,,,nback51,1.0,2024-01-12_17h18.39.372,untitled,2023.2.3,60.05371203655631,2024-01-12 17h53.18.129485 -0500,
,"[0.2, 0.1]",space,,,,,,,,,0.0,13.0,13.0,13.0,2306.1233512999897,,,,,,,,,,,,,,,,,,,,,,,,,,,,,,,,,,,,,,,,,,,,,,,,,,,,,,,,,,,,,,,,,2306.1086544000136,2306.1233512999897,2306.1233512999897,2306.6234003999853,2306.6234003999853,2309.123386099993,2309.123386099993,2309.1077712000115,None,0.0,,,,,,,nback51,1.0,2024-01-12_17h18.39.372,untitled,2023.2.3,60.05371203655631,2024-01-12 17h53.18.129485 -0500,
,"[-0.3, 0]",None,,,,,,,,,0.0,14.0,14.0,14.0,2309.123386099993,,,,,,,,,,,,,,,,,,,,,,,,,,,,,,,,,,,,,,,,,,,,,,,,,,,,,,,,,,,,,,,,,2309.108494399989,2309.123386099993,2309.123386099993,2309.6231964000035,2309.6231964000035,2312.123371499998,2312.123371499998,2312.107422600005,None,1.0,,,,,,,nback51,1.0,2024-01-12_17h18.39.372,untitled,2023.2.3,60.05371203655631,2024-01-12 17h53.18.129485 -0500,
,"[0, 0.2]",None,,,,,,,,,0.0,15.0,15.0,15.0,2312.123371499998,,,,,,,,,,,,,,,,,,,,,,,,,,,,,,,,,,,,,,,,,,,,,,,,,,,,,,,,,,,,,,,,,2312.1080344000075,2312.123371499998,2312.123371499998,2312.6232462000044,2312.6232462000044,2315.1233621999854,2315.1233621999854,2315.107595999987,None,1.0,,,,,,,nback51,1.0,2024-01-12_17h18.39.372,untitled,2023.2.3,60.05371203655631,2024-01-12 17h53.18.129485 -0500,
,"[-0.3, 0]",space,,,,,,,,,0.0,16.0,16.0,16.0,2315.1233621999854,,,,,,,,,,,,,,,,,,,,,,,,,,,,,,,,,,,,,,,,,,,,,,,,,,,,,,,,,,,,,,,,,2315.108288999996,2315.1233621999854,2315.1233621999854,2315.6232096999884,2315.6232096999884,2318.123153399996,2318.123153399996,2318.1073575000046,space,1.0,1.019044299988309,None,,,,,nback51,1.0,2024-01-12_17h18.39.372,untitled,2023.2.3,60.05371203655631,2024-01-12 17h53.18.129485 -0500,
,"[-0.64, -0.4]",None,,,,,,,,,0.0,17.0,17.0,17.0,2318.123153399996,,,,,,,,,,,,,,,,,,,,,,,,,,,,,,,,,,,,,,,,,,,,,,,,,,,,,,,,,,,,,,,,,2318.108132399997,2318.123153399996,2318.123153399996,2318.6231681999925,2318.6231681999925,2321.1232075000007,2321.1232075000007,2321.1073273000075,None,1.0,,,,,,,nback51,1.0,2024-01-12_17h18.39.372,untitled,2023.2.3,60.05371203655631,2024-01-12 17h53.18.129485 -0500,
,"[-0.2, -0.1]",None,,,,,,,,,0.0,18.0,18.0,18.0,2321.1232075000007,,,,,,,,,,,,,,,,,,,,,,,,,,,,,,,,,,,,,,,,,,,,,,,,,,,,,,,,,,,,,,,,,2321.1079592999886,2321.1232075000007,2321.1232075000007,2321.6232382000017,2321.6232382000017,2324.123179199989,2324.123179199989,2324.1075839000114,space,0.0,0.7966549000120722,None,,,,,nback51,1.0,2024-01-12_17h18.39.372,untitled,2023.2.3,60.05371203655631,2024-01-12 17h53.18.129485 -0500,
,"[0.2, -0.1]",None,,,,,,,,,0.0,19.0,19.0,19.0,2324.123179199989,,,,,,,,,,,,,,,,,,,,,,,,,,,,,,,,,,,,,,,,,,,,,,,,,,,,,,,,,,,,,,,,,2324.108611100004,2324.123179199989,2324.123179199989,2324.623136500013,2324.623136500013,2327.123076799995,2327.123076799995,2327.107108199998,None,1.0,,,,,,,nback51,1.0,2024-01-12_17h18.39.372,untitled,2023.2.3,60.05371203655631,2024-01-12 17h53.18.129485 -0500,
,"[0.2, -0.1]",None,,,,,,,,,0.0,20.0,20.0,20.0,2327.123076799995,,,,,,,,,,,,,,,,,,,,,,,,,,,,,,,,,,,,,,,,,,,,,,,,,,,,,,,,,,,,,,,,,2327.107698000007,2327.123076799995,2327.123076799995,2327.6230831999856,2327.6230831999856,2330.123025500012,2330.123025500012,2330.107332099986,None,1.0,,,,,,,nback51,1.0,2024-01-12_17h18.39.372,untitled,2023.2.3,60.05371203655631,2024-01-12 17h53.18.129485 -0500,
,"[-0.64, 0.4]",None,,,,,,,,,0.0,21.0,21.0,21.0,2330.123025500012,,,,,,,,,,,,,,,,,,,,,,,,,,,,,,,,,,,,,,,,,,,,,,,,,,,,,,,,,,,,,,,,,2330.1080633999954,2330.123025500012,2330.123025500012,2330.623034899996,2330.623034899996,2333.1229833000107,2333.1229833000107,2333.1071558000112,None,1.0,,,,,,,nback51,1.0,2024-01-12_17h18.39.372,untitled,2023.2.3,60.05371203655631,2024-01-12 17h53.18.129485 -0500,
,"[0, 0.2]",None,,,,,,,,,0.0,22.0,22.0,22.0,2333.1229833000107,,,,,,,,,,,,,,,,,,,,,,,,,,,,,,,,,,,,,,,,,,,,,,,,,,,,,,,,,,,,,,,,,2333.1078860000125,2333.1229833000107,2333.1229833000107,2333.623074800009,2333.623074800009,2336.1229166999983,2336.1229166999983,2336.107139,space,0.0,1.1930175000161398,None,,,,,nback51,1.0,2024-01-12_17h18.39.372,untitled,2023.2.3,60.05371203655631,2024-01-12 17h53.18.129485 -0500,
,"[0.64, -0.4]",None,,,,,,,,,0.0,23.0,23.0,23.0,2336.1229166999983,,,,,,,,,,,,,,,,,,,,,,,,,,,,,,,,,,,,,,,,,,,,,,,,,,,,,,,,,,,,,,,,,2336.1079605999985,2336.1229166999983,2336.1229166999983,2336.622932099999,2336.622932099999,2339.1229953999864,2339.1229953999864,2339.107106999989,None,1.0,,,,,,,nback51,1.0,2024-01-12_17h18.39.372,untitled,2023.2.3,60.05371203655631,2024-01-12 17h53.18.129485 -0500,
,"[0, 0.2]",space,,,,,,,,,0.0,24.0,24.0,24.0,2339.1229953999864,,,,,,,,,,,,,,,,,,,,,,,,,,,,,,,,,,,,,,,,,,,,,,,,,,,,,,,,,,,,,,,,,2339.10780920001,2339.1229953999864,2339.1229953999864,2339.6228697999904,2339.6228697999904,2342.122829500004,2342.122829500004,2342.106923000014,space,1.0,0.9232595000066794,None,,,,,nback51,1.0,2024-01-12_17h18.39.372,untitled,2023.2.3,60.05371203655631,2024-01-12 17h53.18.129485 -0500,
,"[-0.2, 0.1]",None,,,,,,,,,0.0,25.0,25.0,25.0,2342.122829500004,,,,,,,,,,,,,,,,,,,,,,,,,,,,,,,,,,,,,,,,,,,,,,,,,,,,,,,,,,,,,,,,,2342.10780540001,2342.122829500004,2342.122829500004,2342.622894500004,2342.622894500004,2345.1227751999977,2345.1227751999977,2345.10724089999,None,1.0,,,,,,,nback51,1.0,2024-01-12_17h18.39.372,untitled,2023.2.3,60.05371203655631,2024-01-12 17h53.18.129485 -0500,
,"[0.3, 0]",None,,,,,,,,,0.0,26.0,26.0,26.0,2345.1227751999977,,,,,,,,,,,,,,,,,,,,,,,,,,,,,,,,,,,,,,,,,,,,,,,,,,,,,,,,,,,,,,,,,2345.1080178999982,2345.1227751999977,2345.1227751999977,2345.622791300004,2345.622791300004,2348.1227326999942,2348.1227326999942,2348.106932399998,None,1.0,,,,,,,nback51,1.0,2024-01-12_17h18.39.372,untitled,2023.2.3,60.05371203655631,2024-01-12 17h53.18.129485 -0500,
,"[-0.2, 0.1]",space,,,,,,,,,0.0,27.0,27.0,27.0,2348.1227326999942,,,,,,,,,,,,,,,,,,,,,,,,,,,,,,,,,,,,,,,,,,,,,,,,,,,,,,,,,,,,,,,,,2348.1075816999946,2348.1227326999942,2348.1227326999942,2348.6227148000035,2348.6227148000035,2351.122830500012,2351.122830500012,2351.1069832000067,space,1.0,0.6852614000090398,None,,,,,nback51,1.0,2024-01-12_17h18.39.372,untitled,2023.2.3,60.05371203655631,2024-01-12 17h53.18.129485 -0500,
,"[-0.2, 0.1]",None,,,,,,,,,0.0,28.0,28.0,28.0,2351.122830500012,,,,,,,,,,,,,,,,,,,,,,,,,,,,,,,,,,,,,,,,,,,,,,,,,,,,,,,,,,,,,,,,,2351.107759400009,2351.122830500012,2351.122830500012,2351.62261630001,2351.62261630001,2354.122694199992,2354.122694199992,2354.106789000012,None,1.0,,,,,,,nback51,1.0,2024-01-12_17h18.39.372,untitled,2023.2.3,60.05371203655631,2024-01-12 17h53.18.129485 -0500,
,"[0.2, 0.1]",None,,,,,,,,,0.0,29.0,29.0,29.0,2354.122694199992,,,,,,,,,,,,,,,,,,,,,,,,,,,,,,,,,,,,,,,,,,,,,,,,,,,,,,,,,,,,,,,,,2354.107439599989,2354.122694199992,2354.122694199992,2354.622531600005,2354.622531600005,2357.1225953999965,2357.1225953999965,2357.107060500013,None,1.0,,,,,,,nback51,1.0,2024-01-12_17h18.39.372,untitled,2023.2.3,60.05371203655631,2024-01-12 17h53.18.129485 -0500,
,"[-0.64, -0.4]",None,,,,,,,,,0.0,30.0,30.0,30.0,2357.1225953999965,,,,,,,,,,,,,,,,,,,,,,,,,,,,,,,,,,,,,,,,,,,,,,,,,,,,,,,,,,,,,,,,,2357.1078950999945,2357.1225953999965,2357.1225953999965,2357.62267360001,2357.62267360001,2360.122615600005,2360.122615600005,2360.106756699999,None,1.0,,,,,,,nback51,1.0,2024-01-12_17h18.39.372,untitled,2023.2.3,60.05371203655631,2024-01-12 17h53.18.129485 -0500,
,"[0, -0.2]",None,,,,,,,,,0.0,31.0,31.0,31.0,2360.122615600005,,,,,,,,,,,,,,,,,,,,,,,,,,,,,,,,,,,,,,,,,,,,,,,,,,,,,,,,,,,,,,,,,2360.1074795000022,2360.122615600005,2360.122615600005,2360.6225538,2360.6225538,2363.122465799999,2363.122465799999,2363.1066479999863,None,1.0,,,,,,,nback51,1.0,2024-01-12_17h18.39.372,untitled,2023.2.3,60.05371203655631,2024-01-12 17h53.18.129485 -0500,
,"[-0.64, -0.4]",space,,,,,,,,,0.0,32.0,32.0,32.0,2363.122465799999,,,,,,,,,,,,,,,,,,,,,,,,,,,,,,,,,,,,,,,,,,,,,,,,,,,,,,,,,,,,,,,,,2363.1073344000038,2363.122465799999,2363.122465799999,2363.622534599999,2363.622534599999,2366.122445099987,2366.122445099987,2366.106497700006,space,1.0,0.7679231999791227,None,,,,,nback51,1.0,2024-01-12_17h18.39.372,untitled,2023.2.3,60.05371203655631,2024-01-12 17h53.18.129485 -0500,
,"[0.64, 0.4]",None,,,,,,,,,0.0,33.0,33.0,33.0,2366.122445099987,,,,,,,,,,,,,,,,,,,,,,,,,,,,,,,,,,,,,,,,,,,,,,,,,,,,,,,,,,,,,,,,,2366.1072112999973,2366.122445099987,2366.122445099987,2366.622388699994,2366.622388699994,2369.1223421999894,2369.1223421999894,2369.106606199988,None,1.0,,,,,,,nback51,1.0,2024-01-12_17h18.39.372,untitled,2023.2.3,60.05371203655631,2024-01-12 17h53.18.129485 -0500,
,"[-0.3, 0]",None,,,,,,,,,0.0,34.0,34.0,34.0,2369.1223421999894,,,,,,,,,,,,,,,,,,,,,,,,,,,,,,,,,,,,,,,,,,,,,,,,,,,,,,,,,,,,,,,,,2369.107284800004,2369.1223421999894,2369.1223421999894,2369.6223432999977,2369.6223432999977,2372.122380899993,2372.122380899993,2372.1064291000075,None,1.0,,,,,,,nback51,1.0,2024-01-12_17h18.39.372,untitled,2023.2.3,60.05371203655631,2024-01-12 17h53.18.129485 -0500,
,"[0.3, 0]",None,,,,,,,,,0.0,35.0,35.0,35.0,2372.122380899993,,,,,,,,,,,,,,,,,,,,,,,,,,,,,,,,,,,,,,,,,,,,,,,,,,,,,,,,,,,,,,,,,2372.1071146999893,2372.122380899993,2372.122380899993,2372.622232099995,2372.622232099995,2375.122220999998,2375.122220999998,2375.1063069000083,None,1.0,,,,,,,nback51,1.0,2024-01-12_17h18.39.372,untitled,2023.2.3,60.05371203655631,2024-01-12 17h53.18.129485 -0500,
,"[-0.3, 0]",space,,,,,,,,,0.0,36.0,36.0,36.0,2375.122220999998,,,,,,,,,,,,,,,,,,,,,,,,,,,,,,,,,,,,,,,,,,,,,,,,,,,,,,,,,,,,,,,,,2375.1069193999865,2375.122220999998,2375.122220999998,2375.6223145000117,2375.6223145000117,2378.122143299988,2378.122143299988,2378.1064358000003,space,1.0,0.6130123999901116,None,,,,,nback51,1.0,2024-01-12_17h18.39.372,untitled,2023.2.3,60.05371203655631,2024-01-12 17h53.18.129485 -0500,
,"[0, -0.2]",None,,,,,,,,,0.0,37.0,37.0,37.0,2378.122143299988,,,,,,,,,,,,,,,,,,,,,,,,,,,,,,,,,,,,,,,,,,,,,,,,,,,,,,,,,,,,,,,,,2378.107436099992,2378.122143299988,2378.122143299988,2378.622175900004,2378.622175900004,2381.1221639,2381.1221639,2381.106372600014,None,1.0,,,,,,,nback51,1.0,2024-01-12_17h18.39.372,untitled,2023.2.3,60.05371203655631,2024-01-12 17h53.18.129485 -0500,
,"[0.3, 0]",None,,,,,,,,,0.0,38.0,38.0,38.0,2381.1221639,,,,,,,,,,,,,,,,,,,,,,,,,,,,,,,,,,,,,,,,,,,,,,,,,,,,,,,,,,,,,,,,,2381.10709830001,2381.1221639,2381.1221639,2381.622082799993,2381.622082799993,2384.1219356000074,2384.1219356000074,2384.1064496999898,space,0.0,0.7710388999839779,None,,,,,nback51,1.0,2024-01-12_17h18.39.372,untitled,2023.2.3,60.05371203655631,2024-01-12 17h53.18.129485 -0500,
,"[0.2, 0.1]",None,,,,,,,,,0.0,39.0,39.0,39.0,2384.1219356000074,,,,,,,,,,,,,,,,,,,,,,,,,,,,,,,,,,,,,,,,,,,,,,,,,,,,,,,,,,,,,,,,,2384.1074887999857,2384.1219356000074,2384.1219356000074,2384.62203150001,2384.62203150001,2387.122031700012,2387.122031700012,2387.10632359999,None,1.0,,,,,,,nback51,1.0,2024-01-12_17h18.39.372,untitled,2023.2.3,60.05371203655631,2024-01-12 17h53.18.129485 -0500,
,,,,,,,,,,,,,,,,,,,,,,,,,,,,,,,,,,,,,,,,,,,,,,,,,,,,,,,,,,,,,,,,,,,,,,,,,,,,,,,,,,,,,,,,,,,,2387.106871900003,2387.122031700012,2390.121999199997,2390.106174799992,,,,,,,,
