square,location,corrAns,trials_0.thisRepN,trials_0.thisTrialN,trials_0.thisN,trials_0.thisIndex,trials_1.thisRepN,trials_1.thisTrialN,trials_1.thisN,trials_1.thisIndex,trials_2.thisRepN,trials_2.thisTrialN,trials_2.thisN,trials_2.thisIndex,thisRow.t,notes,Instructions.started,instructions.started,key_resp.started,inst_sq11.started,Instructions.stopped,key_resp.keys,key_resp.rt,key_resp.duration,All.started,sq_1.started,sq_2.started,sq_3.started,sq_4.started,sq_5.started,sq_6.started,sq_7.started,sq_8.started,sq_9.started,sq_10.started,sq_11.started,sq_12.started,All.stopped,Fixation.started,fixation_3.started,fixation_3.stopped,Fixation.stopped,N_back_0_Trial.started,target_square_0.started,response_0.started,fixation_0.started,target_square_0.stopped,fixation_0.stopped,N_back_0_Trial.stopped,response_0.keys,response_0.corr,response_0.rt,response_0.duration,Instructions_1.started,instructions_1.started,key_resp_1.started,Instructions_1.stopped,key_resp_1.keys,key_resp_1.rt,key_resp_1.duration,N_back_1_Trial.started,target_square_1.started,response_1.started,target_square_1.stopped,fixation_1.started,fixation_1.stopped,response_1.stopped,N_back_1_Trial.stopped,response_1.keys,response_1.corr,response_1.rt,response_1.duration,Instructions_2.started,instructions_2.started,key_resp_2.started,Instructions_2.stopped,key_resp_2.keys,key_resp_2.rt,key_resp_2.duration,N_back_2_trials.started,target_square_2.started,response_2.started,target_square_2.stopped,fixation_2.started,fixation_2.stopped,response_2.stopped,N_back_2_trials.stopped,response_2.keys,response_2.corr,response_2.rt,response_2.duration,End.started,thank_you.started,thank_you.stopped,End.stopped,participant,session,date,expName,psychopyVersion,frameRate,expStart,Unnamed: 103
,,,,,,,,,,,,,,,,,0.0015762999828439,0.0041406999807804,0.0041406999807804,0.0041406999807804,829.1962092999893,space,829.1812852000003,None,,,,,,,,,,,,,,,,,,,,,,,,,,,,,,,,,,,,,,,,,,,,,,,,,,,,,,,,,,,,,,,,,,,,,,,,nback33,1.0,2023-12-18_12h03.06.949,untitled,2023.2.3,60.12581929907412,2023-12-18 12h39.32.023996 -0500,
6.0,"[-0.3, 0]",None,0.0,0.0,0.0,0.0,,,,,,,,,831.2118897000037,,,,,,,,,,829.1962804999785,829.2107636999863,829.2107636999863,829.2107636999863,829.2107636999863,829.2107636999863,829.2107636999863,829.2107636999863,829.2107636999863,829.2107636999863,829.2107636999863,829.2107636999863,829.2107636999863,830.1948782999825,830.1949023999914,830.2108269000018,831.2118897000037,831.1951822999981,831.2099982999789,831.2118897000037,831.2118897000037,831.6940567999845,831.7273757999938,834.1941623000021,834.2110815999913,None,1.0,,,,,,,,,,,,,,,,,,,,,,,,,,,,,,,,,,,,,,,,,,,,,nback33,1.0,2023-12-18_12h03.06.949,untitled,2023.2.3,60.12581929907412,2023-12-18 12h39.32.023996 -0500,
10.0,"[0, -0.2]",None,0.0,1.0,1.0,1.0,,,,,,,,,834.2274257999961,,,,,,,,,,,,,,,,,,,,,,,,,,,,834.2121695999813,834.2274257999961,834.2274257999961,834.6940627000004,834.7273491999949,837.1940133000026,837.2108430999797,None,1.0,,,,,,,,,,,,,,,,,,,,,,,,,,,,,,,,,,,,,,,,,,,,,nback33,1.0,2023-12-18_12h03.06.949,untitled,2023.2.3,60.12581929907412,2023-12-18 12h39.32.023996 -0500,
11.0,"[-0.64, -0.4]",space,0.0,2.0,2.0,2.0,,,,,,,,,837.2272964000003,,,,,,,,,,,,,,,,,,,,,,,,,,,,837.2115615999792,837.2272964000003,837.2272964000003,837.6940208000015,837.7274150000012,840.1939535999845,840.210699599993,None,0.0,,,,,,,,,,,,,,,,,,,,,,,,,,,,,,,,,,,,,,,,,,,,,nback33,1.0,2023-12-18_12h03.06.949,untitled,2023.2.3,60.12581929907412,2023-12-18 12h39.32.023996 -0500,
12.0,"[0.64, -0.4]",None,0.0,3.0,3.0,3.0,,,,,,,,,840.2273636999889,,,,,,,,,,,,,,,,,,,,,,,,,,,,840.2113997999986,840.2273636999889,840.2273636999889,840.6939769999881,840.7273580000037,843.1938683000044,843.2107700000051,None,1.0,,,,,,,,,,,,,,,,,,,,,,,,,,,,,,,,,,,,,,,,,,,,,nback33,1.0,2023-12-18_12h03.06.949,untitled,2023.2.3,60.12581929907412,2023-12-18 12h39.32.023996 -0500,
1.0,"[-0.64, 0.4]",None,0.0,4.0,4.0,4.0,,,,,,,,,843.2272577999975,,,,,,,,,,,,,,,,,,,,,,,,,,,,843.2116082999855,843.2272577999975,843.2272577999975,843.7106266999908,843.7273237000045,846.2105121999921,846.210740599985,None,1.0,,,,,,,,,,,,,,,,,,,,,,,,,,,,,,,,,,,,,,,,,,,,,nback33,1.0,2023-12-18_12h03.06.949,untitled,2023.2.3,60.12581929907412,2023-12-18 12h39.32.023996 -0500,
1.0,"[-0.64, 0.4]",None,0.0,5.0,5.0,5.0,,,,,,,,,846.2272896999784,,,,,,,,,,,,,,,,,,,,,,,,,,,,846.2115638999967,846.2272896999784,846.2272896999784,846.6940733999945,846.7272756999882,849.193791800004,849.2106486999837,None,1.0,,,,,,,,,,,,,,,,,,,,,,,,,,,,,,,,,,,,,,,,,,,,,nback33,1.0,2023-12-18_12h03.06.949,untitled,2023.2.3,60.12581929907412,2023-12-18 12h39.32.023996 -0500,
4.0,"[-0.2, 0.1]",None,0.0,6.0,6.0,6.0,,,,,,,,,849.2272221999883,,,,,,,,,,,,,,,,,,,,,,,,,,,,849.2114287999866,849.2272221999883,849.2272221999883,849.7105178000056,849.727209899982,852.2104109999782,852.2106272999954,None,1.0,,,,,,,,,,,,,,,,,,,,,,,,,,,,,,,,,,,,,,,,,,,,,nback33,1.0,2023-12-18_12h03.06.949,untitled,2023.2.3,60.12581929907412,2023-12-18 12h39.32.023996 -0500,
5.0,"[0.2, 0.1]",None,0.0,7.0,7.0,7.0,,,,,,,,,852.2269414000039,,,,,,,,,,,,,,,,,,,,,,,,,,,,852.2113479999825,852.2269414000039,852.2269414000039,852.7102822999877,852.7271013999998,855.2103524999984,855.2105560000055,None,1.0,,,,,,,,,,,,,,,,,,,,,,,,,,,,,,,,,,,,,,,,,,,,,nback33,1.0,2023-12-18_12h03.06.949,untitled,2023.2.3,60.12581929907412,2023-12-18 12h39.32.023996 -0500,
11.0,"[-0.64, -0.4]",space,0.0,8.0,8.0,8.0,,,,,,,,,855.2270545999927,,,,,,,,,,,,,,,,,,,,,,,,,,,,855.2113218999875,855.2270545999927,855.2270545999927,855.7104908000038,855.726901099988,858.2103809999826,858.2105972999998,space,1.0,0.4209911999932956,None,,,,,,,,,,,,,,,,,,,,,,,,,,,,,,,,,,,,,,,,,,,nback33,1.0,2023-12-18_12h03.06.949,untitled,2023.2.3,60.12581929907412,2023-12-18 12h39.32.023996 -0500,
9.0,"[0.2, -0.1]",None,0.0,9.0,9.0,9.0,,,,,,,,,858.2267648999987,,,,,,,,,,,,,,,,,,,,,,,,,,,,858.2118636999803,858.2267648999987,858.2267648999987,858.7102661999816,858.7270847999898,861.21040489999,861.210622499988,None,1.0,,,,,,,,,,,,,,,,,,,,,,,,,,,,,,,,,,,,,,,,,,,,,nback33,1.0,2023-12-18_12h03.06.949,untitled,2023.2.3,60.12581929907412,2023-12-18 12h39.32.023996 -0500,
8.0,"[-0.2, -0.1]",None,0.0,10.0,10.0,10.0,,,,,,,,,861.2269666999928,,,,,,,,,,,,,,,,,,,,,,,,,,,,861.2114372999931,861.2269666999928,861.2269666999928,861.7102938999888,861.7270114999847,864.2103760000027,864.2105843999889,None,1.0,,,,,,,,,,,,,,,,,,,,,,,,,,,,,,,,,,,,,,,,,,,,,nback33,1.0,2023-12-18_12h03.06.949,untitled,2023.2.3,60.12581929907412,2023-12-18 12h39.32.023996 -0500,
9.0,"[0.2, -0.1]",None,0.0,11.0,11.0,11.0,,,,,,,,,864.2268024999939,,,,,,,,,,,,,,,,,,,,,,,,,,,,864.2114293999912,864.2268024999939,864.2268024999939,864.7101537999988,864.7269015999918,867.2100410999847,867.2102464999771,None,1.0,,,,,,,,,,,,,,,,,,,,,,,,,,,,,,,,,,,,,,,,,,,,,nback33,1.0,2023-12-18_12h03.06.949,untitled,2023.2.3,60.12581929907412,2023-12-18 12h39.32.023996 -0500,
6.0,"[-0.3, 0]",None,0.0,12.0,12.0,12.0,,,,,,,,,867.2268787999928,,,,,,,,,,,,,,,,,,,,,,,,,,,,867.2110331000003,867.2268787999928,867.2268787999928,867.7100333999842,867.7266420999949,870.2102200999798,870.2104257000028,None,1.0,,,,,,,,,,,,,,,,,,,,,,,,,,,,,,,,,,,,,,,,,,,,,nback33,1.0,2023-12-18_12h03.06.949,untitled,2023.2.3,60.12581929907412,2023-12-18 12h39.32.023996 -0500,
9.0,"[0.2, -0.1]",None,0.0,13.0,13.0,13.0,,,,,,,,,870.22672039998,,,,,,,,,,,,,,,,,,,,,,,,,,,,870.2112620999978,870.22672039998,870.22672039998,870.7099977000034,870.7267705999839,873.2102082999772,873.210430999985,None,1.0,,,,,,,,,,,,,,,,,,,,,,,,,,,,,,,,,,,,,,,,,,,,,nback33,1.0,2023-12-18_12h03.06.949,untitled,2023.2.3,60.12581929907412,2023-12-18 12h39.32.023996 -0500,
7.0,"[0.3, 0]",None,0.0,14.0,14.0,14.0,,,,,,,,,873.2269581999863,,,,,,,,,,,,,,,,,,,,,,,,,,,,873.2112507999991,873.2269581999863,873.2269581999863,873.7101761999947,873.7266781999788,876.2099510999979,876.2101899999834,None,1.0,,,,,,,,,,,,,,,,,,,,,,,,,,,,,,,,,,,,,,,,,,,,,nback33,1.0,2023-12-18_12h03.06.949,untitled,2023.2.3,60.12581929907412,2023-12-18 12h39.32.023996 -0500,
2.0,"[0.64, 0.4]",None,0.0,15.0,15.0,15.0,,,,,,,,,876.2265606999863,,,,,,,,,,,,,,,,,,,,,,,,,,,,876.2108601999935,876.2265606999863,876.2265606999863,876.7098482000001,876.726569099992,879.2099663999979,879.2101678999898,None,1.0,,,,,,,,,,,,,,,,,,,,,,,,,,,,,,,,,,,,,,,,,,,,,nback33,1.0,2023-12-18_12h03.06.949,untitled,2023.2.3,60.12581929907412,2023-12-18 12h39.32.023996 -0500,
2.0,"[0.64, 0.4]",None,0.0,16.0,16.0,16.0,,,,,,,,,879.2266266999941,,,,,,,,,,,,,,,,,,,,,,,,,,,,879.2109579999815,879.2266266999941,879.2266266999941,879.7099526999809,879.7265838999883,882.2099109999835,882.210162000003,None,1.0,,,,,,,,,,,,,,,,,,,,,,,,,,,,,,,,,,,,,,,,,,,,,nback33,1.0,2023-12-18_12h03.06.949,untitled,2023.2.3,60.12581929907412,2023-12-18 12h39.32.023996 -0500,
11.0,"[-0.64, -0.4]",space,0.0,17.0,17.0,17.0,,,,,,,,,882.2263702999917,,,,,,,,,,,,,,,,,,,,,,,,,,,,882.2108629999857,882.2263702999917,882.2263702999917,882.7100393000001,882.726650800003,885.2099552,885.2101531999942,space,1.0,0.3487161000084597,None,,,,,,,,,,,,,,,,,,,,,,,,,,,,,,,,,,,,,,,,,,,nback33,1.0,2023-12-18_12h03.06.949,untitled,2023.2.3,60.12581929907412,2023-12-18 12h39.32.023996 -0500,
11.0,"[-0.64, -0.4]",space,0.0,18.0,18.0,18.0,,,,,,,,,885.2267816999811,,,,,,,,,,,,,,,,,,,,,,,,,,,,885.2111328000028,885.2267816999811,885.2267816999811,885.7098165999923,885.726365599985,888.2097572999774,888.2098931999935,space,1.0,0.3830383000022266,None,,,,,,,,,,,,,,,,,,,,,,,,,,,,,,,,,,,,,,,,,,,nback33,1.0,2023-12-18_12h03.06.949,untitled,2023.2.3,60.12581929907412,2023-12-18 12h39.32.023996 -0500,
7.0,"[0.3, 0]",None,0.0,19.0,19.0,19.0,,,,,,,,,888.2263471999904,,,,,,,,,,,,,,,,,,,,,,,,,,,,888.2106936999771,888.2263471999904,888.2263471999904,888.7098508999916,888.7265722999873,891.2096040000033,891.2097694999829,None,1.0,,,,,,,,,,,,,,,,,,,,,,,,,,,,,,,,,,,,,,,,,,,,,nback33,1.0,2023-12-18_12h03.06.949,untitled,2023.2.3,60.12581929907412,2023-12-18 12h39.32.023996 -0500,
3.0,"[0, 0.2]",None,0.0,20.0,20.0,20.0,,,,,,,,,891.2263297000027,,,,,,,,,,,,,,,,,,,,,,,,,,,,891.210625799984,891.2263297000027,891.2263297000027,891.709789399989,891.7263039999816,894.2094854000024,894.2096560999926,None,1.0,,,,,,,,,,,,,,,,,,,,,,,,,,,,,,,,,,,,,,,,,,,,,nback33,1.0,2023-12-18_12h03.06.949,untitled,2023.2.3,60.12581929907412,2023-12-18 12h39.32.023996 -0500,
10.0,"[0, -0.2]",None,0.0,21.0,21.0,21.0,,,,,,,,,894.2262727000052,,,,,,,,,,,,,,,,,,,,,,,,,,,,894.2103709999938,894.2262727000052,894.2262727000052,894.7096600999939,894.7263172999956,897.20967869999,897.2099531999847,None,1.0,,,,,,,,,,,,,,,,,,,,,,,,,,,,,,,,,,,,,,,,,,,,,nback33,1.0,2023-12-18_12h03.06.949,untitled,2023.2.3,60.12581929907412,2023-12-18 12h39.32.023996 -0500,
1.0,"[-0.64, 0.4]",None,0.0,22.0,22.0,22.0,,,,,,,,,897.2262104999973,,,,,,,,,,,,,,,,,,,,,,,,,,,,897.2107190999959,897.2262104999973,897.2262104999973,897.709466100001,897.7262074000027,900.2097290999955,900.2099603999814,None,1.0,,,,,,,,,,,,,,,,,,,,,,,,,,,,,,,,,,,,,,,,,,,,,nback33,1.0,2023-12-18_12h03.06.949,untitled,2023.2.3,60.12581929907412,2023-12-18 12h39.32.023996 -0500,
2.0,"[0.64, 0.4]",None,0.0,23.0,23.0,23.0,,,,,,,,,900.2263409000007,,,,,,,,,,,,,,,,,,,,,,,,,,,,900.210860399995,900.2263409000007,900.2263409000007,900.7093797999842,900.7262578999798,903.2096690000036,903.2098756999768,None,1.0,,,,,,,,,,,,,,,,,,,,,,,,,,,,,,,,,,,,,,,,,,,,,nback33,1.0,2023-12-18_12h03.06.949,untitled,2023.2.3,60.12581929907412,2023-12-18 12h39.32.023996 -0500,
6.0,"[-0.3, 0]",None,0.0,24.0,24.0,24.0,,,,,,,,,903.2262953000028,,,,,,,,,,,,,,,,,,,,,,,,,,,,903.2106419999908,903.2262953000028,903.2262953000028,903.709343399998,903.7261081000032,906.2094698,906.2097031000012,None,1.0,,,,,,,,,,,,,,,,,,,,,,,,,,,,,,,,,,,,,,,,,,,,,nback33,1.0,2023-12-18_12h03.06.949,untitled,2023.2.3,60.12581929907412,2023-12-18 12h39.32.023996 -0500,
3.0,"[0, 0.2]",None,0.0,25.0,25.0,25.0,,,,,,,,,906.2261014999822,,,,,,,,,,,,,,,,,,,,,,,,,,,,906.210459199996,906.2261014999822,906.2261014999822,906.7093800999864,906.7260542000004,909.2092674000014,909.2094566999876,None,1.0,,,,,,,,,,,,,,,,,,,,,,,,,,,,,,,,,,,,,,,,,,,,,nback33,1.0,2023-12-18_12h03.06.949,untitled,2023.2.3,60.12581929907412,2023-12-18 12h39.32.023996 -0500,
11.0,"[-0.64, -0.4]",space,0.0,26.0,26.0,26.0,,,,,,,,,909.2260879999958,,,,,,,,,,,,,,,,,,,,,,,,,,,,909.2102289999892,909.2260879999958,909.2260879999958,909.7092000999836,909.7258961999904,912.2094654999964,912.2096642999968,space,1.0,0.3833141000068281,None,,,,,,,,,,,,,,,,,,,,,,,,,,,,,,,,,,,,,,,,,,,nback33,1.0,2023-12-18_12h03.06.949,untitled,2023.2.3,60.12581929907412,2023-12-18 12h39.32.023996 -0500,
1.0,"[-0.64, 0.4]",None,0.0,27.0,27.0,27.0,,,,,,,,,912.226058500004,,,,,,,,,,,,,,,,,,,,,,,,,,,,912.2105672000034,912.226058500004,912.226058500004,912.7090657999796,912.7259828999812,915.2092548999937,915.2094695999986,None,1.0,,,,,,,,,,,,,,,,,,,,,,,,,,,,,,,,,,,,,,,,,,,,,nback33,1.0,2023-12-18_12h03.06.949,untitled,2023.2.3,60.12581929907412,2023-12-18 12h39.32.023996 -0500,
3.0,"[0, 0.2]",None,0.0,28.0,28.0,28.0,,,,,,,,,915.2258997999888,,,,,,,,,,,,,,,,,,,,,,,,,,,,915.2105438,915.2258997999888,915.2258997999888,915.7091726999788,915.7259207000023,918.2090587999846,918.2092196999874,None,1.0,,,,,,,,,,,,,,,,,,,,,,,,,,,,,,,,,,,,,,,,,,,,,nback33,1.0,2023-12-18_12h03.06.949,untitled,2023.2.3,60.12581929907412,2023-12-18 12h39.32.023996 -0500,
9.0,"[0.2, -0.1]",None,0.0,29.0,29.0,29.0,,,,,,,,,918.2257411000028,,,,,,,,,,,,,,,,,,,,,,,,,,,,918.2098554999976,918.2257411000028,918.2257411000028,918.7091766999802,918.7260233999988,921.209041199996,921.2092565999774,None,1.0,,,,,,,,,,,,,,,,,,,,,,,,,,,,,,,,,,,,,,,,,,,,,nback33,1.0,2023-12-18_12h03.06.949,untitled,2023.2.3,60.12581929907412,2023-12-18 12h39.32.023996 -0500,
8.0,"[-0.2, -0.1]",None,0.0,30.0,30.0,30.0,,,,,,,,,921.2257179000007,,,,,,,,,,,,,,,,,,,,,,,,,,,,921.2101684999944,921.2257179000007,921.2257179000007,921.7090304000012,921.7258065999775,924.2090510999842,924.2092287999984,None,1.0,,,,,,,,,,,,,,,,,,,,,,,,,,,,,,,,,,,,,,,,,,,,,nback33,1.0,2023-12-18_12h03.06.949,untitled,2023.2.3,60.12581929907412,2023-12-18 12h39.32.023996 -0500,
12.0,"[0.64, -0.4]",None,0.0,31.0,31.0,31.0,,,,,,,,,924.2258832999796,,,,,,,,,,,,,,,,,,,,,,,,,,,,924.2101136999844,924.2258832999796,924.2258832999796,924.7090652000044,924.725887299981,927.2091055999916,927.209309800004,None,1.0,,,,,,,,,,,,,,,,,,,,,,,,,,,,,,,,,,,,,,,,,,,,,nback33,1.0,2023-12-18_12h03.06.949,untitled,2023.2.3,60.12581929907412,2023-12-18 12h39.32.023996 -0500,
9.0,"[0.2, -0.1]",None,0.0,32.0,32.0,32.0,,,,,,,,,927.2258028999786,,,,,,,,,,,,,,,,,,,,,,,,,,,,927.210032599978,927.2258028999786,927.2258028999786,927.7089697000048,927.725604599982,930.2089766999998,930.2091579999832,None,1.0,,,,,,,,,,,,,,,,,,,,,,,,,,,,,,,,,,,,,,,,,,,,,nback33,1.0,2023-12-18_12h03.06.949,untitled,2023.2.3,60.12581929907412,2023-12-18 12h39.32.023996 -0500,
11.0,"[-0.64, -0.4]",space,0.0,33.0,33.0,33.0,,,,,,,,,930.22565019998,,,,,,,,,,,,,,,,,,,,,,,,,,,,930.2098371000028,930.22565019998,930.22565019998,930.7089704999815,930.7256984999984,933.2090889999818,933.2093059000036,space,1.0,0.3985182000033092,None,,,,,,,,,,,,,,,,,,,,,,,,,,,,,,,,,,,,,,,,,,,nback33,1.0,2023-12-18_12h03.06.949,untitled,2023.2.3,60.12581929907412,2023-12-18 12h39.32.023996 -0500,
7.0,"[0.3, 0]",None,0.0,34.0,34.0,34.0,,,,,,,,,933.2257911999768,,,,,,,,,,,,,,,,,,,,,,,,,,,,933.2103622999856,933.2257911999768,933.2257911999768,933.7087819000008,933.7255451999954,936.2089034999954,936.2091090999892,None,1.0,,,,,,,,,,,,,,,,,,,,,,,,,,,,,,,,,,,,,,,,,,,,,nback33,1.0,2023-12-18_12h03.06.949,untitled,2023.2.3,60.12581929907412,2023-12-18 12h39.32.023996 -0500,
11.0,"[-0.64, -0.4]",space,0.0,35.0,35.0,35.0,,,,,,,,,936.2257578999852,,,,,,,,,,,,,,,,,,,,,,,,,,,,936.2099562999792,936.2257578999852,936.2257578999852,936.7090509999834,936.7255115000008,939.2089944999898,939.2092068000056,space,1.0,0.3640581000072416,None,,,,,,,,,,,,,,,,,,,,,,,,,,,,,,,,,,,,,,,,,,,nback33,1.0,2023-12-18_12h03.06.949,untitled,2023.2.3,60.12581929907412,2023-12-18 12h39.32.023996 -0500,
4.0,"[-0.2, 0.1]",None,0.0,36.0,36.0,36.0,,,,,,,,,939.225588799978,,,,,,,,,,,,,,,,,,,,,,,,,,,,939.2102864999906,939.225588799978,939.225588799978,939.7088294999847,939.7253322000032,942.2087895000004,942.2089602999912,None,1.0,,,,,,,,,,,,,,,,,,,,,,,,,,,,,,,,,,,,,,,,,,,,,nback33,1.0,2023-12-18_12h03.06.949,untitled,2023.2.3,60.12581929907412,2023-12-18 12h39.32.023996 -0500,
5.0,"[0.2, 0.1]",None,0.0,37.0,37.0,37.0,,,,,,,,,942.2254448999884,,,,,,,,,,,,,,,,,,,,,,,,,,,,942.2096962999784,942.2254448999884,942.2254448999884,942.708460199996,942.7252462999896,945.208880899998,945.2090987999982,None,1.0,,,,,,,,,,,,,,,,,,,,,,,,,,,,,,,,,,,,,,,,,,,,,nback33,1.0,2023-12-18_12h03.06.949,untitled,2023.2.3,60.12581929907412,2023-12-18 12h39.32.023996 -0500,
6.0,"[-0.3, 0]",None,0.0,38.0,38.0,38.0,,,,,,,,,945.2253937999776,,,,,,,,,,,,,,,,,,,,,,,,,,,,945.2099004999908,945.2253937999776,945.2253937999776,945.7083371999906,945.7250663999876,948.2086832999776,948.208887899993,None,1.0,,,,,,,,,,,,,,,,,,,,,,,,,,,,,,,,,,,,,,,,,,,,,nback33,1.0,2023-12-18_12h03.06.949,untitled,2023.2.3,60.12581929907412,2023-12-18 12h39.32.023996 -0500,
11.0,"[-0.64, -0.4]",space,0.0,39.0,39.0,39.0,,,,,,,,,948.2254244999784,,,,,,,,,,,,,,,,,,,,,,,,,,,,948.2097463999816,948.2254244999784,948.2254244999784,948.7086781999968,948.725203399983,951.2086506999912,951.2088682999891,space,1.0,0.3432274000078905,None,,,,,,,,,,,,,,,,,,,,,,,,,,,,,,,,,,,,,,,,,,,nback33,1.0,2023-12-18_12h03.06.949,untitled,2023.2.3,60.12581929907412,2023-12-18 12h39.32.023996 -0500,
,,,,,,,,,,,,,,,,,,,,,,,,,,,,,,,,,,,,,,,,,,,,,,,,,,,,,,951.2096874999988,951.2253592000052,951.2253592000052,968.3601103999828,space,17.13202839999576,None,,,,,,,,,,,,,,,,,,,,,,,,,,,,,,,,,,,,nback33,1.0,2023-12-18_12h03.06.949,untitled,2023.2.3,60.12581929907412,2023-12-18 12h39.32.023996 -0500,
10.0,"[0, -0.2]",None,,,,,0.0,0.0,0.0,0.0,,,,,969.3749202000035,,,,,,,,,,,,,,,,,,,,,,,,968.3601518999784,968.375004100002,969.3749202000035,969.3591393999814,,,,,,,,,,,,,,,,,,,969.3688819999808,969.3749202000035,969.3749202000035,969.8749342999944,969.8749342999944,972.3751645000012,972.3751645000012,972.3589897999772,None,1.0,,,,,,,,,,,,,,,,,,,,,,,,,,nback33,1.0,2023-12-18_12h03.06.949,untitled,2023.2.3,60.12581929907412,2023-12-18 12h39.32.023996 -0500,
5.0,"[0.2, 0.1]",None,,,,,0.0,1.0,1.0,1.0,,,,,972.3751645000012,,,,,,,,,,,,,,,,,,,,,,,,,,,,,,,,,,,,,,,,,,,,,,972.3598416000024,972.3751645000012,972.3751645000012,972.874891799991,972.874891799991,975.3750040000014,975.3750040000014,975.359338899987,None,1.0,,,,,,,,,,,,,,,,,,,,,,,,,,nback33,1.0,2023-12-18_12h03.06.949,untitled,2023.2.3,60.12581929907412,2023-12-18 12h39.32.023996 -0500,
6.0,"[-0.3, 0]",None,,,,,0.0,2.0,2.0,2.0,,,,,975.3750040000014,,,,,,,,,,,,,,,,,,,,,,,,,,,,,,,,,,,,,,,,,,,,,,975.3602352000016,975.3750040000014,975.3750040000014,975.8749300999916,975.8749300999916,978.374947000004,978.374947000004,978.3591973999864,None,1.0,,,,,,,,,,,,,,,,,,,,,,,,,,nback33,1.0,2023-12-18_12h03.06.949,untitled,2023.2.3,60.12581929907412,2023-12-18 12h39.32.023996 -0500,
6.0,"[-0.3, 0]",space,,,,,0.0,3.0,3.0,3.0,,,,,978.374947000004,,,,,,,,,,,,,,,,,,,,,,,,,,,,,,,,,,,,,,,,,,,,,,978.3600677999784,978.374947000004,978.374947000004,978.8747540999902,978.8747540999902,981.3749180999876,981.3749180999876,981.3589717999856,None,0.0,,,,,,,,,,,,,,,,,,,,,,,,,,nback33,1.0,2023-12-18_12h03.06.949,untitled,2023.2.3,60.12581929907412,2023-12-18 12h39.32.023996 -0500,
12.0,"[0.64, -0.4]",None,,,,,0.0,4.0,4.0,4.0,,,,,981.3749180999876,,,,,,,,,,,,,,,,,,,,,,,,,,,,,,,,,,,,,,,,,,,,,,981.3598052999878,981.3749180999876,981.3749180999876,981.8747192999872,981.8747192999872,984.3747907999788,984.3747907999788,984.3588809999928,None,1.0,,,,,,,,,,,,,,,,,,,,,,,,,,nback33,1.0,2023-12-18_12h03.06.949,untitled,2023.2.3,60.12581929907412,2023-12-18 12h39.32.023996 -0500,
10.0,"[0, -0.2]",None,,,,,0.0,5.0,5.0,5.0,,,,,984.3747907999788,,,,,,,,,,,,,,,,,,,,,,,,,,,,,,,,,,,,,,,,,,,,,,984.3595574999928,984.3747907999788,984.3747907999788,984.8747061000032,984.8747061000032,987.3746686999802,987.3746686999802,987.359018999996,space,0.0,0.3790996999887284,None,,,,,,,,,,,,,,,,,,,,,,,,nback33,1.0,2023-12-18_12h03.06.949,untitled,2023.2.3,60.12581929907412,2023-12-18 12h39.32.023996 -0500,
2.0,"[0.64, 0.4]",None,,,,,0.0,6.0,6.0,6.0,,,,,987.3746686999802,,,,,,,,,,,,,,,,,,,,,,,,,,,,,,,,,,,,,,,,,,,,,,987.3603147999966,987.3746686999802,987.3746686999802,987.8745445999956,987.8745445999956,990.3747295999784,990.3747295999784,990.3589757999872,None,1.0,,,,,,,,,,,,,,,,,,,,,,,,,,nback33,1.0,2023-12-18_12h03.06.949,untitled,2023.2.3,60.12581929907412,2023-12-18 12h39.32.023996 -0500,
9.0,"[0.2, -0.1]",None,,,,,0.0,7.0,7.0,7.0,,,,,990.3747295999784,,,,,,,,,,,,,,,,,,,,,,,,,,,,,,,,,,,,,,,,,,,,,,990.3598580999824,990.3747295999784,990.3747295999784,990.874636499997,990.874636499997,993.3746166999916,993.3746166999916,993.3587580999884,None,1.0,,,,,,,,,,,,,,,,,,,,,,,,,,nback33,1.0,2023-12-18_12h03.06.949,untitled,2023.2.3,60.12581929907412,2023-12-18 12h39.32.023996 -0500,
9.0,"[0.2, -0.1]",space,,,,,0.0,8.0,8.0,8.0,,,,,993.3746166999916,,,,,,,,,,,,,,,,,,,,,,,,,,,,,,,,,,,,,,,,,,,,,,993.359447900002,993.3746166999916,993.3746166999916,993.8746237999876,993.8746237999876,996.3748173999776,996.3748173999776,996.3589497999928,space,1.0,0.5994695999834221,None,,,,,,,,,,,,,,,,,,,,,,,,nback33,1.0,2023-12-18_12h03.06.949,untitled,2023.2.3,60.12581929907412,2023-12-18 12h39.32.023996 -0500,
6.0,"[-0.3, 0]",None,,,,,0.0,9.0,9.0,9.0,,,,,996.3748173999776,,,,,,,,,,,,,,,,,,,,,,,,,,,,,,,,,,,,,,,,,,,,,,996.359975600004,996.3748173999776,996.3748173999776,996.8744545999798,996.8744545999798,999.374549,999.374549,999.35896339998,space,0.0,0.62673590000486,None,,,,,,,,,,,,,,,,,,,,,,,,nback33,1.0,2023-12-18_12h03.06.949,untitled,2023.2.3,60.12581929907412,2023-12-18 12h39.32.023996 -0500,
11.0,"[-0.64, -0.4]",None,,,,,0.0,10.0,10.0,10.0,,,,,999.374549,,,,,,,,,,,,,,,,,,,,,,,,,,,,,,,,,,,,,,,,,,,,,,999.3599737999904,999.374549,999.374549,999.874488100002,999.874488100002,1002.3744462000031,1002.3744462000031,1002.3587516999978,None,1.0,,,,,,,,,,,,,,,,,,,,,,,,,,nback33,1.0,2023-12-18_12h03.06.949,untitled,2023.2.3,60.12581929907412,2023-12-18 12h39.32.023996 -0500,
11.0,"[-0.64, -0.4]",space,,,,,0.0,11.0,11.0,11.0,,,,,1002.3744462000031,,,,,,,,,,,,,,,,,,,,,,,,,,,,,,,,,,,,,,,,,,,,,,1002.3595008999982,1002.3744462000031,1002.3744462000031,1002.8741257999792,1002.8741257999792,1005.374509199988,1005.374509199988,1005.3585888999804,space,1.0,0.5130741999892052,None,,,,,,,,,,,,,,,,,,,,,,,,nback33,1.0,2023-12-18_12h03.06.949,untitled,2023.2.3,60.12581929907412,2023-12-18 12h39.32.023996 -0500,
4.0,"[-0.2, 0.1]",None,,,,,0.0,12.0,12.0,12.0,,,,,1005.374509199988,,,,,,,,,,,,,,,,,,,,,,,,,,,,,,,,,,,,,,,,,,,,,,1005.359646900004,1005.374509199988,1005.374509199988,1005.8740792000026,1005.8740792000026,1008.3741960999904,1008.3741960999904,1008.3587700999924,None,1.0,,,,,,,,,,,,,,,,,,,,,,,,,,nback33,1.0,2023-12-18_12h03.06.949,untitled,2023.2.3,60.12581929907412,2023-12-18 12h39.32.023996 -0500,
3.0,"[0, 0.2]",None,,,,,0.0,13.0,13.0,13.0,,,,,1008.3741960999904,,,,,,,,,,,,,,,,,,,,,,,,,,,,,,,,,,,,,,,,,,,,,,1008.3596727999976,1008.3741960999904,1008.3741960999904,1008.8741961999912,1008.8741961999912,1011.3743851000036,1011.3743851000036,1011.3585174999898,None,1.0,,,,,,,,,,,,,,,,,,,,,,,,,,nback33,1.0,2023-12-18_12h03.06.949,untitled,2023.2.3,60.12581929907412,2023-12-18 12h39.32.023996 -0500,
3.0,"[0, 0.2]",space,,,,,0.0,14.0,14.0,14.0,,,,,1011.3743851000036,,,,,,,,,,,,,,,,,,,,,,,,,,,,,,,,,,,,,,,,,,,,,,1011.3592550999892,1011.3743851000036,1011.3743851000036,1011.8740281999926,1011.8740281999926,1014.37429539999,1014.37429539999,1014.3584097999848,space,1.0,0.5296646000060719,None,,,,,,,,,,,,,,,,,,,,,,,,nback33,1.0,2023-12-18_12h03.06.949,untitled,2023.2.3,60.12581929907412,2023-12-18 12h39.32.023996 -0500,
8.0,"[-0.2, -0.1]",None,,,,,0.0,15.0,15.0,15.0,,,,,1014.37429539999,,,,,,,,,,,,,,,,,,,,,,,,,,,,,,,,,,,,,,,,,,,,,,1014.3592567000014,1014.37429539999,1014.37429539999,1014.874035899993,1014.874035899993,1017.3743010000036,1017.3743010000036,1017.358313100005,space,0.0,0.4126922000141348,None,,,,,,,,,,,,,,,,,,,,,,,,nback33,1.0,2023-12-18_12h03.06.949,untitled,2023.2.3,60.12581929907412,2023-12-18 12h39.32.023996 -0500,
1.0,"[-0.64, 0.4]",None,,,,,0.0,16.0,16.0,16.0,,,,,1017.3743010000036,,,,,,,,,,,,,,,,,,,,,,,,,,,,,,,,,,,,,,,,,,,,,,1017.3591392999806,1017.3743010000036,1017.3743010000036,1017.8740146000056,1017.8740146000056,1020.374082399998,1020.374082399998,1020.3585471999831,None,1.0,,,,,,,,,,,,,,,,,,,,,,,,,,nback33,1.0,2023-12-18_12h03.06.949,untitled,2023.2.3,60.12581929907412,2023-12-18 12h39.32.023996 -0500,
2.0,"[0.64, 0.4]",None,,,,,0.0,17.0,17.0,17.0,,,,,1020.374082399998,,,,,,,,,,,,,,,,,,,,,,,,,,,,,,,,,,,,,,,,,,,,,,1020.3593639000028,1020.374082399998,1020.374082399998,1020.8740179000016,1020.8740179000016,1023.3740817999932,1023.3740817999932,1023.3582465999934,space,0.0,0.6075609999825247,None,,,,,,,,,,,,,,,,,,,,,,,,nback33,1.0,2023-12-18_12h03.06.949,untitled,2023.2.3,60.12581929907412,2023-12-18 12h39.32.023996 -0500,
4.0,"[-0.2, 0.1]",None,,,,,0.0,18.0,18.0,18.0,,,,,1023.3740817999932,,,,,,,,,,,,,,,,,,,,,,,,,,,,,,,,,,,,,,,,,,,,,,1023.3590104999894,1023.3740817999932,1023.3740817999932,1023.8739379000036,1023.8739379000036,1026.3740191999825,1026.3740191999825,1026.3580090999894,space,0.0,0.5167946000001393,None,,,,,,,,,,,,,,,,,,,,,,,,nback33,1.0,2023-12-18_12h03.06.949,untitled,2023.2.3,60.12581929907412,2023-12-18 12h39.32.023996 -0500,
4.0,"[-0.2, 0.1]",space,,,,,0.0,19.0,19.0,19.0,,,,,1026.3740191999825,,,,,,,,,,,,,,,,,,,,,,,,,,,,,,,,,,,,,,,,,,,,,,1026.358757399983,1026.3740191999825,1026.3740191999825,1026.8737428000022,1026.8737428000022,1029.3738193000029,1029.3738193000029,1029.3579937999891,space,1.0,0.5917149999877438,None,,,,,,,,,,,,,,,,,,,,,,,,nback33,1.0,2023-12-18_12h03.06.949,untitled,2023.2.3,60.12581929907412,2023-12-18 12h39.32.023996 -0500,
8.0,"[-0.2, -0.1]",None,,,,,0.0,20.0,20.0,20.0,,,,,1029.3738193000029,,,,,,,,,,,,,,,,,,,,,,,,,,,,,,,,,,,,,,,,,,,,,,1029.3587249999982,1029.3738193000029,1029.3738193000029,1029.8736473000026,1029.8736473000026,1032.3739983999983,1032.3739983999983,1032.358302299981,space,0.0,0.8418248000089079,None,,,,,,,,,,,,,,,,,,,,,,,,nback33,1.0,2023-12-18_12h03.06.949,untitled,2023.2.3,60.12581929907412,2023-12-18 12h39.32.023996 -0500,
5.0,"[0.2, 0.1]",None,,,,,0.0,21.0,21.0,21.0,,,,,1032.3739983999983,,,,,,,,,,,,,,,,,,,,,,,,,,,,,,,,,,,,,,,,,,,,,,1032.3593440999975,1032.3739983999983,1032.3739983999983,1032.873587399983,1032.873587399983,1035.3739220999996,1035.3739220999996,1035.3584107999925,space,0.0,0.6585923999955412,None,,,,,,,,,,,,,,,,,,,,,,,,nback33,1.0,2023-12-18_12h03.06.949,untitled,2023.2.3,60.12581929907412,2023-12-18 12h39.32.023996 -0500,
5.0,"[0.2, 0.1]",space,,,,,0.0,22.0,22.0,22.0,,,,,1035.3739220999996,,,,,,,,,,,,,,,,,,,,,,,,,,,,,,,,,,,,,,,,,,,,,,1035.3593614999843,1035.3739220999996,1035.3739220999996,1035.8735225999844,1035.8735225999844,1038.3738995000022,1038.3738995000022,1038.3583485999843,None,0.0,,,,,,,,,,,,,,,,,,,,,,,,,,nback33,1.0,2023-12-18_12h03.06.949,untitled,2023.2.3,60.12581929907412,2023-12-18 12h39.32.023996 -0500,
1.0,"[-0.64, 0.4]",None,,,,,0.0,23.0,23.0,23.0,,,,,1038.3738995000022,,,,,,,,,,,,,,,,,,,,,,,,,,,,,,,,,,,,,,,,,,,,,,1038.3592208999908,1038.3738995000022,1038.3738995000022,1038.8734861999983,1038.8734861999983,1041.3739410999988,1041.3739410999988,1041.3580240999872,space,0.0,0.7190250999992713,None,,,,,,,,,,,,,,,,,,,,,,,,nback33,1.0,2023-12-18_12h03.06.949,untitled,2023.2.3,60.12581929907412,2023-12-18 12h39.32.023996 -0500,
3.0,"[0, 0.2]",None,,,,,0.0,24.0,24.0,24.0,,,,,1041.3739410999988,,,,,,,,,,,,,,,,,,,,,,,,,,,,,,,,,,,,,,,,,,,,,,1041.3589972000043,1041.3739410999988,1041.3739410999988,1041.8738092999847,1041.8738092999847,1044.3737139999866,1044.3737139999866,1044.3581125999915,space,0.0,0.8469665000156965,None,,,,,,,,,,,,,,,,,,,,,,,,nback33,1.0,2023-12-18_12h03.06.949,untitled,2023.2.3,60.12581929907412,2023-12-18 12h39.32.023996 -0500,
6.0,"[-0.3, 0]",None,,,,,0.0,25.0,25.0,25.0,,,,,1044.3737139999866,,,,,,,,,,,,,,,,,,,,,,,,,,,,,,,,,,,,,,,,,,,,,,1044.3591351999785,1044.3737139999866,1044.3737139999866,1044.8737641999903,1044.8737641999903,1047.373563799978,1047.373563799978,1047.3579323999877,None,1.0,,,,,,,,,,,,,,,,,,,,,,,,,,nback33,1.0,2023-12-18_12h03.06.949,untitled,2023.2.3,60.12581929907412,2023-12-18 12h39.32.023996 -0500,
1.0,"[-0.64, 0.4]",None,,,,,0.0,26.0,26.0,26.0,,,,,1047.373563799978,,,,,,,,,,,,,,,,,,,,,,,,,,,,,,,,,,,,,,,,,,,,,,1047.358807099983,1047.373563799978,1047.373563799978,1047.8736336999864,1047.8736336999864,1050.3737757999916,1050.3737757999916,1050.3579230000032,space,0.0,0.9304124000191224,None,,,,,,,,,,,,,,,,,,,,,,,,nback33,1.0,2023-12-18_12h03.06.949,untitled,2023.2.3,60.12581929907412,2023-12-18 12h39.32.023996 -0500,
1.0,"[-0.64, 0.4]",space,,,,,0.0,27.0,27.0,27.0,,,,,1050.3737757999916,,,,,,,,,,,,,,,,,,,,,,,,,,,,,,,,,,,,,,,,,,,,,,1050.3588437,1050.3737757999916,1050.3737757999916,1050.8734961999871,1050.8734961999871,1053.3734165999922,1053.3734165999922,1053.357799499994,None,0.0,,,,,,,,,,,,,,,,,,,,,,,,,,nback33,1.0,2023-12-18_12h03.06.949,untitled,2023.2.3,60.12581929907412,2023-12-18 12h39.32.023996 -0500,
1.0,"[-0.64, 0.4]",space,,,,,0.0,28.0,28.0,28.0,,,,,1053.3734165999922,,,,,,,,,,,,,,,,,,,,,,,,,,,,,,,,,,,,,,,,,,,,,,1053.3586467999849,1053.3734165999922,1053.3734165999922,1053.8735076999874,1053.8735076999874,1056.3733745999923,1056.3733745999923,1056.357824799983,space,1.0,0.5348661000025459,None,,,,,,,,,,,,,,,,,,,,,,,,nback33,1.0,2023-12-18_12h03.06.949,untitled,2023.2.3,60.12581929907412,2023-12-18 12h39.32.023996 -0500,
3.0,"[0, 0.2]",None,,,,,0.0,29.0,29.0,29.0,,,,,1056.3733745999923,,,,,,,,,,,,,,,,,,,,,,,,,,,,,,,,,,,,,,,,,,,,,,1056.3587858999963,1056.3733745999923,1056.3733745999923,1056.8734955999826,1056.8734955999826,1059.3734856999945,1059.3734856999945,1059.3575203999935,space,0.0,0.7664477000071201,None,,,,,,,,,,,,,,,,,,,,,,,,nback33,1.0,2023-12-18_12h03.06.949,untitled,2023.2.3,60.12581929907412,2023-12-18 12h39.32.023996 -0500,
12.0,"[0.64, -0.4]",None,,,,,0.0,30.0,30.0,30.0,,,,,1059.3734856999945,,,,,,,,,,,,,,,,,,,,,,,,,,,,,,,,,,,,,,,,,,,,,,1059.358290299977,1059.3734856999945,1059.3734856999945,1059.873497099994,1059.873497099994,1062.373476399982,1062.373476399982,1062.3575934999972,space,0.0,0.7039190000214148,None,,,,,,,,,,,,,,,,,,,,,,,,nback33,1.0,2023-12-18_12h03.06.949,untitled,2023.2.3,60.12581929907412,2023-12-18 12h39.32.023996 -0500,
12.0,"[0.64, -0.4]",space,,,,,0.0,31.0,31.0,31.0,,,,,1062.373476399982,,,,,,,,,,,,,,,,,,,,,,,,,,,,,,,,,,,,,,,,,,,,,,1062.3583732999978,1062.373476399982,1062.373476399982,1062.8736414999876,1062.8736414999876,1065.373283599998,1065.373283599998,1065.357590300002,None,0.0,,,,,,,,,,,,,,,,,,,,,,,,,,nback33,1.0,2023-12-18_12h03.06.949,untitled,2023.2.3,60.12581929907412,2023-12-18 12h39.32.023996 -0500,
2.0,"[0.64, 0.4]",None,,,,,0.0,32.0,32.0,32.0,,,,,1065.373283599998,,,,,,,,,,,,,,,,,,,,,,,,,,,,,,,,,,,,,,,,,,,,,,1065.3582373999816,1065.373283599998,1065.373283599998,1065.8732921000046,1065.8732921000046,1068.373223100003,1068.373223100003,1068.3577463999973,space,0.0,0.6894542999798432,None,,,,,,,,,,,,,,,,,,,,,,,,nback33,1.0,2023-12-18_12h03.06.949,untitled,2023.2.3,60.12581929907412,2023-12-18 12h39.32.023996 -0500,
1.0,"[-0.64, 0.4]",None,,,,,0.0,33.0,33.0,33.0,,,,,1068.373223100003,,,,,,,,,,,,,,,,,,,,,,,,,,,,,,,,,,,,,,,,,,,,,,1068.3587217000022,1068.373223100003,1068.373223100003,1068.87334369999,1068.87334369999,1071.373411699984,1071.373411699984,1071.3574350999843,space,0.0,1.1175096000079066,None,,,,,,,,,,,,,,,,,,,,,,,,nback33,1.0,2023-12-18_12h03.06.949,untitled,2023.2.3,60.12581929907412,2023-12-18 12h39.32.023996 -0500,
7.0,"[0.3, 0]",None,,,,,0.0,34.0,34.0,34.0,,,,,1071.373411699984,,,,,,,,,,,,,,,,,,,,,,,,,,,,,,,,,,,,,,,,,,,,,,1071.358370699978,1071.373411699984,1071.373411699984,1071.873303100001,1071.873303100001,1074.3733343999777,1074.3733343999777,1074.357174100005,space,0.0,0.9489785000041592,None,,,,,,,,,,,,,,,,,,,,,,,,nback33,1.0,2023-12-18_12h03.06.949,untitled,2023.2.3,60.12581929907412,2023-12-18 12h39.32.023996 -0500,
7.0,"[0.3, 0]",space,,,,,0.0,35.0,35.0,35.0,,,,,1074.3733343999777,,,,,,,,,,,,,,,,,,,,,,,,,,,,,,,,,,,,,,,,,,,,,,1074.357887899998,1074.3733343999777,1074.3733343999777,1074.8733100999962,1074.8733100999962,1077.373172599997,1077.373172599997,1077.3574860999945,None,0.0,,,,,,,,,,,,,,,,,,,,,,,,,,nback33,1.0,2023-12-18_12h03.06.949,untitled,2023.2.3,60.12581929907412,2023-12-18 12h39.32.023996 -0500,
11.0,"[-0.64, -0.4]",None,,,,,0.0,36.0,36.0,36.0,,,,,1077.373172599997,,,,,,,,,,,,,,,,,,,,,,,,,,,,,,,,,,,,,,,,,,,,,,1077.3582652999903,1077.373172599997,1077.373172599997,1077.8733715999988,1077.8733715999988,1080.3730316,1080.3730316,1080.3569268999854,space,0.0,0.425948000018252,None,,,,,,,,,,,,,,,,,,,,,,,,nback33,1.0,2023-12-18_12h03.06.949,untitled,2023.2.3,60.12581929907412,2023-12-18 12h39.32.023996 -0500,
2.0,"[0.64, 0.4]",None,,,,,0.0,37.0,37.0,37.0,,,,,1080.3730316,,,,,,,,,,,,,,,,,,,,,,,,,,,,,,,,,,,,,,,,,,,,,,1080.3576589000004,1080.3730316,1080.3730316,1080.8731616000005,1080.8731616000005,1083.3732025999925,1083.3732025999925,1083.3573942999938,space,0.0,0.8768017000111286,None,,,,,,,,,,,,,,,,,,,,,,,,nback33,1.0,2023-12-18_12h03.06.949,untitled,2023.2.3,60.12581929907412,2023-12-18 12h39.32.023996 -0500,
6.0,"[-0.3, 0]",None,,,,,0.0,38.0,38.0,38.0,,,,,1083.3732025999925,,,,,,,,,,,,,,,,,,,,,,,,,,,,,,,,,,,,,,,,,,,,,,1083.3583289999806,1083.3732025999925,1083.3732025999925,1083.873237599997,1083.873237599997,1086.3730150999909,1086.3730150999909,1086.3572720999946,None,1.0,,,,,,,,,,,,,,,,,,,,,,,,,,nback33,1.0,2023-12-18_12h03.06.949,untitled,2023.2.3,60.12581929907412,2023-12-18 12h39.32.023996 -0500,
10.0,"[0, -0.2]",None,,,,,0.0,39.0,39.0,39.0,,,,,1086.3730150999909,,,,,,,,,,,,,,,,,,,,,,,,,,,,,,,,,,,,,,,,,,,,,,1086.3579270000046,1086.3730150999909,1086.3730150999909,1086.8729676999792,1086.8729676999792,1089.373054900003,1089.373054900003,1089.3572854999802,space,0.0,1.381759999989299,None,,,,,,,,,,,,,,,,,,,,,,,,nback33,1.0,2023-12-18_12h03.06.949,untitled,2023.2.3,60.12581929907412,2023-12-18 12h39.32.023996 -0500,
,,,,,,,,,,,,,,,,,,,,,,,,,,,,,,,,,,,,,,,,,,,,,,,,,,,,,,,,,,,,,,,,,,,,,,,,,1089.358049100003,1089.373054900003,1089.373054900003,1287.0378783999768,space,197.6510369000025,None,,,,,,,,,,,,,,,,,nback33,1.0,2023-12-18_12h03.06.949,untitled,2023.2.3,60.12581929907412,2023-12-18 12h39.32.023996 -0500,
,"[0.2, 0.1]",None,,,,,,,,,0.0,0.0,0.0,0.0,1288.0528157999795,,,,,,,,,,,,,,,,,,,,,,,,1287.0379363999818,1287.0525649999909,1288.0528157999795,1288.036451699998,,,,,,,,,,,,,,,,,,,,,,,,,,,,,,,,,,,,,,1288.042976800003,1288.0528157999795,1288.0528157999795,1288.552830200002,1288.552830200002,1291.0527094999852,1291.0527094999852,1291.037202699983,None,1.0,,,,,,,nback33,1.0,2023-12-18_12h03.06.949,untitled,2023.2.3,60.12581929907412,2023-12-18 12h39.32.023996 -0500,
,"[0.64, 0.4]",None,,,,,,,,,0.0,1.0,1.0,1.0,1291.0527094999852,,,,,,,,,,,,,,,,,,,,,,,,,,,,,,,,,,,,,,,,,,,,,,,,,,,,,,,,,,,,,,,,,1291.0381387999803,1291.0527094999852,1291.0527094999852,1291.5529576999834,1291.5529576999834,1294.052794599993,1294.052794599993,1294.037041499978,None,1.0,,,,,,,nback33,1.0,2023-12-18_12h03.06.949,untitled,2023.2.3,60.12581929907412,2023-12-18 12h39.32.023996 -0500,
,"[-0.3, 0]",None,,,,,,,,,0.0,2.0,2.0,2.0,1294.052794599993,,,,,,,,,,,,,,,,,,,,,,,,,,,,,,,,,,,,,,,,,,,,,,,,,,,,,,,,,,,,,,,,,1294.0378205000015,1294.052794599993,1294.052794599993,1294.552746599977,1294.552746599977,1297.0525645999878,1297.0525645999878,1297.037072599982,None,1.0,,,,,,,nback33,1.0,2023-12-18_12h03.06.949,untitled,2023.2.3,60.12581929907412,2023-12-18 12h39.32.023996 -0500,
,"[0.2, -0.1]",None,,,,,,,,,0.0,3.0,3.0,3.0,1297.0525645999878,,,,,,,,,,,,,,,,,,,,,,,,,,,,,,,,,,,,,,,,,,,,,,,,,,,,,,,,,,,,,,,,,1297.0378478999774,1297.0525645999878,1297.0525645999878,1297.5527131999845,1297.5527131999845,1300.0526040999976,1300.0526040999976,1300.0370093999954,None,1.0,,,,,,,nback33,1.0,2023-12-18_12h03.06.949,untitled,2023.2.3,60.12581929907412,2023-12-18 12h39.32.023996 -0500,
,"[0, 0.2]",None,,,,,,,,,0.0,4.0,4.0,4.0,1300.0526040999976,,,,,,,,,,,,,,,,,,,,,,,,,,,,,,,,,,,,,,,,,,,,,,,,,,,,,,,,,,,,,,,,,1300.0377248000004,1300.0526040999976,1300.0526040999976,1300.5525836999875,1300.5525836999875,1303.0524381999858,1303.0524381999858,1303.0367024999869,None,1.0,,,,,,,nback33,1.0,2023-12-18_12h03.06.949,untitled,2023.2.3,60.12581929907412,2023-12-18 12h39.32.023996 -0500,
,"[0.2, -0.1]",space,,,,,,,,,0.0,5.0,5.0,5.0,1303.0524381999858,,,,,,,,,,,,,,,,,,,,,,,,,,,,,,,,,,,,,,,,,,,,,,,,,,,,,,,,,,,,,,,,,1303.0374051999825,1303.0524381999858,1303.0524381999858,1303.5525374999852,1303.5525374999852,1306.0526290999842,1306.0526290999842,1306.036867799994,None,0.0,,,,,,,nback33,1.0,2023-12-18_12h03.06.949,untitled,2023.2.3,60.12581929907412,2023-12-18 12h39.32.023996 -0500,
,"[0, -0.2]",None,,,,,,,,,0.0,6.0,6.0,6.0,1306.0526290999842,,,,,,,,,,,,,,,,,,,,,,,,,,,,,,,,,,,,,,,,,,,,,,,,,,,,,,,,,,,,,,,,,1306.0375225000023,1306.0526290999842,1306.0526290999842,1306.5525707999768,1306.5525707999768,1309.05249609999,1309.05249609999,1309.0367611999973,None,1.0,,,,,,,nback33,1.0,2023-12-18_12h03.06.949,untitled,2023.2.3,60.12581929907412,2023-12-18 12h39.32.023996 -0500,
,"[0.64, -0.4]",None,,,,,,,,,0.0,7.0,7.0,7.0,1309.05249609999,,,,,,,,,,,,,,,,,,,,,,,,,,,,,,,,,,,,,,,,,,,,,,,,,,,,,,,,,,,,,,,,,1309.037450999982,1309.05249609999,1309.05249609999,1309.5524776999955,1309.5524776999955,1312.0524556000018,1312.0524556000018,1312.036752199987,None,1.0,,,,,,,nback33,1.0,2023-12-18_12h03.06.949,untitled,2023.2.3,60.12581929907412,2023-12-18 12h39.32.023996 -0500,
,"[0.3, 0]",None,,,,,,,,,0.0,8.0,8.0,8.0,1312.0524556000018,,,,,,,,,,,,,,,,,,,,,,,,,,,,,,,,,,,,,,,,,,,,,,,,,,,,,,,,,,,,,,,,,1312.0376319999923,1312.0524556000018,1312.0524556000018,1312.552235399984,1312.552235399984,1315.052413400001,1315.052413400001,1315.0368452999974,None,1.0,,,,,,,nback33,1.0,2023-12-18_12h03.06.949,untitled,2023.2.3,60.12581929907412,2023-12-18 12h39.32.023996 -0500,
,"[0.64, -0.4]",space,,,,,,,,,0.0,9.0,9.0,9.0,1315.052413400001,,,,,,,,,,,,,,,,,,,,,,,,,,,,,,,,,,,,,,,,,,,,,,,,,,,,,,,,,,,,,,,,,1315.0376445000002,1315.052413400001,1315.052413400001,1315.5524972999992,1315.5524972999992,1318.0521912999975,1318.0521912999975,1318.0365244999994,space,1.0,0.5345580000139307,None,,,,,nback33,1.0,2023-12-18_12h03.06.949,untitled,2023.2.3,60.12581929907412,2023-12-18 12h39.32.023996 -0500,
,"[-0.64, 0.4]",None,,,,,,,,,0.0,10.0,10.0,10.0,1318.0521912999975,,,,,,,,,,,,,,,,,,,,,,,,,,,,,,,,,,,,,,,,,,,,,,,,,,,,,,,,,,,,,,,,,1318.037402899994,1318.0521912999975,1318.0521912999975,1318.552126900002,1318.552126900002,1321.0522253999952,1321.0522253999952,1321.036655999982,None,1.0,,,,,,,nback33,1.0,2023-12-18_12h03.06.949,untitled,2023.2.3,60.12581929907412,2023-12-18 12h39.32.023996 -0500,
,"[0.2, 0.1]",None,,,,,,,,,0.0,11.0,11.0,11.0,1321.0522253999952,,,,,,,,,,,,,,,,,,,,,,,,,,,,,,,,,,,,,,,,,,,,,,,,,,,,,,,,,,,,,,,,,1321.0374489999958,1321.0522253999952,1321.0522253999952,1321.5522611999768,1321.5522611999768,1324.052137199993,1324.052137199993,1324.0367440999837,None,1.0,,,,,,,nback33,1.0,2023-12-18_12h03.06.949,untitled,2023.2.3,60.12581929907412,2023-12-18 12h39.32.023996 -0500,
,"[0.3, 0]",None,,,,,,,,,0.0,12.0,12.0,12.0,1324.052137199993,,,,,,,,,,,,,,,,,,,,,,,,,,,,,,,,,,,,,,,,,,,,,,,,,,,,,,,,,,,,,,,,,1324.0375222000002,1324.052137199993,1324.052137199993,1324.552063799987,1324.552063799987,1327.052216799988,1327.052216799988,1327.0367179999885,None,1.0,,,,,,,nback33,1.0,2023-12-18_12h03.06.949,untitled,2023.2.3,60.12581929907412,2023-12-18 12h39.32.023996 -0500,
,"[0.2, 0.1]",space,,,,,,,,,0.0,13.0,13.0,13.0,1327.052216799988,,,,,,,,,,,,,,,,,,,,,,,,,,,,,,,,,,,,,,,,,,,,,,,,,,,,,,,,,,,,,,,,,1327.0375473999884,1327.052216799988,1327.052216799988,1327.5519823999784,1327.5519823999784,1330.0521664999833,1330.0521664999833,1330.036524199997,space,1.0,0.8884067999897525,None,,,,,nback33,1.0,2023-12-18_12h03.06.949,untitled,2023.2.3,60.12581929907412,2023-12-18 12h39.32.023996 -0500,
,"[-0.3, 0]",None,,,,,,,,,0.0,14.0,14.0,14.0,1330.0521664999833,,,,,,,,,,,,,,,,,,,,,,,,,,,,,,,,,,,,,,,,,,,,,,,,,,,,,,,,,,,,,,,,,1330.0375123999838,1330.0521664999833,1330.0521664999833,1330.552127300005,1330.552127300005,1333.052125999995,1333.052125999995,1333.03654619999,None,1.0,,,,,,,nback33,1.0,2023-12-18_12h03.06.949,untitled,2023.2.3,60.12581929907412,2023-12-18 12h39.32.023996 -0500,
,"[0, 0.2]",None,,,,,,,,,0.0,15.0,15.0,15.0,1333.052125999995,,,,,,,,,,,,,,,,,,,,,,,,,,,,,,,,,,,,,,,,,,,,,,,,,,,,,,,,,,,,,,,,,1333.0373793999895,1333.052125999995,1333.052125999995,1333.5521544999792,1333.5521544999792,1336.051806399977,1336.051806399977,1336.0364782999968,None,1.0,,,,,,,nback33,1.0,2023-12-18_12h03.06.949,untitled,2023.2.3,60.12581929907412,2023-12-18 12h39.32.023996 -0500,
,"[-0.3, 0]",space,,,,,,,,,0.0,16.0,16.0,16.0,1336.051806399977,,,,,,,,,,,,,,,,,,,,,,,,,,,,,,,,,,,,,,,,,,,,,,,,,,,,,,,,,,,,,,,,,1336.0372912999885,1336.051806399977,1336.051806399977,1336.5520082000005,1336.5520082000005,1339.0518856999988,1339.0518856999988,1339.0360731999972,space,1.0,0.3744262999971397,None,,,,,nback33,1.0,2023-12-18_12h03.06.949,untitled,2023.2.3,60.12581929907412,2023-12-18 12h39.32.023996 -0500,
,"[-0.64, -0.4]",None,,,,,,,,,0.0,17.0,17.0,17.0,1339.0518856999988,,,,,,,,,,,,,,,,,,,,,,,,,,,,,,,,,,,,,,,,,,,,,,,,,,,,,,,,,,,,,,,,,1339.036904699984,1339.0518856999988,1339.0518856999988,1339.5518168999988,1339.5518168999988,1342.0517075999817,1342.0517075999817,1342.0359164999973,None,1.0,,,,,,,nback33,1.0,2023-12-18_12h03.06.949,untitled,2023.2.3,60.12581929907412,2023-12-18 12h39.32.023996 -0500,
,"[-0.2, -0.1]",None,,,,,,,,,0.0,18.0,18.0,18.0,1342.0517075999817,,,,,,,,,,,,,,,,,,,,,,,,,,,,,,,,,,,,,,,,,,,,,,,,,,,,,,,,,,,,,,,,,1342.0365043999918,1342.0517075999817,1342.0517075999817,1342.5517892999924,1342.5517892999924,1345.0517643999774,1345.0517643999774,1345.0363420999784,space,0.0,0.993123199994443,None,,,,,nback33,1.0,2023-12-18_12h03.06.949,untitled,2023.2.3,60.12581929907412,2023-12-18 12h39.32.023996 -0500,
,"[0.2, -0.1]",None,,,,,,,,,0.0,19.0,19.0,19.0,1345.0517643999774,,,,,,,,,,,,,,,,,,,,,,,,,,,,,,,,,,,,,,,,,,,,,,,,,,,,,,,,,,,,,,,,,1345.0373738000053,1345.0517643999774,1345.0517643999774,1345.55206669998,1345.55206669998,1348.0515243999837,1348.0515243999837,1348.0351781999923,None,1.0,,,,,,,nback33,1.0,2023-12-18_12h03.06.949,untitled,2023.2.3,60.12581929907412,2023-12-18 12h39.32.023996 -0500,
,"[0.2, -0.1]",None,,,,,,,,,0.0,20.0,20.0,20.0,1348.0515243999837,,,,,,,,,,,,,,,,,,,,,,,,,,,,,,,,,,,,,,,,,,,,,,,,,,,,,,,,,,,,,,,,,1348.0355267999985,1348.0515243999837,1348.0515243999837,1348.5517778999929,1348.5517778999929,1351.0517863999994,1351.0517863999994,1351.0361274000024,None,1.0,,,,,,,nback33,1.0,2023-12-18_12h03.06.949,untitled,2023.2.3,60.12581929907412,2023-12-18 12h39.32.023996 -0500,
,"[-0.64, 0.4]",None,,,,,,,,,0.0,21.0,21.0,21.0,1351.0517863999994,,,,,,,,,,,,,,,,,,,,,,,,,,,,,,,,,,,,,,,,,,,,,,,,,,,,,,,,,,,,,,,,,1351.0369015999895,1351.0517863999994,1351.0517863999994,1351.5516631999926,1351.5516631999926,1354.051684999984,1354.051684999984,1354.0361451999925,None,1.0,,,,,,,nback33,1.0,2023-12-18_12h03.06.949,untitled,2023.2.3,60.12581929907412,2023-12-18 12h39.32.023996 -0500,
,"[0, 0.2]",None,,,,,,,,,0.0,22.0,22.0,22.0,1354.051684999984,,,,,,,,,,,,,,,,,,,,,,,,,,,,,,,,,,,,,,,,,,,,,,,,,,,,,,,,,,,,,,,,,1354.0369177999964,1354.051684999984,1354.051684999984,1354.5517556999985,1354.5517556999985,1357.05165139999,1357.05165139999,1357.0359504999942,None,1.0,,,,,,,nback33,1.0,2023-12-18_12h03.06.949,untitled,2023.2.3,60.12581929907412,2023-12-18 12h39.32.023996 -0500,
,"[0.64, -0.4]",None,,,,,,,,,0.0,23.0,23.0,23.0,1357.05165139999,,,,,,,,,,,,,,,,,,,,,,,,,,,,,,,,,,,,,,,,,,,,,,,,,,,,,,,,,,,,,,,,,1357.0367171999824,1357.05165139999,1357.05165139999,1357.5516694999824,1357.5516694999824,1360.0514712999866,1360.0514712999866,1360.0356291999924,None,1.0,,,,,,,nback33,1.0,2023-12-18_12h03.06.949,untitled,2023.2.3,60.12581929907412,2023-12-18 12h39.32.023996 -0500,
,"[0, 0.2]",space,,,,,,,,,0.0,24.0,24.0,24.0,1360.0514712999866,,,,,,,,,,,,,,,,,,,,,,,,,,,,,,,,,,,,,,,,,,,,,,,,,,,,,,,,,,,,,,,,,1360.0362538000045,1360.0514712999866,1360.0514712999866,1360.551548599993,1360.551548599993,1363.051425099984,1363.051425099984,1363.0357480999955,space,1.0,0.8421637999999803,None,,,,,nback33,1.0,2023-12-18_12h03.06.949,untitled,2023.2.3,60.12581929907412,2023-12-18 12h39.32.023996 -0500,
,"[-0.2, 0.1]",None,,,,,,,,,0.0,25.0,25.0,25.0,1363.051425099984,,,,,,,,,,,,,,,,,,,,,,,,,,,,,,,,,,,,,,,,,,,,,,,,,,,,,,,,,,,,,,,,,1363.0365741999994,1363.051425099984,1363.051425099984,1363.5515215999912,1363.5515215999912,1366.0515721999982,1366.0515721999982,1366.0354687999934,None,1.0,,,,,,,nback33,1.0,2023-12-18_12h03.06.949,untitled,2023.2.3,60.12581929907412,2023-12-18 12h39.32.023996 -0500,
,"[0.3, 0]",None,,,,,,,,,0.0,26.0,26.0,26.0,1366.0515721999982,,,,,,,,,,,,,,,,,,,,,,,,,,,,,,,,,,,,,,,,,,,,,,,,,,,,,,,,,,,,,,,,,1366.0361137999862,1366.0515721999982,1366.0515721999982,1366.5512917999877,1366.5512917999877,1369.0513754999847,1369.0513754999847,1369.0357458999788,None,1.0,,,,,,,nback33,1.0,2023-12-18_12h03.06.949,untitled,2023.2.3,60.12581929907412,2023-12-18 12h39.32.023996 -0500,
,"[-0.2, 0.1]",space,,,,,,,,,0.0,27.0,27.0,27.0,1369.0513754999847,,,,,,,,,,,,,,,,,,,,,,,,,,,,,,,,,,,,,,,,,,,,,,,,,,,,,,,,,,,,,,,,,1369.0365351999935,1369.0513754999847,1369.0513754999847,1369.5514028999896,1369.5514028999896,1372.0514390000026,1372.0514390000026,1372.035397700005,space,1.0,0.7092984000046272,None,,,,,nback33,1.0,2023-12-18_12h03.06.949,untitled,2023.2.3,60.12581929907412,2023-12-18 12h39.32.023996 -0500,
,"[-0.2, 0.1]",None,,,,,,,,,0.0,28.0,28.0,28.0,1372.0514390000026,,,,,,,,,,,,,,,,,,,,,,,,,,,,,,,,,,,,,,,,,,,,,,,,,,,,,,,,,,,,,,,,,1372.0361991999962,1372.0514390000026,1372.0514390000026,1372.5515255999926,1372.5515255999926,1375.0513094000053,1375.0513094000053,1375.0357007999846,None,1.0,,,,,,,nback33,1.0,2023-12-18_12h03.06.949,untitled,2023.2.3,60.12581929907412,2023-12-18 12h39.32.023996 -0500,
,"[0.2, 0.1]",None,,,,,,,,,0.0,29.0,29.0,29.0,1375.0513094000053,,,,,,,,,,,,,,,,,,,,,,,,,,,,,,,,,,,,,,,,,,,,,,,,,,,,,,,,,,,,,,,,,1375.036525499978,1375.0513094000053,1375.0513094000053,1375.5513710999803,1375.5513710999803,1378.0511669999978,1378.0511669999978,1378.0351541999844,None,1.0,,,,,,,nback33,1.0,2023-12-18_12h03.06.949,untitled,2023.2.3,60.12581929907412,2023-12-18 12h39.32.023996 -0500,
,"[-0.64, -0.4]",None,,,,,,,,,0.0,30.0,30.0,30.0,1378.0511669999978,,,,,,,,,,,,,,,,,,,,,,,,,,,,,,,,,,,,,,,,,,,,,,,,,,,,,,,,,,,,,,,,,1378.0357724999776,1378.0511669999978,1378.0511669999978,1378.5512540999916,1378.5512540999916,1381.051270399999,1381.051270399999,1381.0357237999851,None,1.0,,,,,,,nback33,1.0,2023-12-18_12h03.06.949,untitled,2023.2.3,60.12581929907412,2023-12-18 12h39.32.023996 -0500,
,"[0, -0.2]",None,,,,,,,,,0.0,31.0,31.0,31.0,1381.051270399999,,,,,,,,,,,,,,,,,,,,,,,,,,,,,,,,,,,,,,,,,,,,,,,,,,,,,,,,,,,,,,,,,1381.036554199993,1381.051270399999,1381.051270399999,1381.5510641,1381.5510641,1384.051148700004,1384.051148700004,1384.03556259998,None,1.0,,,,,,,nback33,1.0,2023-12-18_12h03.06.949,untitled,2023.2.3,60.12581929907412,2023-12-18 12h39.32.023996 -0500,
,"[-0.64, -0.4]",space,,,,,,,,,0.0,32.0,32.0,32.0,1384.051148700004,,,,,,,,,,,,,,,,,,,,,,,,,,,,,,,,,,,,,,,,,,,,,,,,,,,,,,,,,,,,,,,,,1384.0363315999855,1384.051148700004,1384.051148700004,1384.551049500005,1384.551049500005,1387.0512669000018,1387.0512669000018,1387.0356393999828,space,1.0,0.4136110999970697,None,,,,,nback33,1.0,2023-12-18_12h03.06.949,untitled,2023.2.3,60.12581929907412,2023-12-18 12h39.32.023996 -0500,
,"[0.64, 0.4]",None,,,,,,,,,0.0,33.0,33.0,33.0,1387.0512669000018,,,,,,,,,,,,,,,,,,,,,,,,,,,,,,,,,,,,,,,,,,,,,,,,,,,,,,,,,,,,,,,,,1387.0366476000054,1387.0512669000018,1387.0512669000018,1387.551070299989,1387.551070299989,1390.050975399994,1390.050975399994,1390.0355869999912,None,1.0,,,,,,,nback33,1.0,2023-12-18_12h03.06.949,untitled,2023.2.3,60.12581929907412,2023-12-18 12h39.32.023996 -0500,
,"[-0.3, 0]",None,,,,,,,,,0.0,34.0,34.0,34.0,1390.050975399994,,,,,,,,,,,,,,,,,,,,,,,,,,,,,,,,,,,,,,,,,,,,,,,,,,,,,,,,,,,,,,,,,1390.0364129999944,1390.050975399994,1390.050975399994,1390.5511057999977,1390.5511057999977,1393.050982899993,1393.050982899993,1393.0356186999998,None,1.0,,,,,,,nback33,1.0,2023-12-18_12h03.06.949,untitled,2023.2.3,60.12581929907412,2023-12-18 12h39.32.023996 -0500,
,"[0.3, 0]",None,,,,,,,,,0.0,35.0,35.0,35.0,1393.050982899993,,,,,,,,,,,,,,,,,,,,,,,,,,,,,,,,,,,,,,,,,,,,,,,,,,,,,,,,,,,,,,,,,1393.0364279999922,1393.050982899993,1393.050982899993,1393.550965100003,1393.550965100003,1396.0509910999972,1396.0509910999972,1396.0354750999832,None,1.0,,,,,,,nback33,1.0,2023-12-18_12h03.06.949,untitled,2023.2.3,60.12581929907412,2023-12-18 12h39.32.023996 -0500,
,"[-0.3, 0]",space,,,,,,,,,0.0,36.0,36.0,36.0,1396.0509910999972,,,,,,,,,,,,,,,,,,,,,,,,,,,,,,,,,,,,,,,,,,,,,,,,,,,,,,,,,,,,,,,,,1396.036302099994,1396.0509910999972,1396.0509910999972,1396.550948899996,1396.550948899996,1399.050885100005,1399.050885100005,1399.0352981000033,space,1.0,0.5397529999900144,None,,,,,nback33,1.0,2023-12-18_12h03.06.949,untitled,2023.2.3,60.12581929907412,2023-12-18 12h39.32.023996 -0500,
,"[0, -0.2]",None,,,,,,,,,0.0,37.0,37.0,37.0,1399.050885100005,,,,,,,,,,,,,,,,,,,,,,,,,,,,,,,,,,,,,,,,,,,,,,,,,,,,,,,,,,,,,,,,,1399.0363356999878,1399.050885100005,1399.050885100005,1399.551068300003,1399.551068300003,1402.050860899995,1402.050860899995,1402.0351312999846,None,1.0,,,,,,,nback33,1.0,2023-12-18_12h03.06.949,untitled,2023.2.3,60.12581929907412,2023-12-18 12h39.32.023996 -0500,
,"[0.3, 0]",None,,,,,,,,,0.0,38.0,38.0,38.0,1402.050860899995,,,,,,,,,,,,,,,,,,,,,,,,,,,,,,,,,,,,,,,,,,,,,,,,,,,,,,,,,,,,,,,,,1402.0359308999905,1402.050860899995,1402.050860899995,1402.5507716999855,1402.5507716999855,1405.0505712000013,1405.0505712000013,1405.034953499999,None,1.0,,,,,,,nback33,1.0,2023-12-18_12h03.06.949,untitled,2023.2.3,60.12581929907412,2023-12-18 12h39.32.023996 -0500,
,"[0.2, 0.1]",None,,,,,,,,,0.0,39.0,39.0,39.0,1405.0505712000013,,,,,,,,,,,,,,,,,,,,,,,,,,,,,,,,,,,,,,,,,,,,,,,,,,,,,,,,,,,,,,,,,1405.0356391999812,1405.0505712000013,1405.0505712000013,1405.5507839999918,1405.5507839999918,1408.0506838999863,1408.0506838999863,1408.0344593999907,None,1.0,,,,,,,nback33,1.0,2023-12-18_12h03.06.949,untitled,2023.2.3,60.12581929907412,2023-12-18 12h39.32.023996 -0500,
,,,,,,,,,,,,,,,,,,,,,,,,,,,,,,,,,,,,,,,,,,,,,,,,,,,,,,,,,,,,,,,,,,,,,,,,,,,,,,,,,,,,,,,,,,,,1408.034712099994,1408.0506838999863,1411.0505282999948,1411.034709999978,,,,,,,,
