square,location,corrAns,trials_0.thisRepN,trials_0.thisTrialN,trials_0.thisN,trials_0.thisIndex,trials_1.thisRepN,trials_1.thisTrialN,trials_1.thisN,trials_1.thisIndex,trials_2.thisRepN,trials_2.thisTrialN,trials_2.thisN,trials_2.thisIndex,thisRow.t,notes,Instructions.started,instructions.started,key_resp.started,inst_sq11.started,Instructions.stopped,key_resp.keys,key_resp.rt,key_resp.duration,All.started,sq_1.started,sq_2.started,sq_3.started,sq_4.started,sq_5.started,sq_6.started,sq_7.started,sq_8.started,sq_9.started,sq_10.started,sq_11.started,sq_12.started,All.stopped,Fixation.started,fixation_3.started,fixation_3.stopped,Fixation.stopped,N_back_0_Trial.started,target_square_0.started,response_0.started,fixation_0.started,target_square_0.stopped,fixation_0.stopped,N_back_0_Trial.stopped,response_0.keys,response_0.corr,response_0.rt,response_0.duration,Instructions_1.started,instructions_1.started,key_resp_1.started,Instructions_1.stopped,key_resp_1.keys,key_resp_1.rt,key_resp_1.duration,N_back_1_Trial.started,target_square_1.started,response_1.started,fixation_1.started,target_square_1.stopped,fixation_1.stopped,N_back_1_Trial.stopped,response_1.keys,response_1.corr,response_1.rt,response_1.duration,Instructions_2.started,instructions_2.started,key_resp_2.started,Instructions_2.stopped,key_resp_2.keys,key_resp_2.rt,key_resp_2.duration,N_back_2_trials.started,target_square_2.started,response_2.started,target_square_2.stopped,fixation_2.started,fixation_2.stopped,response_2.stopped,N_back_2_trials.stopped,response_2.keys,response_2.corr,response_2.rt,response_2.duration,End.started,thank_you.started,thank_you.stopped,End.stopped,participant,session,date,expName,psychopyVersion,frameRate,expStart,Unnamed: 102
,,,,,,,,,,,,,,,,,0.0014958000974729,0.0038840000052005,0.0038840000052005,0.0038840000052005,1780.133421500097,space,1780.1246555999387,None,,,,,,,,,,,,,,,,,,,,,,,,,,,,,,,,,,,,,,,,,,,,,,,,,,,,,,,,,,,,,,,,,,,,,,,nback66,1.0,2024-01-22_14h24.06.691,untitled,2023.2.3,60.01529187307531,2024-01-22 14h43.23.581149 -0500,
6.0,"[-0.3, 0]",None,0.0,0.0,0.0,0.0,,,,,,,,,1782.151132500032,,,,,,,,,,1780.1334786000662,1780.1481995000504,1780.1481995000504,1780.1481995000504,1780.1481995000504,1780.1481995000504,1780.1481995000504,1780.1481995000504,1780.1481995000504,1780.1481995000504,1780.1481995000504,1780.1481995000504,1780.1481995000504,1781.1320627001114,1781.1320777001092,1781.148175000097,1782.151132500032,1782.132271700073,1782.149121100083,1782.151132500032,1782.151132500032,1782.6314071000088,1782.664787900052,1785.1314737000505,1785.1483255000785,None,1.0,,,,,,,,,,,,,,,,,,,,,,,,,,,,,,,,,,,,,,,,,,,,nback66,1.0,2024-01-22_14h24.06.691,untitled,2023.2.3,60.01529187307531,2024-01-22 14h43.23.581149 -0500,
10.0,"[0, -0.2]",None,0.0,1.0,1.0,1.0,,,,,,,,,1785.164766700007,,,,,,,,,,,,,,,,,,,,,,,,,,,,1785.14944310009,1785.164766700007,1785.164766700007,1785.6313682000618,1785.664601800032,1788.1313063000562,1788.148101400002,None,1.0,,,,,,,,,,,,,,,,,,,,,,,,,,,,,,,,,,,,,,,,,,,,nback66,1.0,2024-01-22_14h24.06.691,untitled,2023.2.3,60.01529187307531,2024-01-22 14h43.23.581149 -0500,
11.0,"[-0.64, -0.4]",space,0.0,2.0,2.0,2.0,,,,,,,,,1788.164635000052,,,,,,,,,,,,,,,,,,,,,,,,,,,,1788.1487395000877,1788.164635000052,1788.164635000052,1788.6312819001032,1788.6647506000008,1791.1314414000371,1791.148074600031,space,1.0,0.3962413999252021,None,,,,,,,,,,,,,,,,,,,,,,,,,,,,,,,,,,,,,,,,,,nback66,1.0,2024-01-22_14h24.06.691,untitled,2023.2.3,60.01529187307531,2024-01-22 14h43.23.581149 -0500,
12.0,"[0.64, -0.4]",None,0.0,3.0,3.0,3.0,,,,,,,,,1791.1645387000171,,,,,,,,,,,,,,,,,,,,,,,,,,,,1791.149210600066,1791.1645387000171,1791.1645387000171,1791.6313015000196,1791.6647616000846,1794.1313165000174,1794.1480262000114,None,1.0,,,,,,,,,,,,,,,,,,,,,,,,,,,,,,,,,,,,,,,,,,,,nback66,1.0,2024-01-22_14h24.06.691,untitled,2023.2.3,60.01529187307531,2024-01-22 14h43.23.581149 -0500,
1.0,"[-0.64, 0.4]",None,0.0,4.0,4.0,4.0,,,,,,,,,1794.1644487000303,,,,,,,,,,,,,,,,,,,,,,,,,,,,1794.1486538000172,1794.1644487000303,1794.1644487000303,1794.6313869000878,1794.664562900085,1797.131141500082,1797.148055800004,None,1.0,,,,,,,,,,,,,,,,,,,,,,,,,,,,,,,,,,,,,,,,,,,,nback66,1.0,2024-01-22_14h24.06.691,untitled,2023.2.3,60.01529187307531,2024-01-22 14h43.23.581149 -0500,
1.0,"[-0.64, 0.4]",None,0.0,5.0,5.0,5.0,,,,,,,,,1797.1644903999986,,,,,,,,,,,,,,,,,,,,,,,,,,,,1797.1487627000315,1797.1644903999986,1797.1644903999986,1797.6310667000944,1797.664427800104,1800.131089600036,1800.1480029000668,None,1.0,,,,,,,,,,,,,,,,,,,,,,,,,,,,,,,,,,,,,,,,,,,,nback66,1.0,2024-01-22_14h24.06.691,untitled,2023.2.3,60.01529187307531,2024-01-22 14h43.23.581149 -0500,
4.0,"[-0.2, 0.1]",None,0.0,6.0,6.0,6.0,,,,,,,,,1800.1643912000582,,,,,,,,,,,,,,,,,,,,,,,,,,,,1800.1488465000875,1800.1643912000582,1800.1643912000582,1800.631074200035,1800.6645038001006,1803.1311061000447,1803.147814300028,None,1.0,,,,,,,,,,,,,,,,,,,,,,,,,,,,,,,,,,,,,,,,,,,,nback66,1.0,2024-01-22_14h24.06.691,untitled,2023.2.3,60.01529187307531,2024-01-22 14h43.23.581149 -0500,
5.0,"[0.2, 0.1]",None,0.0,7.0,7.0,7.0,,,,,,,,,1803.1644574000968,,,,,,,,,,,,,,,,,,,,,,,,,,,,1803.148169400054,1803.1644574000968,1803.1644574000968,1803.6311252000744,1803.6643766000636,1806.1310962000864,1806.147938900045,None,1.0,,,,,,,,,,,,,,,,,,,,,,,,,,,,,,,,,,,,,,,,,,,,nback66,1.0,2024-01-22_14h24.06.691,untitled,2023.2.3,60.01529187307531,2024-01-22 14h43.23.581149 -0500,
11.0,"[-0.64, -0.4]",space,0.0,8.0,8.0,8.0,,,,,,,,,1806.1642416000832,,,,,,,,,,,,,,,,,,,,,,,,,,,,1806.1486238000216,1806.1642416000832,1806.1642416000832,1806.630891000037,1806.6643170000752,1809.131030500052,1809.1476955000544,space,1.0,0.3505126000382006,None,,,,,,,,,,,,,,,,,,,,,,,,,,,,,,,,,,,,,,,,,,nback66,1.0,2024-01-22_14h24.06.691,untitled,2023.2.3,60.01529187307531,2024-01-22 14h43.23.581149 -0500,
9.0,"[0.2, -0.1]",None,0.0,9.0,9.0,9.0,,,,,,,,,1809.1644119000996,,,,,,,,,,,,,,,,,,,,,,,,,,,,1809.1487316000275,1809.1644119000996,1809.1644119000996,1809.647518200101,1809.6642769000027,1812.14775740006,1812.147926600068,None,1.0,,,,,,,,,,,,,,,,,,,,,,,,,,,,,,,,,,,,,,,,,,,,nback66,1.0,2024-01-22_14h24.06.691,untitled,2023.2.3,60.01529187307531,2024-01-22 14h43.23.581149 -0500,
8.0,"[-0.2, -0.1]",None,0.0,10.0,10.0,10.0,,,,,,,,,1812.1643399000168,,,,,,,,,,,,,,,,,,,,,,,,,,,,1812.148565600044,1812.1643399000168,1812.1643399000168,1812.647527500056,1812.6641087000023,1815.1476163000332,1815.1478290000232,None,1.0,,,,,,,,,,,,,,,,,,,,,,,,,,,,,,,,,,,,,,,,,,,,nback66,1.0,2024-01-22_14h24.06.691,untitled,2023.2.3,60.01529187307531,2024-01-22 14h43.23.581149 -0500,
9.0,"[0.2, -0.1]",None,0.0,11.0,11.0,11.0,,,,,,,,,1815.164178100065,,,,,,,,,,,,,,,,,,,,,,,,,,,,1815.148646500078,1815.164178100065,1815.164178100065,1815.6474918000167,1815.664319700096,1818.147440400091,1818.147609900101,None,1.0,,,,,,,,,,,,,,,,,,,,,,,,,,,,,,,,,,,,,,,,,,,,nback66,1.0,2024-01-22_14h24.06.691,untitled,2023.2.3,60.01529187307531,2024-01-22 14h43.23.581149 -0500,
6.0,"[-0.3, 0]",None,0.0,12.0,12.0,12.0,,,,,,,,,1818.1641585000325,,,,,,,,,,,,,,,,,,,,,,,,,,,,1818.1482812000904,1818.1641585000325,1818.1641585000325,1818.647410100093,1818.6641984001035,1821.1476433000064,1821.1478414000007,None,1.0,,,,,,,,,,,,,,,,,,,,,,,,,,,,,,,,,,,,,,,,,,,,nback66,1.0,2024-01-22_14h24.06.691,untitled,2023.2.3,60.01529187307531,2024-01-22 14h43.23.581149 -0500,
9.0,"[0.2, -0.1]",None,0.0,13.0,13.0,13.0,,,,,,,,,1821.164061800111,,,,,,,,,,,,,,,,,,,,,,,,,,,,1821.148592500016,1821.164061800111,1821.164061800111,1821.6472810000412,1821.664119000081,1824.1473547000203,1824.1475471000888,None,1.0,,,,,,,,,,,,,,,,,,,,,,,,,,,,,,,,,,,,,,,,,,,,nback66,1.0,2024-01-22_14h24.06.691,untitled,2023.2.3,60.01529187307531,2024-01-22 14h43.23.581149 -0500,
7.0,"[0.3, 0]",None,0.0,14.0,14.0,14.0,,,,,,,,,1824.1639331000624,,,,,,,,,,,,,,,,,,,,,,,,,,,,1824.1482806000856,1824.1639331000624,1824.1639331000624,1824.647374000051,1824.6639903000323,1827.1472448999996,1827.147436600062,None,1.0,,,,,,,,,,,,,,,,,,,,,,,,,,,,,,,,,,,,,,,,,,,,nback66,1.0,2024-01-22_14h24.06.691,untitled,2023.2.3,60.01529187307531,2024-01-22 14h43.23.581149 -0500,
2.0,"[0.64, 0.4]",None,0.0,15.0,15.0,15.0,,,,,,,,,1827.164193700068,,,,,,,,,,,,,,,,,,,,,,,,,,,,1827.148155800067,1827.164193700068,1827.164193700068,1827.6472303000048,1827.664143800037,1830.1471675001085,1830.1473554000256,None,1.0,,,,,,,,,,,,,,,,,,,,,,,,,,,,,,,,,,,,,,,,,,,,nback66,1.0,2024-01-22_14h24.06.691,untitled,2023.2.3,60.01529187307531,2024-01-22 14h43.23.581149 -0500,
2.0,"[0.64, 0.4]",None,0.0,16.0,16.0,16.0,,,,,,,,,1830.164025000064,,,,,,,,,,,,,,,,,,,,,,,,,,,,1830.1480112000136,1830.164025000064,1830.164025000064,1830.6473329000876,1830.6639228001004,1833.14713050006,1833.147315600072,None,1.0,,,,,,,,,,,,,,,,,,,,,,,,,,,,,,,,,,,,,,,,,,,,nback66,1.0,2024-01-22_14h24.06.691,untitled,2023.2.3,60.01529187307531,2024-01-22 14h43.23.581149 -0500,
11.0,"[-0.64, -0.4]",space,0.0,17.0,17.0,17.0,,,,,,,,,1833.163834600011,,,,,,,,,,,,,,,,,,,,,,,,,,,,1833.1480635000623,1833.163834600011,1833.163834600011,1833.6472155000083,1833.6637444000223,1836.1472503000405,1836.1474657000508,space,1.0,0.3567358000436798,None,,,,,,,,,,,,,,,,,,,,,,,,,,,,,,,,,,,,,,,,,,nback66,1.0,2024-01-22_14h24.06.691,untitled,2023.2.3,60.01529187307531,2024-01-22 14h43.23.581149 -0500,
11.0,"[-0.64, -0.4]",space,0.0,18.0,18.0,18.0,,,,,,,,,1836.1639932000544,,,,,,,,,,,,,,,,,,,,,,,,,,,,1836.1484461000653,1836.1639932000544,1836.1639932000544,1836.6469691001112,1836.663820900023,1839.1471552000148,1839.1473636000885,space,1.0,0.526564999949187,None,,,,,,,,,,,,,,,,,,,,,,,,,,,,,,,,,,,,,,,,,,nback66,1.0,2024-01-22_14h24.06.691,untitled,2023.2.3,60.01529187307531,2024-01-22 14h43.23.581149 -0500,
7.0,"[0.3, 0]",None,0.0,19.0,19.0,19.0,,,,,,,,,1839.1637233000947,,,,,,,,,,,,,,,,,,,,,,,,,,,,1839.148248600075,1839.1637233000947,1839.1637233000947,1839.647083900054,1839.6638129000785,1842.1471619000656,1842.1473621000769,None,1.0,,,,,,,,,,,,,,,,,,,,,,,,,,,,,,,,,,,,,,,,,,,,nback66,1.0,2024-01-22_14h24.06.691,untitled,2023.2.3,60.01529187307531,2024-01-22 14h43.23.581149 -0500,
3.0,"[0, 0.2]",None,0.0,20.0,20.0,20.0,,,,,,,,,1842.1638225000352,,,,,,,,,,,,,,,,,,,,,,,,,,,,1842.1481497000204,1842.1638225000352,1842.1638225000352,1842.6470550000668,1842.6638319001067,1845.147056600079,1845.1472734001,None,1.0,,,,,,,,,,,,,,,,,,,,,,,,,,,,,,,,,,,,,,,,,,,,nback66,1.0,2024-01-22_14h24.06.691,untitled,2023.2.3,60.01529187307531,2024-01-22 14h43.23.581149 -0500,
10.0,"[0, -0.2]",None,0.0,21.0,21.0,21.0,,,,,,,,,1845.1635083000876,,,,,,,,,,,,,,,,,,,,,,,,,,,,1845.1480834000977,1845.1635083000876,1845.1635083000876,1845.64696500008,1845.6636626000984,1848.1469354000876,1848.147133300081,None,1.0,,,,,,,,,,,,,,,,,,,,,,,,,,,,,,,,,,,,,,,,,,,,nback66,1.0,2024-01-22_14h24.06.691,untitled,2023.2.3,60.01529187307531,2024-01-22 14h43.23.581149 -0500,
1.0,"[-0.64, 0.4]",None,0.0,22.0,22.0,22.0,,,,,,,,,1848.1635787000412,,,,,,,,,,,,,,,,,,,,,,,,,,,,1848.147892500041,1848.1635787000412,1848.1635787000412,1848.6469970000908,1848.6635886000004,1851.1469823000955,1851.1471609000585,None,1.0,,,,,,,,,,,,,,,,,,,,,,,,,,,,,,,,,,,,,,,,,,,,nback66,1.0,2024-01-22_14h24.06.691,untitled,2023.2.3,60.01529187307531,2024-01-22 14h43.23.581149 -0500,
2.0,"[0.64, 0.4]",None,0.0,23.0,23.0,23.0,,,,,,,,,1851.163784500095,,,,,,,,,,,,,,,,,,,,,,,,,,,,1851.147836600081,1851.163784500095,1851.163784500095,1851.646944600041,1851.6636579000624,1854.1468644000124,1854.1470449001065,None,1.0,,,,,,,,,,,,,,,,,,,,,,,,,,,,,,,,,,,,,,,,,,,,nback66,1.0,2024-01-22_14h24.06.691,untitled,2023.2.3,60.01529187307531,2024-01-22 14h43.23.581149 -0500,
6.0,"[-0.3, 0]",None,0.0,24.0,24.0,24.0,,,,,,,,,1854.163569000084,,,,,,,,,,,,,,,,,,,,,,,,,,,,1854.1477435000704,1854.163569000084,1854.163569000084,1854.6469229001088,1854.6635156000264,1857.1467791000612,1857.1469783000648,None,1.0,,,,,,,,,,,,,,,,,,,,,,,,,,,,,,,,,,,,,,,,,,,,nback66,1.0,2024-01-22_14h24.06.691,untitled,2023.2.3,60.01529187307531,2024-01-22 14h43.23.581149 -0500,
3.0,"[0, 0.2]",None,0.0,25.0,25.0,25.0,,,,,,,,,1857.1633340000408,,,,,,,,,,,,,,,,,,,,,,,,,,,,1857.1477434000697,1857.1633340000408,1857.1633340000408,1857.6468523000367,1857.6635794000467,1860.1467936000556,1860.1470074000536,None,1.0,,,,,,,,,,,,,,,,,,,,,,,,,,,,,,,,,,,,,,,,,,,,nback66,1.0,2024-01-22_14h24.06.691,untitled,2023.2.3,60.01529187307531,2024-01-22 14h43.23.581149 -0500,
11.0,"[-0.64, -0.4]",space,0.0,26.0,26.0,26.0,,,,,,,,,1860.1633740999969,,,,,,,,,,,,,,,,,,,,,,,,,,,,1860.147993200109,1860.1633740999969,1860.1633740999969,1860.646789600025,1860.6633251000892,1863.1467246999964,1863.1469150000485,space,1.0,0.3274149000644684,None,,,,,,,,,,,,,,,,,,,,,,,,,,,,,,,,,,,,,,,,,,nback66,1.0,2024-01-22_14h24.06.691,untitled,2023.2.3,60.01529187307531,2024-01-22 14h43.23.581149 -0500,
1.0,"[-0.64, 0.4]",None,0.0,27.0,27.0,27.0,,,,,,,,,1863.1635538000849,,,,,,,,,,,,,,,,,,,,,,,,,,,,1863.147812500014,1863.1635538000849,1863.1635538000849,1863.6465201000683,1863.6633486000355,1866.1465899000175,1866.146772700013,None,1.0,,,,,,,,,,,,,,,,,,,,,,,,,,,,,,,,,,,,,,,,,,,,nback66,1.0,2024-01-22_14h24.06.691,untitled,2023.2.3,60.01529187307531,2024-01-22 14h43.23.581149 -0500,
3.0,"[0, 0.2]",None,0.0,28.0,28.0,28.0,,,,,,,,,1866.163312000106,,,,,,,,,,,,,,,,,,,,,,,,,,,,1866.147504300112,1866.163312000106,1866.163312000106,1866.6467350000748,1866.6632251000265,1869.146588600008,1869.146802000003,None,1.0,,,,,,,,,,,,,,,,,,,,,,,,,,,,,,,,,,,,,,,,,,,,nback66,1.0,2024-01-22_14h24.06.691,untitled,2023.2.3,60.01529187307531,2024-01-22 14h43.23.581149 -0500,
9.0,"[0.2, -0.1]",None,0.0,29.0,29.0,29.0,,,,,,,,,1869.1633094000863,,,,,,,,,,,,,,,,,,,,,,,,,,,,1869.1476835000797,1869.1633094000863,1869.1633094000863,1869.6465785000476,1869.6632409000304,1872.146704400075,1872.146907000104,None,1.0,,,,,,,,,,,,,,,,,,,,,,,,,,,,,,,,,,,,,,,,,,,,nback66,1.0,2024-01-22_14h24.06.691,untitled,2023.2.3,60.01529187307531,2024-01-22 14h43.23.581149 -0500,
8.0,"[-0.2, -0.1]",None,0.0,30.0,30.0,30.0,,,,,,,,,1872.1631954000327,,,,,,,,,,,,,,,,,,,,,,,,,,,,1872.1476225000808,1872.1631954000327,1872.1631954000327,1872.64653560007,1872.663295000093,1875.146424400038,1875.146628000075,None,1.0,,,,,,,,,,,,,,,,,,,,,,,,,,,,,,,,,,,,,,,,,,,,nback66,1.0,2024-01-22_14h24.06.691,untitled,2023.2.3,60.01529187307531,2024-01-22 14h43.23.581149 -0500,
12.0,"[0.64, -0.4]",None,0.0,31.0,31.0,31.0,,,,,,,,,1875.1632795000917,,,,,,,,,,,,,,,,,,,,,,,,,,,,1875.1473981000015,1875.1632795000917,1875.1632795000917,1875.646510200109,1875.6631431001008,1878.1465220000828,1878.146734100068,None,1.0,,,,,,,,,,,,,,,,,,,,,,,,,,,,,,,,,,,,,,,,,,,,nback66,1.0,2024-01-22_14h24.06.691,untitled,2023.2.3,60.01529187307531,2024-01-22 14h43.23.581149 -0500,
9.0,"[0.2, -0.1]",None,0.0,32.0,32.0,32.0,,,,,,,,,1878.1632012000773,,,,,,,,,,,,,,,,,,,,,,,,,,,,1878.1475507,1878.1632012000773,1878.1632012000773,1878.6465686000884,1878.663181400043,1881.146413700073,1881.146618500003,None,1.0,,,,,,,,,,,,,,,,,,,,,,,,,,,,,,,,,,,,,,,,,,,,nback66,1.0,2024-01-22_14h24.06.691,untitled,2023.2.3,60.01529187307531,2024-01-22 14h43.23.581149 -0500,
11.0,"[-0.64, -0.4]",space,0.0,33.0,33.0,33.0,,,,,,,,,1881.163143500104,,,,,,,,,,,,,,,,,,,,,,,,,,,,1881.147441700101,1881.163143500104,1881.163143500104,1881.6462685000151,1881.6630360001,1884.1464263000528,1884.1466049000155,space,1.0,0.3456089999526739,None,,,,,,,,,,,,,,,,,,,,,,,,,,,,,,,,,,,,,,,,,,nback66,1.0,2024-01-22_14h24.06.691,untitled,2023.2.3,60.01529187307531,2024-01-22 14h43.23.581149 -0500,
7.0,"[0.3, 0]",None,0.0,34.0,34.0,34.0,,,,,,,,,1884.1630529999968,,,,,,,,,,,,,,,,,,,,,,,,,,,,1884.147537300014,1884.1630529999968,1884.1630529999968,1884.6462507999968,1884.662978200009,1887.1462879000464,1887.146492100088,None,1.0,,,,,,,,,,,,,,,,,,,,,,,,,,,,,,,,,,,,,,,,,,,,nback66,1.0,2024-01-22_14h24.06.691,untitled,2023.2.3,60.01529187307531,2024-01-22 14h43.23.581149 -0500,
11.0,"[-0.64, -0.4]",space,0.0,35.0,35.0,35.0,,,,,,,,,1887.163087300025,,,,,,,,,,,,,,,,,,,,,,,,,,,,1887.1473386000143,1887.163087300025,1887.163087300025,1887.6463823000668,1887.6630865000188,1890.147474700003,1890.1476487000475,space,1.0,0.4060382000170648,None,,,,,,,,,,,,,,,,,,,,,,,,,,,,,,,,,,,,,,,,,,nback66,1.0,2024-01-22_14h24.06.691,untitled,2023.2.3,60.01529187307531,2024-01-22 14h43.23.581149 -0500,
4.0,"[-0.2, 0.1]",None,0.0,36.0,36.0,36.0,,,,,,,,,1890.1628840001067,,,,,,,,,,,,,,,,,,,,,,,,,,,,1890.1483680000529,1890.1628840001067,1890.1628840001067,1890.6462363000028,1890.6628796000728,1893.1462187001016,1893.1464313000904,None,1.0,,,,,,,,,,,,,,,,,,,,,,,,,,,,,,,,,,,,,,,,,,,,nback66,1.0,2024-01-22_14h24.06.691,untitled,2023.2.3,60.01529187307531,2024-01-22 14h43.23.581149 -0500,
5.0,"[0.2, 0.1]",None,0.0,37.0,37.0,37.0,,,,,,,,,1893.1627904000925,,,,,,,,,,,,,,,,,,,,,,,,,,,,1893.1471857000145,1893.1627904000925,1893.1627904000925,1893.6461328000296,1893.6628703000024,1896.1461300000085,1896.1463016000343,None,1.0,,,,,,,,,,,,,,,,,,,,,,,,,,,,,,,,,,,,,,,,,,,,nback66,1.0,2024-01-22_14h24.06.691,untitled,2023.2.3,60.01529187307531,2024-01-22 14h43.23.581149 -0500,
6.0,"[-0.3, 0]",None,0.0,38.0,38.0,38.0,,,,,,,,,1896.162795400014,,,,,,,,,,,,,,,,,,,,,,,,,,,,1896.1470849000616,1896.162795400014,1896.162795400014,1896.6459103000816,1896.6627994000448,1899.1460105000297,1899.1462029000977,None,1.0,,,,,,,,,,,,,,,,,,,,,,,,,,,,,,,,,,,,,,,,,,,,nback66,1.0,2024-01-22_14h24.06.691,untitled,2023.2.3,60.01529187307531,2024-01-22 14h43.23.581149 -0500,
11.0,"[-0.64, -0.4]",space,0.0,39.0,39.0,39.0,,,,,,,,,1899.1628432000289,,,,,,,,,,,,,,,,,,,,,,,,,,,,1899.1469180000715,1899.1628432000289,1899.1628432000289,1899.6460450000595,1899.6626708999972,1902.1459273000944,1902.1460860000225,space,1.0,0.332363500026986,None,,,,,,,,,,,,,,,,,,,,,,,,,,,,,,,,,,,,,,,,,,nback66,1.0,2024-01-22_14h24.06.691,untitled,2023.2.3,60.01529187307531,2024-01-22 14h43.23.581149 -0500,
,,,,,,,,,,,,,,,,,,,,,,,,,,,,,,,,,,,,,,,,,,,,,,,,,,,,,,1902.1466741000768,1902.1627231000457,1902.1627231000457,1929.497032900108,space,27.327979500056244,None,,,,,,,,,,,,,,,,,,,,,,,,,,,,,,,,,,,nback66,1.0,2024-01-22_14h24.06.691,untitled,2023.2.3,60.01529187307531,2024-01-22 14h43.23.581149 -0500,
10.0,"[0, -0.2]",None,,,,,0.0,0.0,0.0,0.0,,,,,1930.5138738000533,,,,,,,,,,,,,,,,,,,,,,,,1929.4970734000672,1929.512215900002,1930.5138738000533,1930.496138400049,,,,,,,,,,,,,,,,,,,1930.5119322000537,1930.5138738000533,1930.5138738000533,1931.012090100092,1931.0289009000408,1933.5122135001,1933.5124326000223,None,1.0,,,,,,,,,,,,,,,,,,,,,,,,,,nback66,1.0,2024-01-22_14h24.06.691,untitled,2023.2.3,60.01529187307531,2024-01-22 14h43.23.581149 -0500,
5.0,"[0.2, 0.1]",None,,,,,0.0,1.0,1.0,1.0,,,,,1933.5289534000915,,,,,,,,,,,,,,,,,,,,,,,,,,,,,,,,,,,,,,,,,,,,,,1933.5134609000525,1933.5289534000915,1933.5289534000915,1934.0121876000196,1934.028834800003,1936.5121338000756,1936.5123123000376,None,1.0,,,,,,,,,,,,,,,,,,,,,,,,,,nback66,1.0,2024-01-22_14h24.06.691,untitled,2023.2.3,60.01529187307531,2024-01-22 14h43.23.581149 -0500,
6.0,"[-0.3, 0]",None,,,,,0.0,2.0,2.0,2.0,,,,,1936.528628900065,,,,,,,,,,,,,,,,,,,,,,,,,,,,,,,,,,,,,,,,,,,,,,1936.5129820000147,1936.528628900065,1936.528628900065,1937.0121145000448,1937.0288288000736,1939.5121235999975,1939.5123059001053,None,1.0,,,,,,,,,,,,,,,,,,,,,,,,,,nback66,1.0,2024-01-22_14h24.06.691,untitled,2023.2.3,60.01529187307531,2024-01-22 14h43.23.581149 -0500,
6.0,"[-0.3, 0]",space,,,,,0.0,3.0,3.0,3.0,,,,,1939.5288328001045,,,,,,,,,,,,,,,,,,,,,,,,,,,,,,,,,,,,,,,,,,,,,,1939.5130534000928,1939.5288328001045,1939.5288328001045,1940.0122131000967,1940.0288200000068,1942.5119696001057,1942.512169200112,space,1.0,0.6972397000063211,None,,,,,,,,,,,,,,,,,,,,,,,,nback66,1.0,2024-01-22_14h24.06.691,untitled,2023.2.3,60.01529187307531,2024-01-22 14h43.23.581149 -0500,
12.0,"[0.64, -0.4]",None,,,,,0.0,4.0,4.0,4.0,,,,,1942.5286782000912,,,,,,,,,,,,,,,,,,,,,,,,,,,,,,,,,,,,,,,,,,,,,,1942.5133215000387,1942.5286782000912,1942.5286782000912,1943.011904500076,1943.0286662,1945.5120475000003,1945.5122484000167,None,1.0,,,,,,,,,,,,,,,,,,,,,,,,,,nback66,1.0,2024-01-22_14h24.06.691,untitled,2023.2.3,60.01529187307531,2024-01-22 14h43.23.581149 -0500,
10.0,"[0, -0.2]",None,,,,,0.0,5.0,5.0,5.0,,,,,1945.528596100048,,,,,,,,,,,,,,,,,,,,,,,,,,,,,,,,,,,,,,,,,,,,,,1945.513028300018,1945.528596100048,1945.528596100048,1946.011964000063,1946.028548500035,1948.5119139000308,1948.512118200073,space,0.0,0.773314299993217,None,,,,,,,,,,,,,,,,,,,,,,,,nback66,1.0,2024-01-22_14h24.06.691,untitled,2023.2.3,60.01529187307531,2024-01-22 14h43.23.581149 -0500,
2.0,"[0.64, 0.4]",None,,,,,0.0,6.0,6.0,6.0,,,,,1948.528543399996,,,,,,,,,,,,,,,,,,,,,,,,,,,,,,,,,,,,,,,,,,,,,,1948.5130353000716,1948.528543399996,1948.528543399996,1949.011940299999,1949.0284070000048,1951.5118196000112,1951.512010000064,None,1.0,,,,,,,,,,,,,,,,,,,,,,,,,,nback66,1.0,2024-01-22_14h24.06.691,untitled,2023.2.3,60.01529187307531,2024-01-22 14h43.23.581149 -0500,
9.0,"[0.2, -0.1]",None,,,,,0.0,7.0,7.0,7.0,,,,,1951.528369900072,,,,,,,,,,,,,,,,,,,,,,,,,,,,,,,,,,,,,,,,,,,,,,1951.5127542000264,1951.528369900072,1951.528369900072,1952.0117170000449,1952.02850460005,1954.511890400085,1954.5120597000928,None,1.0,,,,,,,,,,,,,,,,,,,,,,,,,,nback66,1.0,2024-01-22_14h24.06.691,untitled,2023.2.3,60.01529187307531,2024-01-22 14h43.23.581149 -0500,
9.0,"[0.2, -0.1]",space,,,,,0.0,8.0,8.0,8.0,,,,,1954.5284694000147,,,,,,,,,,,,,,,,,,,,,,,,,,,,,,,,,,,,,,,,,,,,,,1954.5127033001045,1954.5284694000147,1954.5284694000147,1955.0116422000572,1955.0285135000013,1957.511737700086,1957.5119259000055,space,1.0,0.492134099942632,None,,,,,,,,,,,,,,,,,,,,,,,,nback66,1.0,2024-01-22_14h24.06.691,untitled,2023.2.3,60.01529187307531,2024-01-22 14h43.23.581149 -0500,
6.0,"[-0.3, 0]",None,,,,,0.0,9.0,9.0,9.0,,,,,1957.528370400076,,,,,,,,,,,,,,,,,,,,,,,,,,,,,,,,,,,,,,,,,,,,,,1957.513029100024,1957.528370400076,1957.528370400076,1958.011684200028,1958.028451799997,1960.5116302000824,1960.511820200016,None,1.0,,,,,,,,,,,,,,,,,,,,,,,,,,nback66,1.0,2024-01-22_14h24.06.691,untitled,2023.2.3,60.01529187307531,2024-01-22 14h43.23.581149 -0500,
11.0,"[-0.64, -0.4]",None,,,,,0.0,10.0,10.0,10.0,,,,,1960.5284953000955,,,,,,,,,,,,,,,,,,,,,,,,,,,,,,,,,,,,,,,,,,,,,,1960.512577200076,1960.5284953000955,1960.5284953000955,1961.01168580004,1961.02841420006,1963.5116033001104,1963.5117913000288,None,1.0,,,,,,,,,,,,,,,,,,,,,,,,,,nback66,1.0,2024-01-22_14h24.06.691,untitled,2023.2.3,60.01529187307531,2024-01-22 14h43.23.581149 -0500,
11.0,"[-0.64, -0.4]",space,,,,,0.0,11.0,11.0,11.0,,,,,1963.528354100068,,,,,,,,,,,,,,,,,,,,,,,,,,,,,,,,,,,,,,,,,,,,,,1963.51255330001,1963.528354100068,1963.528354100068,1964.011654100032,1964.028195400024,1966.511528200004,1966.5117282000135,space,1.0,0.4473146999953314,None,,,,,,,,,,,,,,,,,,,,,,,,nback66,1.0,2024-01-22_14h24.06.691,untitled,2023.2.3,60.01529187307531,2024-01-22 14h43.23.581149 -0500,
4.0,"[-0.2, 0.1]",None,,,,,0.0,12.0,12.0,12.0,,,,,1966.528372000088,,,,,,,,,,,,,,,,,,,,,,,,,,,,,,,,,,,,,,,,,,,,,,1966.5126381000737,1966.528372000088,1966.528372000088,1967.011496799998,1967.028255800018,1969.511525100097,1969.511709600105,None,1.0,,,,,,,,,,,,,,,,,,,,,,,,,,nback66,1.0,2024-01-22_14h24.06.691,untitled,2023.2.3,60.01529187307531,2024-01-22 14h43.23.581149 -0500,
3.0,"[0, 0.2]",None,,,,,0.0,13.0,13.0,13.0,,,,,1969.52805120009,,,,,,,,,,,,,,,,,,,,,,,,,,,,,,,,,,,,,,,,,,,,,,1969.512410600088,1969.52805120009,1969.52805120009,1970.0113824000584,1970.028293600073,1972.5114263000432,1972.5116554000413,None,1.0,,,,,,,,,,,,,,,,,,,,,,,,,,nback66,1.0,2024-01-22_14h24.06.691,untitled,2023.2.3,60.01529187307531,2024-01-22 14h43.23.581149 -0500,
3.0,"[0, 0.2]",space,,,,,0.0,14.0,14.0,14.0,,,,,1972.5281194000272,,,,,,,,,,,,,,,,,,,,,,,,,,,,,,,,,,,,,,,,,,,,,,1972.5124247000783,1972.5281194000272,1972.5281194000272,1973.011396900052,1973.0280720000155,1975.5114952001024,1975.511775500025,space,1.0,1.5402774999383837,None,,,,,,,,,,,,,,,,,,,,,,,,nback66,1.0,2024-01-22_14h24.06.691,untitled,2023.2.3,60.01529187307531,2024-01-22 14h43.23.581149 -0500,
8.0,"[-0.2, -0.1]",None,,,,,0.0,15.0,15.0,15.0,,,,,1975.5278673000869,,,,,,,,,,,,,,,,,,,,,,,,,,,,,,,,,,,,,,,,,,,,,,1975.512796199997,1975.5278673000869,1975.5278673000869,1976.0112773000728,1976.028096400085,1978.5114539000208,1978.511666800012,None,1.0,,,,,,,,,,,,,,,,,,,,,,,,,,nback66,1.0,2024-01-22_14h24.06.691,untitled,2023.2.3,60.01529187307531,2024-01-22 14h43.23.581149 -0500,
1.0,"[-0.64, 0.4]",None,,,,,0.0,16.0,16.0,16.0,,,,,1978.528038800112,,,,,,,,,,,,,,,,,,,,,,,,,,,,,,,,,,,,,,,,,,,,,,1978.512517800089,1978.528038800112,1978.528038800112,1979.0114198001104,1979.027996800025,1981.5114312000808,1981.5116448000767,None,1.0,,,,,,,,,,,,,,,,,,,,,,,,,,nback66,1.0,2024-01-22_14h24.06.691,untitled,2023.2.3,60.01529187307531,2024-01-22 14h43.23.581149 -0500,
2.0,"[0.64, 0.4]",None,,,,,0.0,17.0,17.0,17.0,,,,,1981.5279185000109,,,,,,,,,,,,,,,,,,,,,,,,,,,,,,,,,,,,,,,,,,,,,,1981.512466300046,1981.5279185000109,1981.5279185000109,1982.0115088000891,1982.0280712000092,1984.5111740001007,1984.5114659999963,None,1.0,,,,,,,,,,,,,,,,,,,,,,,,,,nback66,1.0,2024-01-22_14h24.06.691,untitled,2023.2.3,60.01529187307531,2024-01-22 14h43.23.581149 -0500,
4.0,"[-0.2, 0.1]",None,,,,,0.0,18.0,18.0,18.0,,,,,1984.5279053000268,,,,,,,,,,,,,,,,,,,,,,,,,,,,,,,,,,,,,,,,,,,,,,1984.5123198000947,1984.5279053000268,1984.5279053000268,1985.011286300025,1985.027985200053,1987.511374499998,1987.5115769000256,None,1.0,,,,,,,,,,,,,,,,,,,,,,,,,,nback66,1.0,2024-01-22_14h24.06.691,untitled,2023.2.3,60.01529187307531,2024-01-22 14h43.23.581149 -0500,
4.0,"[-0.2, 0.1]",space,,,,,0.0,19.0,19.0,19.0,,,,,1987.5278541001023,,,,,,,,,,,,,,,,,,,,,,,,,,,,,,,,,,,,,,,,,,,,,,1987.512378100073,1987.5278541001023,1987.5278541001023,1988.0111411000837,1988.027784600039,1990.511045900057,1990.511235400103,space,1.0,0.4031074000522494,None,,,,,,,,,,,,,,,,,,,,,,,,nback66,1.0,2024-01-22_14h24.06.691,untitled,2023.2.3,60.01529187307531,2024-01-22 14h43.23.581149 -0500,
8.0,"[-0.2, -0.1]",None,,,,,0.0,20.0,20.0,20.0,,,,,1990.527911500074,,,,,,,,,,,,,,,,,,,,,,,,,,,,,,,,,,,,,,,,,,,,,,1990.5121624000603,1990.527911500074,1990.527911500074,1991.0111315000104,1991.027635900071,1993.511048000073,1993.5112374000016,None,1.0,,,,,,,,,,,,,,,,,,,,,,,,,,nback66,1.0,2024-01-22_14h24.06.691,untitled,2023.2.3,60.01529187307531,2024-01-22 14h43.23.581149 -0500,
5.0,"[0.2, 0.1]",None,,,,,0.0,21.0,21.0,21.0,,,,,1993.527801200049,,,,,,,,,,,,,,,,,,,,,,,,,,,,,,,,,,,,,,,,,,,,,,1993.5120085000528,1993.527801200049,1993.527801200049,1994.0110580000328,1994.0278151000384,1996.511093600071,1996.511309200083,None,1.0,,,,,,,,,,,,,,,,,,,,,,,,,,nback66,1.0,2024-01-22_14h24.06.691,untitled,2023.2.3,60.01529187307531,2024-01-22 14h43.23.581149 -0500,
5.0,"[0.2, 0.1]",space,,,,,0.0,22.0,22.0,22.0,,,,,1996.5278073000957,,,,,,,,,,,,,,,,,,,,,,,,,,,,,,,,,,,,,,,,,,,,,,1996.512174900039,1996.5278073000957,1996.5278073000957,1997.0110515001,1997.0277685000328,1999.5110117000293,1999.511181900045,None,0.0,,,,,,,,,,,,,,,,,,,,,,,,,,nback66,1.0,2024-01-22_14h24.06.691,untitled,2023.2.3,60.01529187307531,2024-01-22 14h43.23.581149 -0500,
1.0,"[-0.64, 0.4]",None,,,,,0.0,23.0,23.0,23.0,,,,,1999.5276510000692,,,,,,,,,,,,,,,,,,,,,,,,,,,,,,,,,,,,,,,,,,,,,,1999.5118530000327,1999.5276510000692,1999.5276510000692,2000.011119000032,2000.0277231000364,2002.510824500001,2002.5109699000604,None,1.0,,,,,,,,,,,,,,,,,,,,,,,,,,nback66,1.0,2024-01-22_14h24.06.691,untitled,2023.2.3,60.01529187307531,2024-01-22 14h43.23.581149 -0500,
3.0,"[0, 0.2]",None,,,,,0.0,24.0,24.0,24.0,,,,,2002.527583900024,,,,,,,,,,,,,,,,,,,,,,,,,,,,,,,,,,,,,,,,,,,,,,2002.511500700028,2002.527583900024,2002.527583900024,2003.0109721000767,2003.0277939001096,2005.51082700002,2005.5110084000044,None,1.0,,,,,,,,,,,,,,,,,,,,,,,,,,nback66,1.0,2024-01-22_14h24.06.691,untitled,2023.2.3,60.01529187307531,2024-01-22 14h43.23.581149 -0500,
6.0,"[-0.3, 0]",None,,,,,0.0,25.0,25.0,25.0,,,,,2005.5274952000475,,,,,,,,,,,,,,,,,,,,,,,,,,,,,,,,,,,,,,,,,,,,,,2005.511750100064,2005.5274952000475,2005.5274952000475,2006.0108593000327,2006.0275244000368,2008.5108717000112,2008.511113200104,None,1.0,,,,,,,,,,,,,,,,,,,,,,,,,,nback66,1.0,2024-01-22_14h24.06.691,untitled,2023.2.3,60.01529187307531,2024-01-22 14h43.23.581149 -0500,
1.0,"[-0.64, 0.4]",None,,,,,0.0,26.0,26.0,26.0,,,,,2008.527515300084,,,,,,,,,,,,,,,,,,,,,,,,,,,,,,,,,,,,,,,,,,,,,,2008.5118075000355,2008.527515300084,2008.527515300084,2009.010790600092,2009.027573800064,2011.5107309001032,2011.5108729000203,None,1.0,,,,,,,,,,,,,,,,,,,,,,,,,,nback66,1.0,2024-01-22_14h24.06.691,untitled,2023.2.3,60.01529187307531,2024-01-22 14h43.23.581149 -0500,
1.0,"[-0.64, 0.4]",space,,,,,0.0,27.0,27.0,27.0,,,,,2011.5276504000649,,,,,,,,,,,,,,,,,,,,,,,,,,,,,,,,,,,,,,,,,,,,,,2011.5116662000075,2011.5276504000649,2011.5276504000649,2012.0107643000083,2012.027398300008,2014.51069070003,2014.5108886000237,space,1.0,0.9981189999962226,None,,,,,,,,,,,,,,,,,,,,,,,,nback66,1.0,2024-01-22_14h24.06.691,untitled,2023.2.3,60.01529187307531,2024-01-22 14h43.23.581149 -0500,
1.0,"[-0.64, 0.4]",space,,,,,0.0,28.0,28.0,28.0,,,,,2014.5273767000765,,,,,,,,,,,,,,,,,,,,,,,,,,,,,,,,,,,,,,,,,,,,,,2014.51179150003,2014.5273767000765,2014.5273767000765,2015.0105838000309,2015.027414900018,2017.5106582000155,2017.510852400097,space,1.0,0.7814247999340296,None,,,,,,,,,,,,,,,,,,,,,,,,nback66,1.0,2024-01-22_14h24.06.691,untitled,2023.2.3,60.01529187307531,2024-01-22 14h43.23.581149 -0500,
3.0,"[0, 0.2]",None,,,,,0.0,29.0,29.0,29.0,,,,,2017.5273890000533,,,,,,,,,,,,,,,,,,,,,,,,,,,,,,,,,,,,,,,,,,,,,,2017.5117968000704,2017.5273890000533,2017.5273890000533,2018.010699500097,2018.0272895001108,2020.5106396001063,2020.510834600078,None,1.0,,,,,,,,,,,,,,,,,,,,,,,,,,nback66,1.0,2024-01-22_14h24.06.691,untitled,2023.2.3,60.01529187307531,2024-01-22 14h43.23.581149 -0500,
12.0,"[0.64, -0.4]",None,,,,,0.0,30.0,30.0,30.0,,,,,2020.527214000001,,,,,,,,,,,,,,,,,,,,,,,,,,,,,,,,,,,,,,,,,,,,,,2020.5116275000616,2020.527214000001,2020.527214000001,2021.0106436000208,2021.027212300105,2023.5105204000135,2023.510667700088,None,1.0,,,,,,,,,,,,,,,,,,,,,,,,,,nback66,1.0,2024-01-22_14h24.06.691,untitled,2023.2.3,60.01529187307531,2024-01-22 14h43.23.581149 -0500,
12.0,"[0.64, -0.4]",space,,,,,0.0,31.0,31.0,31.0,,,,,2023.527233800036,,,,,,,,,,,,,,,,,,,,,,,,,,,,,,,,,,,,,,,,,,,,,,2023.5112960000988,2023.527233800036,2023.527233800036,2024.01059420011,2024.0271619000705,2026.5103485001016,2026.5105331001105,space,1.0,0.785882500000298,None,,,,,,,,,,,,,,,,,,,,,,,,nback66,1.0,2024-01-22_14h24.06.691,untitled,2023.2.3,60.01529187307531,2024-01-22 14h43.23.581149 -0500,
2.0,"[0.64, 0.4]",None,,,,,0.0,32.0,32.0,32.0,,,,,2026.5271112000337,,,,,,,,,,,,,,,,,,,,,,,,,,,,,,,,,,,,,,,,,,,,,,2026.5113716000924,2026.5271112000337,2026.5271112000337,2027.0103368000127,2027.0270855000708,2029.5105448000832,2029.510725100059,None,1.0,,,,,,,,,,,,,,,,,,,,,,,,,,nback66,1.0,2024-01-22_14h24.06.691,untitled,2023.2.3,60.01529187307531,2024-01-22 14h43.23.581149 -0500,
1.0,"[-0.64, 0.4]",None,,,,,0.0,33.0,33.0,33.0,,,,,2029.5270068000536,,,,,,,,,,,,,,,,,,,,,,,,,,,,,,,,,,,,,,,,,,,,,,2029.5114035001025,2029.5270068000536,2029.5270068000536,2030.010479500052,2030.0270102000795,2032.5105472001012,2032.5107506000204,None,1.0,,,,,,,,,,,,,,,,,,,,,,,,,,nback66,1.0,2024-01-22_14h24.06.691,untitled,2023.2.3,60.01529187307531,2024-01-22 14h43.23.581149 -0500,
7.0,"[0.3, 0]",None,,,,,0.0,34.0,34.0,34.0,,,,,2032.5271233000092,,,,,,,,,,,,,,,,,,,,,,,,,,,,,,,,,,,,,,,,,,,,,,2032.5116332001053,2032.5271233000092,2032.5271233000092,2033.0104019000428,2033.02696310007,2035.5103983000156,2035.5105848000385,None,1.0,,,,,,,,,,,,,,,,,,,,,,,,,,nback66,1.0,2024-01-22_14h24.06.691,untitled,2023.2.3,60.01529187307531,2024-01-22 14h43.23.581149 -0500,
7.0,"[0.3, 0]",space,,,,,0.0,35.0,35.0,35.0,,,,,2035.5270145001125,,,,,,,,,,,,,,,,,,,,,,,,,,,,,,,,,,,,,,,,,,,,,,2035.51137870003,2035.5270145001125,2035.5270145001125,2036.010357200052,2036.0269962000891,2038.5103291000703,2038.51052120002,space,1.0,0.541399700101465,None,,,,,,,,,,,,,,,,,,,,,,,,nback66,1.0,2024-01-22_14h24.06.691,untitled,2023.2.3,60.01529187307531,2024-01-22 14h43.23.581149 -0500,
11.0,"[-0.64, -0.4]",None,,,,,0.0,36.0,36.0,36.0,,,,,2038.527025700081,,,,,,,,,,,,,,,,,,,,,,,,,,,,,,,,,,,,,,,,,,,,,,2038.5115145000163,2038.527025700081,2038.527025700081,2039.010306300013,2039.026952000102,2041.510191700072,2041.5103769000848,None,1.0,,,,,,,,,,,,,,,,,,,,,,,,,,nback66,1.0,2024-01-22_14h24.06.691,untitled,2023.2.3,60.01529187307531,2024-01-22 14h43.23.581149 -0500,
2.0,"[0.64, 0.4]",None,,,,,0.0,37.0,37.0,37.0,,,,,2041.5268408000704,,,,,,,,,,,,,,,,,,,,,,,,,,,,,,,,,,,,,,,,,,,,,,2041.5110296000491,2041.5268408000704,2041.5268408000704,2042.0103394000323,2042.0268496000208,2044.510336700012,2044.510530800093,None,1.0,,,,,,,,,,,,,,,,,,,,,,,,,,nback66,1.0,2024-01-22_14h24.06.691,untitled,2023.2.3,60.01529187307531,2024-01-22 14h43.23.581149 -0500,
6.0,"[-0.3, 0]",None,,,,,0.0,38.0,38.0,38.0,,,,,2044.526954400004,,,,,,,,,,,,,,,,,,,,,,,,,,,,,,,,,,,,,,,,,,,,,,2044.5112825999968,2044.526954400004,2044.526954400004,2045.010256400099,2045.0267559000056,2047.510142700048,2047.510328800068,None,1.0,,,,,,,,,,,,,,,,,,,,,,,,,,nback66,1.0,2024-01-22_14h24.06.691,untitled,2023.2.3,60.01529187307531,2024-01-22 14h43.23.581149 -0500,
10.0,"[0, -0.2]",None,,,,,0.0,39.0,39.0,39.0,,,,,2047.526937500108,,,,,,,,,,,,,,,,,,,,,,,,,,,,,,,,,,,,,,,,,,,,,,2047.5110402000137,2047.526937500108,2047.526937500108,2048.009979600087,2048.0267475000583,2050.5101604000665,2050.5103531000204,None,1.0,,,,,,,,,,,,,,,,,,,,,,,,,,nback66,1.0,2024-01-22_14h24.06.691,untitled,2023.2.3,60.01529187307531,2024-01-22 14h43.23.581149 -0500,
,,,,,,,,,,,,,,,,,,,,,,,,,,,,,,,,,,,,,,,,,,,,,,,,,,,,,,,,,,,,,,,,,,,,,,,,2050.5109252000693,2050.526803500019,2050.526803500019,2063.943926200038,space,13.414009800064376,None,,,,,,,,,,,,,,,,,nback66,1.0,2024-01-22_14h24.06.691,untitled,2023.2.3,60.01529187307531,2024-01-22 14h43.23.581149 -0500,
,"[0.2, 0.1]",None,,,,,,,,,0.0,0.0,0.0,0.0,2064.9603126000147,,,,,,,,,,,,,,,,,,,,,,,,2063.9439466000767,2063.95972220006,2064.9603126000147,2064.943890399998,,,,,,,,,,,,,,,,,,,,,,,,,,,,,,,,,,,,,2064.958373100031,2064.9603126000147,2064.9603126000147,2065.4597550000763,2065.4597550000763,2067.959682600107,2067.959682600107,2067.944203700056,None,1.0,,,,,,,nback66,1.0,2024-01-22_14h24.06.691,untitled,2023.2.3,60.01529187307531,2024-01-22 14h43.23.581149 -0500,
,"[0.64, 0.4]",None,,,,,,,,,0.0,1.0,1.0,1.0,2067.959682600107,,,,,,,,,,,,,,,,,,,,,,,,,,,,,,,,,,,,,,,,,,,,,,,,,,,,,,,,,,,,,,,,2067.9452738000546,2067.959682600107,2067.959682600107,2068.459859600058,2068.443249000004,2070.943159100017,2070.959788300097,2070.9441347999964,None,1.0,,,,,,,nback66,1.0,2024-01-22_14h24.06.691,untitled,2023.2.3,60.01529187307531,2024-01-22 14h43.23.581149 -0500,
,"[-0.3, 0]",None,,,,,,,,,0.0,2.0,2.0,2.0,2070.959788300097,,,,,,,,,,,,,,,,,,,,,,,,,,,,,,,,,,,,,,,,,,,,,,,,,,,,,,,,,,,,,,,,2070.9449091000715,2070.959788300097,2070.959788300097,2071.459808500018,2071.44310220005,2073.9429187000496,2073.959865900106,2073.943896700046,None,1.0,,,,,,,nback66,1.0,2024-01-22_14h24.06.691,untitled,2023.2.3,60.01529187307531,2024-01-22 14h43.23.581149 -0500,
,"[0.2, -0.1]",None,,,,,,,,,0.0,3.0,3.0,3.0,2073.959865900106,,,,,,,,,,,,,,,,,,,,,,,,,,,,,,,,,,,,,,,,,,,,,,,,,,,,,,,,,,,,,,,,2073.9446682001,2073.959865900106,2073.959865900106,2074.4596965000965,2074.443003200111,2076.942936400068,2076.9595716000767,2076.9435659000883,None,1.0,,,,,,,nback66,1.0,2024-01-22_14h24.06.691,untitled,2023.2.3,60.01529187307531,2024-01-22 14h43.23.581149 -0500,
,"[0, 0.2]",None,,,,,,,,,0.0,4.0,4.0,4.0,2076.9595716000767,,,,,,,,,,,,,,,,,,,,,,,,,,,,,,,,,,,,,,,,,,,,,,,,,,,,,,,,,,,,,,,,2076.9441474000923,2076.9595716000767,2076.9595716000767,2077.45961660007,2077.443057900062,2079.9428247000324,2079.959581000032,2079.943625300075,None,1.0,,,,,,,nback66,1.0,2024-01-22_14h24.06.691,untitled,2023.2.3,60.01529187307531,2024-01-22 14h43.23.581149 -0500,
,"[0.2, -0.1]",space,,,,,,,,,0.0,5.0,5.0,5.0,2079.959581000032,,,,,,,,,,,,,,,,,,,,,,,,,,,,,,,,,,,,,,,,,,,,,,,,,,,,,,,,,,,,,,,,2079.944367700024,2079.959581000032,2079.959581000032,2080.459837900009,2080.459837900009,2082.959469499998,2082.959469499998,2082.9438239000738,space,1.0,0.7289609999861568,None,,,,,nback66,1.0,2024-01-22_14h24.06.691,untitled,2023.2.3,60.01529187307531,2024-01-22 14h43.23.581149 -0500,
,"[0, -0.2]",None,,,,,,,,,0.0,6.0,6.0,6.0,2082.959469499998,,,,,,,,,,,,,,,,,,,,,,,,,,,,,,,,,,,,,,,,,,,,,,,,,,,,,,,,,,,,,,,,2082.9448371001054,2082.959469499998,2082.959469499998,2083.4596546000103,2083.4429367000703,2085.942756200093,2085.959618400084,2085.943776900065,None,1.0,,,,,,,nback66,1.0,2024-01-22_14h24.06.691,untitled,2023.2.3,60.01529187307531,2024-01-22 14h43.23.581149 -0500,
,"[0.64, -0.4]",None,,,,,,,,,0.0,7.0,7.0,7.0,2085.959618400084,,,,,,,,,,,,,,,,,,,,,,,,,,,,,,,,,,,,,,,,,,,,,,,,,,,,,,,,,,,,,,,,2085.9446365000917,2085.959618400084,2085.959618400084,2086.459672900033,2086.4429312000284,2088.9426684000064,2088.959564800025,2088.9436533000558,None,1.0,,,,,,,nback66,1.0,2024-01-22_14h24.06.691,untitled,2023.2.3,60.01529187307531,2024-01-22 14h43.23.581149 -0500,
,"[0.3, 0]",None,,,,,,,,,0.0,8.0,8.0,8.0,2088.959564800025,,,,,,,,,,,,,,,,,,,,,,,,,,,,,,,,,,,,,,,,,,,,,,,,,,,,,,,,,,,,,,,,2088.944492300041,2088.959564800025,2088.959564800025,2089.4593134000897,2089.4593134000897,2091.9592714000028,2091.9592714000028,2091.9435558000114,None,1.0,,,,,,,nback66,1.0,2024-01-22_14h24.06.691,untitled,2023.2.3,60.01529187307531,2024-01-22 14h43.23.581149 -0500,
,"[0.64, -0.4]",space,,,,,,,,,0.0,9.0,9.0,9.0,2091.9592714000028,,,,,,,,,,,,,,,,,,,,,,,,,,,,,,,,,,,,,,,,,,,,,,,,,,,,,,,,,,,,,,,,2091.94421430002,2091.9592714000028,2091.9592714000028,2092.459304900025,2092.459304900025,2094.959340700065,2094.959340700065,2094.943394500064,space,1.0,0.88361540006008,None,,,,,nback66,1.0,2024-01-22_14h24.06.691,untitled,2023.2.3,60.01529187307531,2024-01-22 14h43.23.581149 -0500,
,"[-0.64, 0.4]",None,,,,,,,,,0.0,10.0,10.0,10.0,2094.959340700065,,,,,,,,,,,,,,,,,,,,,,,,,,,,,,,,,,,,,,,,,,,,,,,,,,,,,,,,,,,,,,,,2094.94415840006,2094.959340700065,2094.959340700065,2095.4593322,2095.4593322,2097.959344400093,2097.959344400093,2097.943594600074,None,1.0,,,,,,,nback66,1.0,2024-01-22_14h24.06.691,untitled,2023.2.3,60.01529187307531,2024-01-22 14h43.23.581149 -0500,
,"[0.2, 0.1]",None,,,,,,,,,0.0,11.0,11.0,11.0,2097.959344400093,,,,,,,,,,,,,,,,,,,,,,,,,,,,,,,,,,,,,,,,,,,,,,,,,,,,,,,,,,,,,,,,2097.9444261000026,2097.959344400093,2097.959344400093,2098.459304000018,2098.459304000018,2100.9591991000343,2100.9591991000343,2100.943546500057,None,1.0,,,,,,,nback66,1.0,2024-01-22_14h24.06.691,untitled,2023.2.3,60.01529187307531,2024-01-22 14h43.23.581149 -0500,
,"[0.3, 0]",None,,,,,,,,,0.0,12.0,12.0,12.0,2100.9591991000343,,,,,,,,,,,,,,,,,,,,,,,,,,,,,,,,,,,,,,,,,,,,,,,,,,,,,,,,,,,,,,,,2100.944377600099,2100.9591991000343,2100.9591991000343,2101.459151200019,2101.459151200019,2103.959058700013,2103.959058700013,2103.943261300097,None,1.0,,,,,,,nback66,1.0,2024-01-22_14h24.06.691,untitled,2023.2.3,60.01529187307531,2024-01-22 14h43.23.581149 -0500,
,"[0.2, 0.1]",space,,,,,,,,,0.0,13.0,13.0,13.0,2103.959058700013,,,,,,,,,,,,,,,,,,,,,,,,,,,,,,,,,,,,,,,,,,,,,,,,,,,,,,,,,,,,,,,,2103.9439582000487,2103.959058700013,2103.959058700013,2104.4591390000423,2104.4591390000423,2106.959037400084,2106.959037400084,2106.943156100111,space,1.0,0.3861351000377908,None,,,,,nback66,1.0,2024-01-22_14h24.06.691,untitled,2023.2.3,60.01529187307531,2024-01-22 14h43.23.581149 -0500,
,"[-0.3, 0]",None,,,,,,,,,0.0,14.0,14.0,14.0,2106.959037400084,,,,,,,,,,,,,,,,,,,,,,,,,,,,,,,,,,,,,,,,,,,,,,,,,,,,,,,,,,,,,,,,2106.944058699999,2106.959037400084,2106.959037400084,2107.459166400018,2107.459166400018,2109.959080700064,2109.959080700064,2109.943149800063,None,1.0,,,,,,,nback66,1.0,2024-01-22_14h24.06.691,untitled,2023.2.3,60.01529187307531,2024-01-22 14h43.23.581149 -0500,
,"[0, 0.2]",None,,,,,,,,,0.0,15.0,15.0,15.0,2109.959080700064,,,,,,,,,,,,,,,,,,,,,,,,,,,,,,,,,,,,,,,,,,,,,,,,,,,,,,,,,,,,,,,,2109.943742500036,2109.959080700064,2109.959080700064,2110.459046400036,2110.459046400036,2112.958876700024,2112.958876700024,2112.9426695000147,None,1.0,,,,,,,nback66,1.0,2024-01-22_14h24.06.691,untitled,2023.2.3,60.01529187307531,2024-01-22 14h43.23.581149 -0500,
,"[-0.3, 0]",space,,,,,,,,,0.0,16.0,16.0,16.0,2112.958876700024,,,,,,,,,,,,,,,,,,,,,,,,,,,,,,,,,,,,,,,,,,,,,,,,,,,,,,,,,,,,,,,,2112.94299390004,2112.958876700024,2112.958876700024,2113.458930400084,2113.458930400084,2115.958907500026,2115.958907500026,2115.9430345,space,1.0,1.5595647000009194,None,,,,,nback66,1.0,2024-01-22_14h24.06.691,untitled,2023.2.3,60.01529187307531,2024-01-22 14h43.23.581149 -0500,
,"[-0.64, -0.4]",None,,,,,,,,,0.0,17.0,17.0,17.0,2115.958907500026,,,,,,,,,,,,,,,,,,,,,,,,,,,,,,,,,,,,,,,,,,,,,,,,,,,,,,,,,,,,,,,,2115.9438016000204,2115.958907500026,2115.958907500026,2116.458979300107,2116.458979300107,2118.95888010005,2118.95888010005,2118.942742500105,None,1.0,,,,,,,nback66,1.0,2024-01-22_14h24.06.691,untitled,2023.2.3,60.01529187307531,2024-01-22 14h43.23.581149 -0500,
,"[-0.2, -0.1]",None,,,,,,,,,0.0,18.0,18.0,18.0,2118.95888010005,,,,,,,,,,,,,,,,,,,,,,,,,,,,,,,,,,,,,,,,,,,,,,,,,,,,,,,,,,,,,,,,2118.9434219000395,2118.95888010005,2118.95888010005,2119.4588504000567,2119.4588504000567,2121.958918700111,2121.958918700111,2121.9429392000893,None,1.0,,,,,,,nback66,1.0,2024-01-22_14h24.06.691,untitled,2023.2.3,60.01529187307531,2024-01-22 14h43.23.581149 -0500,
,"[0.2, -0.1]",None,,,,,,,,,0.0,19.0,19.0,19.0,2121.958918700111,,,,,,,,,,,,,,,,,,,,,,,,,,,,,,,,,,,,,,,,,,,,,,,,,,,,,,,,,,,,,,,,2121.94352900004,2121.958918700111,2121.958918700111,2122.4587926000822,2122.4587926000822,2124.958774500061,2124.958774500061,2124.9429046000587,None,1.0,,,,,,,nback66,1.0,2024-01-22_14h24.06.691,untitled,2023.2.3,60.01529187307531,2024-01-22 14h43.23.581149 -0500,
,"[0.2, -0.1]",None,,,,,,,,,0.0,20.0,20.0,20.0,2124.958774500061,,,,,,,,,,,,,,,,,,,,,,,,,,,,,,,,,,,,,,,,,,,,,,,,,,,,,,,,,,,,,,,,2124.943575400044,2124.958774500061,2124.958774500061,2125.458888399997,2125.458888399997,2127.9588306000223,2127.9588306000223,2127.9430394000374,None,1.0,,,,,,,nback66,1.0,2024-01-22_14h24.06.691,untitled,2023.2.3,60.01529187307531,2024-01-22 14h43.23.581149 -0500,
,"[-0.64, 0.4]",None,,,,,,,,,0.0,21.0,21.0,21.0,2127.9588306000223,,,,,,,,,,,,,,,,,,,,,,,,,,,,,,,,,,,,,,,,,,,,,,,,,,,,,,,,,,,,,,,,2127.943859699997,2127.9588306000223,2127.9588306000223,2128.458808100084,2128.458808100084,2130.958685000078,2130.958685000078,2130.9427596000023,None,1.0,,,,,,,nback66,1.0,2024-01-22_14h24.06.691,untitled,2023.2.3,60.01529187307531,2024-01-22 14h43.23.581149 -0500,
,"[0, 0.2]",None,,,,,,,,,0.0,22.0,22.0,22.0,2130.958685000078,,,,,,,,,,,,,,,,,,,,,,,,,,,,,,,,,,,,,,,,,,,,,,,,,,,,,,,,,,,,,,,,2130.9432462000987,2130.958685000078,2130.958685000078,2131.45874110004,2131.45874110004,2133.958587500034,2133.958587500034,2133.9430057000136,None,1.0,,,,,,,nback66,1.0,2024-01-22_14h24.06.691,untitled,2023.2.3,60.01529187307531,2024-01-22 14h43.23.581149 -0500,
,"[0.64, -0.4]",None,,,,,,,,,0.0,23.0,23.0,23.0,2133.958587500034,,,,,,,,,,,,,,,,,,,,,,,,,,,,,,,,,,,,,,,,,,,,,,,,,,,,,,,,,,,,,,,,2133.943787500029,2133.958587500034,2133.958587500034,2134.4587460000766,2134.4587460000766,2136.9585296000587,2136.9585296000587,2136.942714100005,None,1.0,,,,,,,nback66,1.0,2024-01-22_14h24.06.691,untitled,2023.2.3,60.01529187307531,2024-01-22 14h43.23.581149 -0500,
,"[0, 0.2]",space,,,,,,,,,0.0,24.0,24.0,24.0,2136.9585296000587,,,,,,,,,,,,,,,,,,,,,,,,,,,,,,,,,,,,,,,,,,,,,,,,,,,,,,,,,,,,,,,,2136.943371000001,2136.9585296000587,2136.9585296000587,2137.458780300105,2137.458780300105,2139.9585983,2139.9585983,2139.9426788000856,None,0.0,,,,,,,nback66,1.0,2024-01-22_14h24.06.691,untitled,2023.2.3,60.01529187307531,2024-01-22 14h43.23.581149 -0500,
,"[-0.2, 0.1]",None,,,,,,,,,0.0,25.0,25.0,25.0,2139.9585983,,,,,,,,,,,,,,,,,,,,,,,,,,,,,,,,,,,,,,,,,,,,,,,,,,,,,,,,,,,,,,,,2139.94342330005,2139.9585983,2139.9585983,2140.4584944000235,2140.4584944000235,2142.95871190005,2142.95871190005,2142.9426241000183,None,1.0,,,,,,,nback66,1.0,2024-01-22_14h24.06.691,untitled,2023.2.3,60.01529187307531,2024-01-22 14h43.23.581149 -0500,
,"[0.3, 0]",None,,,,,,,,,0.0,26.0,26.0,26.0,2142.95871190005,,,,,,,,,,,,,,,,,,,,,,,,,,,,,,,,,,,,,,,,,,,,,,,,,,,,,,,,,,,,,,,,2142.9434327000054,2142.95871190005,2142.95871190005,2143.45840220002,2143.45840220002,2145.958298300044,2145.958298300044,2145.9422224001028,None,1.0,,,,,,,nback66,1.0,2024-01-22_14h24.06.691,untitled,2023.2.3,60.01529187307531,2024-01-22 14h43.23.581149 -0500,
,"[-0.2, 0.1]",space,,,,,,,,,0.0,27.0,27.0,27.0,2145.958298300044,,,,,,,,,,,,,,,,,,,,,,,,,,,,,,,,,,,,,,,,,,,,,,,,,,,,,,,,,,,,,,,,2145.9426543000154,2145.958298300044,2145.958298300044,2146.4584909999976,2146.4584909999976,2148.958381100092,2148.958381100092,2148.94258240005,space,1.0,0.4241082000080496,None,,,,,nback66,1.0,2024-01-22_14h24.06.691,untitled,2023.2.3,60.01529187307531,2024-01-22 14h43.23.581149 -0500,
,"[-0.2, 0.1]",None,,,,,,,,,0.0,28.0,28.0,28.0,2148.958381100092,,,,,,,,,,,,,,,,,,,,,,,,,,,,,,,,,,,,,,,,,,,,,,,,,,,,,,,,,,,,,,,,2148.943404700025,2148.958381100092,2148.958381100092,2149.458370000008,2149.458370000008,2151.9582413000758,2151.9582413000758,2151.942556000082,None,1.0,,,,,,,nback66,1.0,2024-01-22_14h24.06.691,untitled,2023.2.3,60.01529187307531,2024-01-22 14h43.23.581149 -0500,
,"[0.2, 0.1]",None,,,,,,,,,0.0,29.0,29.0,29.0,2151.9582413000758,,,,,,,,,,,,,,,,,,,,,,,,,,,,,,,,,,,,,,,,,,,,,,,,,,,,,,,,,,,,,,,,2151.9433242001105,2151.9582413000758,2151.9582413000758,2152.458237700048,2152.458237700048,2154.9582110000774,2154.9582110000774,2154.9425599001115,None,1.0,,,,,,,nback66,1.0,2024-01-22_14h24.06.691,untitled,2023.2.3,60.01529187307531,2024-01-22 14h43.23.581149 -0500,
,"[-0.64, -0.4]",None,,,,,,,,,0.0,30.0,30.0,30.0,2154.9582110000774,,,,,,,,,,,,,,,,,,,,,,,,,,,,,,,,,,,,,,,,,,,,,,,,,,,,,,,,,,,,,,,,2154.943367600092,2154.9582110000774,2154.9582110000774,2155.458363200072,2155.458363200072,2157.9582690000534,2157.9582690000534,2157.942331700004,None,1.0,,,,,,,nback66,1.0,2024-01-22_14h24.06.691,untitled,2023.2.3,60.01529187307531,2024-01-22 14h43.23.581149 -0500,
,"[0, -0.2]",None,,,,,,,,,0.0,31.0,31.0,31.0,2157.9582690000534,,,,,,,,,,,,,,,,,,,,,,,,,,,,,,,,,,,,,,,,,,,,,,,,,,,,,,,,,,,,,,,,2157.942947200034,2157.9582690000534,2157.9582690000534,2158.458215000108,2158.458215000108,2160.9583079000004,2160.9583079000004,2160.9424233000027,None,1.0,,,,,,,nback66,1.0,2024-01-22_14h24.06.691,untitled,2023.2.3,60.01529187307531,2024-01-22 14h43.23.581149 -0500,
,"[-0.64, -0.4]",space,,,,,,,,,0.0,32.0,32.0,32.0,2160.9583079000004,,,,,,,,,,,,,,,,,,,,,,,,,,,,,,,,,,,,,,,,,,,,,,,,,,,,,,,,,,,,,,,,2160.943233099999,2160.9583079000004,2160.9583079000004,2161.4582880000817,2161.4582880000817,2163.958200100111,2163.958200100111,2163.942398700048,space,1.0,0.8088173000141978,None,,,,,nback66,1.0,2024-01-22_14h24.06.691,untitled,2023.2.3,60.01529187307531,2024-01-22 14h43.23.581149 -0500,
,"[0.64, 0.4]",None,,,,,,,,,0.0,33.0,33.0,33.0,2163.958200100111,,,,,,,,,,,,,,,,,,,,,,,,,,,,,,,,,,,,,,,,,,,,,,,,,,,,,,,,,,,,,,,,2163.943219000008,2163.958200100111,2163.958200100111,2164.4581632000627,2164.4581632000627,2166.9582399000647,2166.9582399000647,2166.942512400099,None,1.0,,,,,,,nback66,1.0,2024-01-22_14h24.06.691,untitled,2023.2.3,60.01529187307531,2024-01-22 14h43.23.581149 -0500,
,"[-0.3, 0]",None,,,,,,,,,0.0,34.0,34.0,34.0,2166.9582399000647,,,,,,,,,,,,,,,,,,,,,,,,,,,,,,,,,,,,,,,,,,,,,,,,,,,,,,,,,,,,,,,,2166.9433541001054,2166.9582399000647,2166.9582399000647,2167.458261000109,2167.458261000109,2169.9579976000823,2169.9579976000823,2169.9423241000623,None,1.0,,,,,,,nback66,1.0,2024-01-22_14h24.06.691,untitled,2023.2.3,60.01529187307531,2024-01-22 14h43.23.581149 -0500,
,"[0.3, 0]",None,,,,,,,,,0.0,35.0,35.0,35.0,2169.9579976000823,,,,,,,,,,,,,,,,,,,,,,,,,,,,,,,,,,,,,,,,,,,,,,,,,,,,,,,,,,,,,,,,2169.9430415000534,2169.9579976000823,2169.9579976000823,2170.457745800028,2170.457745800028,2172.957858500071,2172.957858500071,2172.9423791000154,None,1.0,,,,,,,nback66,1.0,2024-01-22_14h24.06.691,untitled,2023.2.3,60.01529187307531,2024-01-22 14h43.23.581149 -0500,
,"[-0.3, 0]",space,,,,,,,,,0.0,36.0,36.0,36.0,2172.957858500071,,,,,,,,,,,,,,,,,,,,,,,,,,,,,,,,,,,,,,,,,,,,,,,,,,,,,,,,,,,,,,,,2172.9431811000686,2172.957858500071,2172.957858500071,2173.4579084001016,2173.4579084001016,2175.9577762000263,2175.9577762000263,2175.9419531000312,space,1.0,0.441805399954319,None,,,,,nback66,1.0,2024-01-22_14h24.06.691,untitled,2023.2.3,60.01529187307531,2024-01-22 14h43.23.581149 -0500,
,"[0, -0.2]",None,,,,,,,,,0.0,37.0,37.0,37.0,2175.9577762000263,,,,,,,,,,,,,,,,,,,,,,,,,,,,,,,,,,,,,,,,,,,,,,,,,,,,,,,,,,,,,,,,2175.942718300037,2175.9577762000263,2175.9577762000263,2176.457732300041,2176.457732300041,2178.957719600061,2178.957719600061,2178.9419837000314,None,1.0,,,,,,,nback66,1.0,2024-01-22_14h24.06.691,untitled,2023.2.3,60.01529187307531,2024-01-22 14h43.23.581149 -0500,
,"[0.3, 0]",None,,,,,,,,,0.0,38.0,38.0,38.0,2178.957719600061,,,,,,,,,,,,,,,,,,,,,,,,,,,,,,,,,,,,,,,,,,,,,,,,,,,,,,,,,,,,,,,,2178.9426200001035,2178.957719600061,2178.957719600061,2179.457804100006,2179.457804100006,2181.9580957000144,2181.9580957000144,2181.9422096000053,None,1.0,,,,,,,nback66,1.0,2024-01-22_14h24.06.691,untitled,2023.2.3,60.01529187307531,2024-01-22 14h43.23.581149 -0500,
,"[0.2, 0.1]",None,,,,,,,,,0.0,39.0,39.0,39.0,2181.9580957000144,,,,,,,,,,,,,,,,,,,,,,,,,,,,,,,,,,,,,,,,,,,,,,,,,,,,,,,,,,,,,,,,2181.943040400045,2181.9580957000144,2181.9580957000144,2182.457800900098,2182.457800900098,2184.957889900077,2184.957889900077,2184.942014300032,None,1.0,,,,,,,nback66,1.0,2024-01-22_14h24.06.691,untitled,2023.2.3,60.01529187307531,2024-01-22 14h43.23.581149 -0500,
,,,,,,,,,,,,,,,,,,,,,,,,,,,,,,,,,,,,,,,,,,,,,,,,,,,,,,,,,,,,,,,,,,,,,,,,,,,,,,,,,,,,,,,,,,,2184.9425413000863,2184.957889900077,2187.957583300071,2187.942138900049,,,,,,,,
