square,location,corrAns,trials_0.thisRepN,trials_0.thisTrialN,trials_0.thisN,trials_0.thisIndex,trials_1.thisRepN,trials_1.thisTrialN,trials_1.thisN,trials_1.thisIndex,trials_2.thisRepN,trials_2.thisTrialN,trials_2.thisN,trials_2.thisIndex,thisRow.t,notes,Instructions.started,instructions.started,key_resp.started,inst_sq11.started,Instructions.stopped,key_resp.keys,key_resp.rt,key_resp.duration,All.started,sq_1.started,sq_2.started,sq_3.started,sq_4.started,sq_5.started,sq_6.started,sq_7.started,sq_8.started,sq_9.started,sq_10.started,sq_11.started,sq_12.started,All.stopped,Fixation.started,fixation_3.started,fixation_3.stopped,Fixation.stopped,N_back_0_Trial.started,target_square_0.started,response_0.started,fixation_0.started,target_square_0.stopped,fixation_0.stopped,response_0.stopped,N_back_0_Trial.stopped,response_0.keys,response_0.corr,response_0.rt,response_0.duration,Instructions_1.started,instructions_1.started,key_resp_1.started,Instructions_1.stopped,key_resp_1.keys,key_resp_1.rt,key_resp_1.duration,N_back_1_Trial.started,target_square_1.started,response_1.started,target_square_1.stopped,fixation_1.started,fixation_1.stopped,response_1.stopped,N_back_1_Trial.stopped,response_1.keys,response_1.corr,response_1.rt,response_1.duration,Instructions_2.started,instructions_2.started,key_resp_2.started,Instructions_2.stopped,key_resp_2.keys,key_resp_2.rt,key_resp_2.duration,N_back_2_trials.started,target_square_2.started,response_2.started,target_square_2.stopped,fixation_2.started,fixation_2.stopped,response_2.stopped,N_back_2_trials.stopped,response_2.keys,response_2.corr,response_2.rt,response_2.duration,End.started,thank_you.started,thank_you.stopped,End.stopped,participant,session,date,expName,psychopyVersion,frameRate,expStart,Unnamed: 104
,,,,,,,,,,,,,,,,,0.0016329999780282,0.0041024999809451,0.0041024999809451,0.0041024999809451,588.7885540999705,space,588.7736262999824,None,,,,,,,,,,,,,,,,,,,,,,,,,,,,,,,,,,,,,,,,,,,,,,,,,,,,,,,,,,,,,,,,,,,,,,,,,nback41,1.0,2023-12-19_17h41.44.459,untitled,2023.2.3,60.00132002512176,2023-12-19 18h42.25.668772 -0500,
6.0,"[-0.3, 0]",None,0.0,0.0,0.0,0.0,,,,,,,,,590.8036141999764,,,,,,,,,,588.7885970000061,588.8037087999983,588.8037087999983,588.8037087999983,588.8037087999983,588.8037087999983,588.8037087999983,588.8037087999983,588.8037087999983,588.8037087999983,588.8037087999983,588.8037087999983,588.8037087999983,589.7879361999803,589.7879591999808,589.8040216999943,590.8036141999764,590.7876045999583,590.7984844999737,590.8036141999764,590.8036141999764,591.2870540999575,591.3038085000007,593.7872267999919,593.8038652999676,593.788156399969,None,1.0,,,,,,,,,,,,,,,,,,,,,,,,,,,,,,,,,,,,,,,,,,,,,nback41,1.0,2023-12-19_17h41.44.459,untitled,2023.2.3,60.00132002512176,2023-12-19 18h42.25.668772 -0500,
10.0,"[0, -0.2]",None,0.0,1.0,1.0,1.0,,,,,,,,,593.8038652999676,,,,,,,,,,,,,,,,,,,,,,,,,,,,593.7891558999545,593.8038652999676,593.8038652999676,594.2872837999603,594.3039074999979,596.7871378999553,596.8037995999912,596.7881315999548,None,1.0,,,,,,,,,,,,,,,,,,,,,,,,,,,,,,,,,,,,,,,,,,,,,nback41,1.0,2023-12-19_17h41.44.459,untitled,2023.2.3,60.00132002512176,2023-12-19 18h42.25.668772 -0500,
11.0,"[-0.64, -0.4]",space,0.0,2.0,2.0,2.0,,,,,,,,,596.8037995999912,,,,,,,,,,,,,,,,,,,,,,,,,,,,596.7889193999581,596.8037995999912,596.8037995999912,597.3038051999756,597.3038051999756,599.8035595999681,599.8035595999681,599.787663199997,space,1.0,0.5154122000094503,None,,,,,,,,,,,,,,,,,,,,,,,,,,,,,,,,,,,,,,,,,,,nback41,1.0,2023-12-19_17h41.44.459,untitled,2023.2.3,60.00132002512176,2023-12-19 18h42.25.668772 -0500,
12.0,"[0.64, -0.4]",None,0.0,3.0,3.0,3.0,,,,,,,,,599.8035595999681,,,,,,,,,,,,,,,,,,,,,,,,,,,,599.788487999991,599.8035595999681,599.8035595999681,600.303656700009,600.303656700009,602.8037180000101,602.8037180000101,602.7877623999957,None,1.0,,,,,,,,,,,,,,,,,,,,,,,,,,,,,,,,,,,,,,,,,,,,,nback41,1.0,2023-12-19_17h41.44.459,untitled,2023.2.3,60.00132002512176,2023-12-19 18h42.25.668772 -0500,
1.0,"[-0.64, 0.4]",None,0.0,4.0,4.0,4.0,,,,,,,,,602.8037180000101,,,,,,,,,,,,,,,,,,,,,,,,,,,,602.7883765999577,602.8037180000101,602.8037180000101,603.287177799968,603.3036953999544,605.7871998999617,605.8033477999852,605.7880677999929,None,1.0,,,,,,,,,,,,,,,,,,,,,,,,,,,,,,,,,,,,,,,,,,,,,nback41,1.0,2023-12-19_17h41.44.459,untitled,2023.2.3,60.00132002512176,2023-12-19 18h42.25.668772 -0500,
1.0,"[-0.64, 0.4]",None,0.0,5.0,5.0,5.0,,,,,,,,,605.8033477999852,,,,,,,,,,,,,,,,,,,,,,,,,,,,605.7887836999726,605.8033477999852,605.8033477999852,606.2869486999698,606.3035015999922,608.786861200002,608.8035276999581,608.7877566000097,None,1.0,,,,,,,,,,,,,,,,,,,,,,,,,,,,,,,,,,,,,,,,,,,,,nback41,1.0,2023-12-19_17h41.44.459,untitled,2023.2.3,60.00132002512176,2023-12-19 18h42.25.668772 -0500,
4.0,"[-0.2, 0.1]",None,0.0,6.0,6.0,6.0,,,,,,,,,608.8035276999581,,,,,,,,,,,,,,,,,,,,,,,,,,,,608.7884567999863,608.8035276999581,608.8035276999581,609.3036593999714,609.3036593999714,611.8033680999652,611.8033680999652,611.7874300999683,None,1.0,,,,,,,,,,,,,,,,,,,,,,,,,,,,,,,,,,,,,,,,,,,,,nback41,1.0,2023-12-19_17h41.44.459,untitled,2023.2.3,60.00132002512176,2023-12-19 18h42.25.668772 -0500,
5.0,"[0.2, 0.1]",None,0.0,7.0,7.0,7.0,,,,,,,,,611.8033680999652,,,,,,,,,,,,,,,,,,,,,,,,,,,,611.7879926000023,611.8033680999652,611.8033680999652,612.303481699957,612.303481699957,614.8034086999833,614.8034086999833,614.7874729000032,None,1.0,,,,,,,,,,,,,,,,,,,,,,,,,,,,,,,,,,,,,,,,,,,,,nback41,1.0,2023-12-19_17h41.44.459,untitled,2023.2.3,60.00132002512176,2023-12-19 18h42.25.668772 -0500,
11.0,"[-0.64, -0.4]",space,0.0,8.0,8.0,8.0,,,,,,,,,614.8034086999833,,,,,,,,,,,,,,,,,,,,,,,,,,,,614.7880774000078,614.8034086999833,614.8034086999833,615.3033599999617,615.3033599999617,617.8034437999595,617.8034437999595,617.7877411000081,space,1.0,0.5042155000264756,None,,,,,,,,,,,,,,,,,,,,,,,,,,,,,,,,,,,,,,,,,,,nback41,1.0,2023-12-19_17h41.44.459,untitled,2023.2.3,60.00132002512176,2023-12-19 18h42.25.668772 -0500,
9.0,"[0.2, -0.1]",None,0.0,9.0,9.0,9.0,,,,,,,,,617.8034437999595,,,,,,,,,,,,,,,,,,,,,,,,,,,,617.788572599995,617.8034437999595,617.8034437999595,618.3031920999638,618.3031920999638,620.8035211999668,620.8035211999668,620.7875738999574,None,1.0,,,,,,,,,,,,,,,,,,,,,,,,,,,,,,,,,,,,,,,,,,,,,nback41,1.0,2023-12-19_17h41.44.459,untitled,2023.2.3,60.00132002512176,2023-12-19 18h42.25.668772 -0500,
8.0,"[-0.2, -0.1]",None,0.0,10.0,10.0,10.0,,,,,,,,,620.8035211999668,,,,,,,,,,,,,,,,,,,,,,,,,,,,620.7882161999587,620.8035211999668,620.8035211999668,621.3034535999759,621.3034535999759,623.8033529999666,623.8033529999666,623.7875522999675,None,1.0,,,,,,,,,,,,,,,,,,,,,,,,,,,,,,,,,,,,,,,,,,,,,nback41,1.0,2023-12-19_17h41.44.459,untitled,2023.2.3,60.00132002512176,2023-12-19 18h42.25.668772 -0500,
9.0,"[0.2, -0.1]",None,0.0,11.0,11.0,11.0,,,,,,,,,623.8033529999666,,,,,,,,,,,,,,,,,,,,,,,,,,,,623.7882846999564,623.8033529999666,623.8033529999666,624.3037223999854,624.3037223999854,626.8030619999627,626.8030619999627,626.7874223999679,None,1.0,,,,,,,,,,,,,,,,,,,,,,,,,,,,,,,,,,,,,,,,,,,,,nback41,1.0,2023-12-19_17h41.44.459,untitled,2023.2.3,60.00132002512176,2023-12-19 18h42.25.668772 -0500,
6.0,"[-0.3, 0]",None,0.0,12.0,12.0,12.0,,,,,,,,,626.8030619999627,,,,,,,,,,,,,,,,,,,,,,,,,,,,626.7880210999865,626.8030619999627,626.8030619999627,627.3036114999559,627.3036114999559,629.8032435000059,629.8032435000059,629.7872459999635,None,1.0,,,,,,,,,,,,,,,,,,,,,,,,,,,,,,,,,,,,,,,,,,,,,nback41,1.0,2023-12-19_17h41.44.459,untitled,2023.2.3,60.00132002512176,2023-12-19 18h42.25.668772 -0500,
9.0,"[0.2, -0.1]",None,0.0,13.0,13.0,13.0,,,,,,,,,629.8032435000059,,,,,,,,,,,,,,,,,,,,,,,,,,,,629.7878552000038,629.8032435000059,629.8032435000059,630.3031985999551,630.3031985999551,632.8030440000002,632.8030440000002,632.7870267999824,None,1.0,,,,,,,,,,,,,,,,,,,,,,,,,,,,,,,,,,,,,,,,,,,,,nback41,1.0,2023-12-19_17h41.44.459,untitled,2023.2.3,60.00132002512176,2023-12-19 18h42.25.668772 -0500,
7.0,"[0.3, 0]",None,0.0,14.0,14.0,14.0,,,,,,,,,632.8030440000002,,,,,,,,,,,,,,,,,,,,,,,,,,,,632.7876401999965,632.8030440000002,632.8030440000002,633.3031521000084,633.3031521000084,635.8029679000028,635.8029679000028,635.7869952999754,None,1.0,,,,,,,,,,,,,,,,,,,,,,,,,,,,,,,,,,,,,,,,,,,,,nback41,1.0,2023-12-19_17h41.44.459,untitled,2023.2.3,60.00132002512176,2023-12-19 18h42.25.668772 -0500,
2.0,"[0.64, 0.4]",None,0.0,15.0,15.0,15.0,,,,,,,,,635.8029679000028,,,,,,,,,,,,,,,,,,,,,,,,,,,,635.7875402999925,635.8029679000028,635.8029679000028,636.3031004999648,636.3031004999648,638.8028825999936,638.8028825999936,638.7871949999826,None,1.0,,,,,,,,,,,,,,,,,,,,,,,,,,,,,,,,,,,,,,,,,,,,,nback41,1.0,2023-12-19_17h41.44.459,untitled,2023.2.3,60.00132002512176,2023-12-19 18h42.25.668772 -0500,
2.0,"[0.64, 0.4]",None,0.0,16.0,16.0,16.0,,,,,,,,,638.8028825999936,,,,,,,,,,,,,,,,,,,,,,,,,,,,638.787949999969,638.8028825999936,638.8028825999936,639.3029599000001,639.3029599000001,641.8027668999857,641.8027668999857,641.7870349999866,None,1.0,,,,,,,,,,,,,,,,,,,,,,,,,,,,,,,,,,,,,,,,,,,,,nback41,1.0,2023-12-19_17h41.44.459,untitled,2023.2.3,60.00132002512176,2023-12-19 18h42.25.668772 -0500,
11.0,"[-0.64, -0.4]",space,0.0,17.0,17.0,17.0,,,,,,,,,641.8027668999857,,,,,,,,,,,,,,,,,,,,,,,,,,,,641.7877131999703,641.8027668999857,641.8027668999857,642.3029077000101,642.3029077000101,644.8027792999637,644.8027792999637,644.7869106999715,space,1.0,0.3397499999846332,None,,,,,,,,,,,,,,,,,,,,,,,,,,,,,,,,,,,,,,,,,,,nback41,1.0,2023-12-19_17h41.44.459,untitled,2023.2.3,60.00132002512176,2023-12-19 18h42.25.668772 -0500,
11.0,"[-0.64, -0.4]",space,0.0,18.0,18.0,18.0,,,,,,,,,644.8027792999637,,,,,,,,,,,,,,,,,,,,,,,,,,,,644.7877305999864,644.8027792999637,644.8027792999637,645.3027253999608,645.3027253999608,647.8027648999705,647.8027648999705,647.7870390999597,space,1.0,0.6339090000255965,None,,,,,,,,,,,,,,,,,,,,,,,,,,,,,,,,,,,,,,,,,,,nback41,1.0,2023-12-19_17h41.44.459,untitled,2023.2.3,60.00132002512176,2023-12-19 18h42.25.668772 -0500,
7.0,"[0.3, 0]",None,0.0,19.0,19.0,19.0,,,,,,,,,647.8027648999705,,,,,,,,,,,,,,,,,,,,,,,,,,,,647.7878451999859,647.8027648999705,647.8027648999705,648.3029083999572,648.3029083999572,650.802723300003,650.802723300003,650.7867831999902,space,0.0,0.5108180000097491,None,,,,,,,,,,,,,,,,,,,,,,,,,,,,,,,,,,,,,,,,,,,nback41,1.0,2023-12-19_17h41.44.459,untitled,2023.2.3,60.00132002512176,2023-12-19 18h42.25.668772 -0500,
3.0,"[0, 0.2]",None,0.0,20.0,20.0,20.0,,,,,,,,,650.802723300003,,,,,,,,,,,,,,,,,,,,,,,,,,,,650.7874581000069,650.802723300003,650.802723300003,651.3027329999604,651.3027329999604,653.802608900005,653.802608900005,653.7866409999551,None,1.0,,,,,,,,,,,,,,,,,,,,,,,,,,,,,,,,,,,,,,,,,,,,,nback41,1.0,2023-12-19_17h41.44.459,untitled,2023.2.3,60.00132002512176,2023-12-19 18h42.25.668772 -0500,
10.0,"[0, -0.2]",None,0.0,21.0,21.0,21.0,,,,,,,,,653.802608900005,,,,,,,,,,,,,,,,,,,,,,,,,,,,653.7872635999811,653.802608900005,653.802608900005,654.3030549999676,654.3030549999676,656.8026638999581,656.8026638999581,656.7868981999927,None,1.0,,,,,,,,,,,,,,,,,,,,,,,,,,,,,,,,,,,,,,,,,,,,,nback41,1.0,2023-12-19_17h41.44.459,untitled,2023.2.3,60.00132002512176,2023-12-19 18h42.25.668772 -0500,
1.0,"[-0.64, 0.4]",None,0.0,22.0,22.0,22.0,,,,,,,,,656.8026638999581,,,,,,,,,,,,,,,,,,,,,,,,,,,,656.7875851999852,656.8026638999581,656.8026638999581,657.3028223000001,657.3028223000001,659.8026043999707,659.8026043999707,659.7867705000099,None,1.0,,,,,,,,,,,,,,,,,,,,,,,,,,,,,,,,,,,,,,,,,,,,,nback41,1.0,2023-12-19_17h41.44.459,untitled,2023.2.3,60.00132002512176,2023-12-19 18h42.25.668772 -0500,
2.0,"[0.64, 0.4]",None,0.0,23.0,23.0,23.0,,,,,,,,,659.8026043999707,,,,,,,,,,,,,,,,,,,,,,,,,,,,659.7874153999728,659.8026043999707,659.8026043999707,660.3025733999675,660.3025733999675,662.802583599987,662.802583599987,662.7864912999794,None,1.0,,,,,,,,,,,,,,,,,,,,,,,,,,,,,,,,,,,,,,,,,,,,,nback41,1.0,2023-12-19_17h41.44.459,untitled,2023.2.3,60.00132002512176,2023-12-19 18h42.25.668772 -0500,
6.0,"[-0.3, 0]",None,0.0,24.0,24.0,24.0,,,,,,,,,662.802583599987,,,,,,,,,,,,,,,,,,,,,,,,,,,,662.787054699962,662.802583599987,662.802583599987,663.302527599968,663.302527599968,665.8026994999964,665.8026994999964,665.7866081999964,None,1.0,,,,,,,,,,,,,,,,,,,,,,,,,,,,,,,,,,,,,,,,,,,,,nback41,1.0,2023-12-19_17h41.44.459,untitled,2023.2.3,60.00132002512176,2023-12-19 18h42.25.668772 -0500,
3.0,"[0, 0.2]",None,0.0,25.0,25.0,25.0,,,,,,,,,665.8026994999964,,,,,,,,,,,,,,,,,,,,,,,,,,,,665.7872000999632,665.8026994999964,665.8026994999964,666.3028884999803,666.3028884999803,668.8023566000047,668.8023566000047,668.7864160999889,None,1.0,,,,,,,,,,,,,,,,,,,,,,,,,,,,,,,,,,,,,,,,,,,,,nback41,1.0,2023-12-19_17h41.44.459,untitled,2023.2.3,60.00132002512176,2023-12-19 18h42.25.668772 -0500,
11.0,"[-0.64, -0.4]",space,0.0,26.0,26.0,26.0,,,,,,,,,668.8023566000047,,,,,,,,,,,,,,,,,,,,,,,,,,,,668.787087899982,668.8023566000047,668.8023566000047,669.3025035999599,669.3025035999599,671.8024640000076,671.8024640000076,671.7867755999905,space,1.0,0.3766926000243984,None,,,,,,,,,,,,,,,,,,,,,,,,,,,,,,,,,,,,,,,,,,,nback41,1.0,2023-12-19_17h41.44.459,untitled,2023.2.3,60.00132002512176,2023-12-19 18h42.25.668772 -0500,
1.0,"[-0.64, 0.4]",None,0.0,27.0,27.0,27.0,,,,,,,,,671.8024640000076,,,,,,,,,,,,,,,,,,,,,,,,,,,,671.7875598999672,671.8024640000076,671.8024640000076,672.3025312999962,672.3025312999962,674.8024872000096,674.8024872000096,674.7865097000031,None,1.0,,,,,,,,,,,,,,,,,,,,,,,,,,,,,,,,,,,,,,,,,,,,,nback41,1.0,2023-12-19_17h41.44.459,untitled,2023.2.3,60.00132002512176,2023-12-19 18h42.25.668772 -0500,
3.0,"[0, 0.2]",None,0.0,28.0,28.0,28.0,,,,,,,,,674.8024872000096,,,,,,,,,,,,,,,,,,,,,,,,,,,,674.7871301999548,674.8024872000096,674.8024872000096,675.3025121999672,675.3025121999672,677.8027183999657,677.8027183999657,677.7865030000103,None,1.0,,,,,,,,,,,,,,,,,,,,,,,,,,,,,,,,,,,,,,,,,,,,,nback41,1.0,2023-12-19_17h41.44.459,untitled,2023.2.3,60.00132002512176,2023-12-19 18h42.25.668772 -0500,
9.0,"[0.2, -0.1]",None,0.0,29.0,29.0,29.0,,,,,,,,,677.8027183999657,,,,,,,,,,,,,,,,,,,,,,,,,,,,677.7872216000105,677.8027183999657,677.8027183999657,678.3025747999782,678.3025747999782,680.8022033000016,680.8022033000016,680.7862770999782,None,1.0,,,,,,,,,,,,,,,,,,,,,,,,,,,,,,,,,,,,,,,,,,,,,nback41,1.0,2023-12-19_17h41.44.459,untitled,2023.2.3,60.00132002512176,2023-12-19 18h42.25.668772 -0500,
8.0,"[-0.2, -0.1]",None,0.0,30.0,30.0,30.0,,,,,,,,,680.8022033000016,,,,,,,,,,,,,,,,,,,,,,,,,,,,680.7868848000071,680.8022033000016,680.8022033000016,681.3021754999645,681.3021754999645,683.8025357999722,683.8025357999722,683.7862822999596,None,1.0,,,,,,,,,,,,,,,,,,,,,,,,,,,,,,,,,,,,,,,,,,,,,nback41,1.0,2023-12-19_17h41.44.459,untitled,2023.2.3,60.00132002512176,2023-12-19 18h42.25.668772 -0500,
12.0,"[0.64, -0.4]",None,0.0,31.0,31.0,31.0,,,,,,,,,683.8025357999722,,,,,,,,,,,,,,,,,,,,,,,,,,,,683.7869927999564,683.8025357999722,683.8025357999722,684.3022466999828,684.3022466999828,686.8020562999882,686.8020562999882,686.7863309999811,None,1.0,,,,,,,,,,,,,,,,,,,,,,,,,,,,,,,,,,,,,,,,,,,,,nback41,1.0,2023-12-19_17h41.44.459,untitled,2023.2.3,60.00132002512176,2023-12-19 18h42.25.668772 -0500,
9.0,"[0.2, -0.1]",None,0.0,32.0,32.0,32.0,,,,,,,,,686.8020562999882,,,,,,,,,,,,,,,,,,,,,,,,,,,,686.7871058000019,686.8020562999882,686.8020562999882,687.3024280999671,687.3024280999671,689.8020215999568,689.8020215999568,689.7862728000036,None,1.0,,,,,,,,,,,,,,,,,,,,,,,,,,,,,,,,,,,,,,,,,,,,,nback41,1.0,2023-12-19_17h41.44.459,untitled,2023.2.3,60.00132002512176,2023-12-19 18h42.25.668772 -0500,
11.0,"[-0.64, -0.4]",space,0.0,33.0,33.0,33.0,,,,,,,,,689.8020215999568,,,,,,,,,,,,,,,,,,,,,,,,,,,,689.7869259999716,689.8020215999568,689.8020215999568,690.3021565999952,690.3021565999952,692.802215499978,692.802215499978,692.7861524999607,space,1.0,0.4452520000049844,None,,,,,,,,,,,,,,,,,,,,,,,,,,,,,,,,,,,,,,,,,,,nback41,1.0,2023-12-19_17h41.44.459,untitled,2023.2.3,60.00132002512176,2023-12-19 18h42.25.668772 -0500,
7.0,"[0.3, 0]",None,0.0,34.0,34.0,34.0,,,,,,,,,692.802215499978,,,,,,,,,,,,,,,,,,,,,,,,,,,,692.786896399979,692.802215499978,692.802215499978,693.3019855999737,693.3019855999737,695.8019475999754,695.8019475999754,695.7864436999662,None,1.0,,,,,,,,,,,,,,,,,,,,,,,,,,,,,,,,,,,,,,,,,,,,,nback41,1.0,2023-12-19_17h41.44.459,untitled,2023.2.3,60.00132002512176,2023-12-19 18h42.25.668772 -0500,
11.0,"[-0.64, -0.4]",space,0.0,35.0,35.0,35.0,,,,,,,,,695.8019475999754,,,,,,,,,,,,,,,,,,,,,,,,,,,,695.7870498999837,695.8019475999754,695.8019475999754,696.3019119999954,696.3019119999954,698.802117299987,698.802117299987,698.7858939999714,space,1.0,0.5411821000161581,None,,,,,,,,,,,,,,,,,,,,,,,,,,,,,,,,,,,,,,,,,,,nback41,1.0,2023-12-19_17h41.44.459,untitled,2023.2.3,60.00132002512176,2023-12-19 18h42.25.668772 -0500,
4.0,"[-0.2, 0.1]",None,0.0,36.0,36.0,36.0,,,,,,,,,698.802117299987,,,,,,,,,,,,,,,,,,,,,,,,,,,,698.7865743999719,698.802117299987,698.802117299987,699.301858699997,699.301858699997,701.8017839000095,701.8017839000095,701.78609889996,None,1.0,,,,,,,,,,,,,,,,,,,,,,,,,,,,,,,,,,,,,,,,,,,,,nback41,1.0,2023-12-19_17h41.44.459,untitled,2023.2.3,60.00132002512176,2023-12-19 18h42.25.668772 -0500,
5.0,"[0.2, 0.1]",None,0.0,37.0,37.0,37.0,,,,,,,,,701.8017839000095,,,,,,,,,,,,,,,,,,,,,,,,,,,,701.7866657999693,701.8017839000095,701.8017839000095,702.3019541999674,702.3019541999674,704.801854499965,704.801854499965,704.7861810000031,None,1.0,,,,,,,,,,,,,,,,,,,,,,,,,,,,,,,,,,,,,,,,,,,,,nback41,1.0,2023-12-19_17h41.44.459,untitled,2023.2.3,60.00132002512176,2023-12-19 18h42.25.668772 -0500,
6.0,"[-0.3, 0]",None,0.0,38.0,38.0,38.0,,,,,,,,,704.801854499965,,,,,,,,,,,,,,,,,,,,,,,,,,,,704.7868587999837,704.801854499965,704.801854499965,705.3017863999703,705.3017863999703,707.8017948999768,707.8017948999768,707.785679899971,None,1.0,,,,,,,,,,,,,,,,,,,,,,,,,,,,,,,,,,,,,,,,,,,,,nback41,1.0,2023-12-19_17h41.44.459,untitled,2023.2.3,60.00132002512176,2023-12-19 18h42.25.668772 -0500,
11.0,"[-0.64, -0.4]",space,0.0,39.0,39.0,39.0,,,,,,,,,707.8017948999768,,,,,,,,,,,,,,,,,,,,,,,,,,,,707.7862009999808,707.8017948999768,707.8017948999768,708.3018433999969,708.3018433999969,710.8018798999838,710.8018798999838,710.7858527000062,space,1.0,0.3544458000105805,None,,,,,,,,,,,,,,,,,,,,,,,,,,,,,,,,,,,,,,,,,,,nback41,1.0,2023-12-19_17h41.44.459,untitled,2023.2.3,60.00132002512176,2023-12-19 18h42.25.668772 -0500,
,,,,,,,,,,,,,,,,,,,,,,,,,,,,,,,,,,,,,,,,,,,,,,,,,,,,,,,710.7864535999834,710.8018798999838,710.8018798999838,745.3690469999565,space,34.56200799997896,None,,,,,,,,,,,,,,,,,,,,,,,,,,,,,,,,,,,,nback41,1.0,2023-12-19_17h41.44.459,untitled,2023.2.3,60.00132002512176,2023-12-19 18h42.25.668772 -0500,
10.0,"[0, -0.2]",None,,,,,0.0,0.0,0.0,0.0,,,,,746.3845466999919,,,,,,,,,,,,,,,,,,,,,,,,745.3690827999962,745.3844089999911,746.3845466999919,746.3685133999679,,,,,,,,,,,,,,,,,,,,746.3776039999793,746.3845466999919,746.3845466999919,746.8844598999713,746.8844598999713,749.3845140999765,749.3845140999765,749.3689955999725,None,1.0,,,,,,,,,,,,,,,,,,,,,,,,,,nback41,1.0,2023-12-19_17h41.44.459,untitled,2023.2.3,60.00132002512176,2023-12-19 18h42.25.668772 -0500,
5.0,"[0.2, 0.1]",None,,,,,0.0,1.0,1.0,1.0,,,,,749.3845140999765,,,,,,,,,,,,,,,,,,,,,,,,,,,,,,,,,,,,,,,,,,,,,,,749.370065999974,749.3845140999765,749.3845140999765,749.8843391999835,749.8843391999835,752.3843233999796,752.3843233999796,752.368418099999,None,1.0,,,,,,,,,,,,,,,,,,,,,,,,,,nback41,1.0,2023-12-19_17h41.44.459,untitled,2023.2.3,60.00132002512176,2023-12-19 18h42.25.668772 -0500,
6.0,"[-0.3, 0]",None,,,,,0.0,2.0,2.0,2.0,,,,,752.3843233999796,,,,,,,,,,,,,,,,,,,,,,,,,,,,,,,,,,,,,,,,,,,,,,,752.3690432999865,752.3843233999796,752.3843233999796,752.8843871999998,752.8843871999998,755.3843322999892,755.3843322999892,755.3685803999542,None,1.0,,,,,,,,,,,,,,,,,,,,,,,,,,nback41,1.0,2023-12-19_17h41.44.459,untitled,2023.2.3,60.00132002512176,2023-12-19 18h42.25.668772 -0500,
6.0,"[-0.3, 0]",space,,,,,0.0,3.0,3.0,3.0,,,,,755.3843322999892,,,,,,,,,,,,,,,,,,,,,,,,,,,,,,,,,,,,,,,,,,,,,,,755.3692690999596,755.3843322999892,755.3843322999892,755.8843008999829,755.8843008999829,758.3842131999554,758.3842131999554,758.3683691999759,None,0.0,,,,,,,,,,,,,,,,,,,,,,,,,,nback41,1.0,2023-12-19_17h41.44.459,untitled,2023.2.3,60.00132002512176,2023-12-19 18h42.25.668772 -0500,
12.0,"[0.64, -0.4]",None,,,,,0.0,4.0,4.0,4.0,,,,,758.3842131999554,,,,,,,,,,,,,,,,,,,,,,,,,,,,,,,,,,,,,,,,,,,,,,,758.368960199994,758.3842131999554,758.3842131999554,758.8842657000059,758.8842657000059,761.3841888000024,761.3841888000024,761.3686211999739,None,1.0,,,,,,,,,,,,,,,,,,,,,,,,,,nback41,1.0,2023-12-19_17h41.44.459,untitled,2023.2.3,60.00132002512176,2023-12-19 18h42.25.668772 -0500,
10.0,"[0, -0.2]",None,,,,,0.0,5.0,5.0,5.0,,,,,761.3841888000024,,,,,,,,,,,,,,,,,,,,,,,,,,,,,,,,,,,,,,,,,,,,,,,761.3694325999822,761.3841888000024,761.3841888000024,761.8841003999696,761.8841003999696,764.3840101999813,764.3840101999813,764.3681154999649,space,0.0,0.4763944000005722,None,,,,,,,,,,,,,,,,,,,,,,,,nback41,1.0,2023-12-19_17h41.44.459,untitled,2023.2.3,60.00132002512176,2023-12-19 18h42.25.668772 -0500,
2.0,"[0.64, 0.4]",None,,,,,0.0,6.0,6.0,6.0,,,,,764.3840101999813,,,,,,,,,,,,,,,,,,,,,,,,,,,,,,,,,,,,,,,,,,,,,,,764.3689934999566,764.3840101999813,764.3840101999813,764.8843408999965,764.8843408999965,767.3840423999936,767.3840423999936,767.3683818999561,None,1.0,,,,,,,,,,,,,,,,,,,,,,,,,,nback41,1.0,2023-12-19_17h41.44.459,untitled,2023.2.3,60.00132002512176,2023-12-19 18h42.25.668772 -0500,
9.0,"[0.2, -0.1]",None,,,,,0.0,7.0,7.0,7.0,,,,,767.3840423999936,,,,,,,,,,,,,,,,,,,,,,,,,,,,,,,,,,,,,,,,,,,,,,,767.3690917000058,767.3840423999936,767.3840423999936,767.884193099977,767.884193099977,770.3839703999693,770.3839703999693,770.3682843999704,None,1.0,,,,,,,,,,,,,,,,,,,,,,,,,,nback41,1.0,2023-12-19_17h41.44.459,untitled,2023.2.3,60.00132002512176,2023-12-19 18h42.25.668772 -0500,
9.0,"[0.2, -0.1]",space,,,,,0.0,8.0,8.0,8.0,,,,,770.3839703999693,,,,,,,,,,,,,,,,,,,,,,,,,,,,,,,,,,,,,,,,,,,,,,,770.368970499956,770.3839703999693,770.3839703999693,770.8841441999539,770.8841441999539,773.3840886999969,773.3840886999969,773.3683772999793,space,1.0,0.5710522999870591,None,,,,,,,,,,,,,,,,,,,,,,,,nback41,1.0,2023-12-19_17h41.44.459,untitled,2023.2.3,60.00132002512176,2023-12-19 18h42.25.668772 -0500,
6.0,"[-0.3, 0]",None,,,,,0.0,9.0,9.0,9.0,,,,,773.3840886999969,,,,,,,,,,,,,,,,,,,,,,,,,,,,,,,,,,,,,,,,,,,,,,,773.369351100002,773.3840886999969,773.3840886999969,773.8840365000069,773.8840365000069,776.3840079999645,776.3840079999645,776.3682009999757,None,1.0,,,,,,,,,,,,,,,,,,,,,,,,,,nback41,1.0,2023-12-19_17h41.44.459,untitled,2023.2.3,60.00132002512176,2023-12-19 18h42.25.668772 -0500,
11.0,"[-0.64, -0.4]",None,,,,,0.0,10.0,10.0,10.0,,,,,776.3840079999645,,,,,,,,,,,,,,,,,,,,,,,,,,,,,,,,,,,,,,,,,,,,,,,776.3688508999767,776.3840079999645,776.3840079999645,776.8841019999818,776.8841019999818,779.3836742999847,779.3836742999847,779.3676948999637,None,1.0,,,,,,,,,,,,,,,,,,,,,,,,,,nback41,1.0,2023-12-19_17h41.44.459,untitled,2023.2.3,60.00132002512176,2023-12-19 18h42.25.668772 -0500,
11.0,"[-0.64, -0.4]",space,,,,,0.0,11.0,11.0,11.0,,,,,779.3836742999847,,,,,,,,,,,,,,,,,,,,,,,,,,,,,,,,,,,,,,,,,,,,,,,779.3681778999744,779.3836742999847,779.3836742999847,779.8838404999697,779.8838404999697,782.383712299983,782.383712299983,782.3680150999571,space,1.0,0.3920538000529632,None,,,,,,,,,,,,,,,,,,,,,,,,nback41,1.0,2023-12-19_17h41.44.459,untitled,2023.2.3,60.00132002512176,2023-12-19 18h42.25.668772 -0500,
4.0,"[-0.2, 0.1]",None,,,,,0.0,12.0,12.0,12.0,,,,,782.383712299983,,,,,,,,,,,,,,,,,,,,,,,,,,,,,,,,,,,,,,,,,,,,,,,782.3688216999872,782.383712299983,782.383712299983,782.8840390999685,782.8840390999685,785.3838731999858,785.3838731999858,785.3678303000052,None,1.0,,,,,,,,,,,,,,,,,,,,,,,,,,nback41,1.0,2023-12-19_17h41.44.459,untitled,2023.2.3,60.00132002512176,2023-12-19 18h42.25.668772 -0500,
3.0,"[0, 0.2]",None,,,,,0.0,13.0,13.0,13.0,,,,,785.3838731999858,,,,,,,,,,,,,,,,,,,,,,,,,,,,,,,,,,,,,,,,,,,,,,,785.3684222999727,785.3838731999858,785.3838731999858,785.8837079000077,785.8837079000077,788.3836408999632,788.3836408999632,788.3676800999674,None,1.0,,,,,,,,,,,,,,,,,,,,,,,,,,nback41,1.0,2023-12-19_17h41.44.459,untitled,2023.2.3,60.00132002512176,2023-12-19 18h42.25.668772 -0500,
3.0,"[0, 0.2]",space,,,,,0.0,14.0,14.0,14.0,,,,,788.3836408999632,,,,,,,,,,,,,,,,,,,,,,,,,,,,,,,,,,,,,,,,,,,,,,,788.3681833999581,788.3836408999632,788.3836408999632,788.8835941999569,788.8835941999569,791.3836493999697,791.3836493999697,791.368111799995,space,1.0,0.7493949999916367,None,,,,,,,,,,,,,,,,,,,,,,,,nback41,1.0,2023-12-19_17h41.44.459,untitled,2023.2.3,60.00132002512176,2023-12-19 18h42.25.668772 -0500,
8.0,"[-0.2, -0.1]",None,,,,,0.0,15.0,15.0,15.0,,,,,791.3836493999697,,,,,,,,,,,,,,,,,,,,,,,,,,,,,,,,,,,,,,,,,,,,,,,791.3690147000016,791.3836493999697,791.3836493999697,791.8835924000014,791.8835924000014,794.3835150999948,794.3835150999948,794.367491299985,None,1.0,,,,,,,,,,,,,,,,,,,,,,,,,,nback41,1.0,2023-12-19_17h41.44.459,untitled,2023.2.3,60.00132002512176,2023-12-19 18h42.25.668772 -0500,
1.0,"[-0.64, 0.4]",None,,,,,0.0,16.0,16.0,16.0,,,,,794.3835150999948,,,,,,,,,,,,,,,,,,,,,,,,,,,,,,,,,,,,,,,,,,,,,,,794.3681387999677,794.3835150999948,794.3835150999948,794.8836310000042,794.8836310000042,797.3834143999848,797.3834143999848,797.3674149999861,None,1.0,,,,,,,,,,,,,,,,,,,,,,,,,,nback41,1.0,2023-12-19_17h41.44.459,untitled,2023.2.3,60.00132002512176,2023-12-19 18h42.25.668772 -0500,
2.0,"[0.64, 0.4]",None,,,,,0.0,17.0,17.0,17.0,,,,,797.3834143999848,,,,,,,,,,,,,,,,,,,,,,,,,,,,,,,,,,,,,,,,,,,,,,,797.3679229999543,797.3834143999848,797.3834143999848,797.8836518999888,797.8836518999888,800.383357899962,800.383357899962,800.3676233000006,None,1.0,,,,,,,,,,,,,,,,,,,,,,,,,,nback41,1.0,2023-12-19_17h41.44.459,untitled,2023.2.3,60.00132002512176,2023-12-19 18h42.25.668772 -0500,
4.0,"[-0.2, 0.1]",None,,,,,0.0,18.0,18.0,18.0,,,,,800.383357899962,,,,,,,,,,,,,,,,,,,,,,,,,,,,,,,,,,,,,,,,,,,,,,,800.3682343999972,800.383357899962,800.383357899962,800.8837449999992,800.8837449999992,803.3836080000037,803.3836080000037,803.3677927000099,None,1.0,,,,,,,,,,,,,,,,,,,,,,,,,,nback41,1.0,2023-12-19_17h41.44.459,untitled,2023.2.3,60.00132002512176,2023-12-19 18h42.25.668772 -0500,
4.0,"[-0.2, 0.1]",space,,,,,0.0,19.0,19.0,19.0,,,,,803.3836080000037,,,,,,,,,,,,,,,,,,,,,,,,,,,,,,,,,,,,,,,,,,,,,,,803.36841429997,803.3836080000037,803.3836080000037,803.8835637999582,803.8835637999582,806.3833190999576,806.3833190999576,806.3678061999963,space,1.0,0.3247639000182971,None,,,,,,,,,,,,,,,,,,,,,,,,nback41,1.0,2023-12-19_17h41.44.459,untitled,2023.2.3,60.00132002512176,2023-12-19 18h42.25.668772 -0500,
8.0,"[-0.2, -0.1]",None,,,,,0.0,20.0,20.0,20.0,,,,,806.3833190999576,,,,,,,,,,,,,,,,,,,,,,,,,,,,,,,,,,,,,,,,,,,,,,,806.3688513999805,806.3833190999576,806.3833190999576,806.8834810999688,806.8834810999688,809.3832041999558,809.3832041999558,809.3670865999884,None,1.0,,,,,,,,,,,,,,,,,,,,,,,,,,nback41,1.0,2023-12-19_17h41.44.459,untitled,2023.2.3,60.00132002512176,2023-12-19 18h42.25.668772 -0500,
5.0,"[0.2, 0.1]",None,,,,,0.0,21.0,21.0,21.0,,,,,809.3832041999558,,,,,,,,,,,,,,,,,,,,,,,,,,,,,,,,,,,,,,,,,,,,,,,809.3674820999731,809.3832041999558,809.3832041999558,809.8835096999537,809.8835096999537,812.3832064999733,812.3832064999733,812.367468499986,None,1.0,,,,,,,,,,,,,,,,,,,,,,,,,,nback41,1.0,2023-12-19_17h41.44.459,untitled,2023.2.3,60.00132002512176,2023-12-19 18h42.25.668772 -0500,
5.0,"[0.2, 0.1]",space,,,,,0.0,22.0,22.0,22.0,,,,,812.3832064999733,,,,,,,,,,,,,,,,,,,,,,,,,,,,,,,,,,,,,,,,,,,,,,,812.3680705999723,812.3832064999733,812.3832064999733,812.8834044999676,812.8834044999676,815.3833142999792,815.3833142999792,815.3669841999654,space,1.0,0.6872502999613062,None,,,,,,,,,,,,,,,,,,,,,,,,nback41,1.0,2023-12-19_17h41.44.459,untitled,2023.2.3,60.00132002512176,2023-12-19 18h42.25.668772 -0500,
1.0,"[-0.64, 0.4]",None,,,,,0.0,23.0,23.0,23.0,,,,,815.3833142999792,,,,,,,,,,,,,,,,,,,,,,,,,,,,,,,,,,,,,,,,,,,,,,,815.3676369999885,815.3833142999792,815.3833142999792,815.8832039999543,815.8832039999543,818.3833679999807,818.3833679999807,818.367037399963,None,1.0,,,,,,,,,,,,,,,,,,,,,,,,,,nback41,1.0,2023-12-19_17h41.44.459,untitled,2023.2.3,60.00132002512176,2023-12-19 18h42.25.668772 -0500,
3.0,"[0, 0.2]",None,,,,,0.0,24.0,24.0,24.0,,,,,818.3833679999807,,,,,,,,,,,,,,,,,,,,,,,,,,,,,,,,,,,,,,,,,,,,,,,818.3676531999954,818.3833679999807,818.3833679999807,818.8831538999802,818.8831538999802,821.3830217999639,821.3830217999639,821.3671435999568,None,1.0,,,,,,,,,,,,,,,,,,,,,,,,,,nback41,1.0,2023-12-19_17h41.44.459,untitled,2023.2.3,60.00132002512176,2023-12-19 18h42.25.668772 -0500,
6.0,"[-0.3, 0]",None,,,,,0.0,25.0,25.0,25.0,,,,,821.3830217999639,,,,,,,,,,,,,,,,,,,,,,,,,,,,,,,,,,,,,,,,,,,,,,,821.3677244999562,821.3830217999639,821.3830217999639,821.8830753999646,821.8830753999646,824.3830691999756,824.3830691999756,824.3668610999594,None,1.0,,,,,,,,,,,,,,,,,,,,,,,,,,nback41,1.0,2023-12-19_17h41.44.459,untitled,2023.2.3,60.00132002512176,2023-12-19 18h42.25.668772 -0500,
1.0,"[-0.64, 0.4]",None,,,,,0.0,26.0,26.0,26.0,,,,,824.3830691999756,,,,,,,,,,,,,,,,,,,,,,,,,,,,,,,,,,,,,,,,,,,,,,,824.367404199962,824.3830691999756,824.3830691999756,824.8832115999539,824.8832115999539,827.3829246999812,827.3829246999812,827.3668995999615,None,1.0,,,,,,,,,,,,,,,,,,,,,,,,,,nback41,1.0,2023-12-19_17h41.44.459,untitled,2023.2.3,60.00132002512176,2023-12-19 18h42.25.668772 -0500,
1.0,"[-0.64, 0.4]",space,,,,,0.0,27.0,27.0,27.0,,,,,827.3829246999812,,,,,,,,,,,,,,,,,,,,,,,,,,,,,,,,,,,,,,,,,,,,,,,827.367470600002,827.3829246999812,827.3829246999812,827.8829257999896,827.8829257999896,830.3829507000046,830.3829507000046,830.3670741000096,space,1.0,0.6133900000131689,None,,,,,,,,,,,,,,,,,,,,,,,,nback41,1.0,2023-12-19_17h41.44.459,untitled,2023.2.3,60.00132002512176,2023-12-19 18h42.25.668772 -0500,
1.0,"[-0.64, 0.4]",space,,,,,0.0,28.0,28.0,28.0,,,,,830.3829507000046,,,,,,,,,,,,,,,,,,,,,,,,,,,,,,,,,,,,,,,,,,,,,,,830.3677848000079,830.3829507000046,830.3829507000046,830.8829301999649,830.8829301999649,833.3828163999715,833.3828163999715,833.36670829996,None,0.0,,,,,,,,,,,,,,,,,,,,,,,,,,nback41,1.0,2023-12-19_17h41.44.459,untitled,2023.2.3,60.00132002512176,2023-12-19 18h42.25.668772 -0500,
3.0,"[0, 0.2]",None,,,,,0.0,29.0,29.0,29.0,,,,,833.3828163999715,,,,,,,,,,,,,,,,,,,,,,,,,,,,,,,,,,,,,,,,,,,,,,,833.3672967999591,833.3828163999715,833.3828163999715,833.8828593000071,833.8828593000071,836.3830535999732,836.3830535999732,836.3669334999868,None,1.0,,,,,,,,,,,,,,,,,,,,,,,,,,nback41,1.0,2023-12-19_17h41.44.459,untitled,2023.2.3,60.00132002512176,2023-12-19 18h42.25.668772 -0500,
12.0,"[0.64, -0.4]",None,,,,,0.0,30.0,30.0,30.0,,,,,836.3830535999732,,,,,,,,,,,,,,,,,,,,,,,,,,,,,,,,,,,,,,,,,,,,,,,836.3676257999614,836.3830535999732,836.3830535999732,836.8832037000102,836.8832037000102,839.3826652999851,839.3826652999851,839.3668051999994,None,1.0,,,,,,,,,,,,,,,,,,,,,,,,,,nback41,1.0,2023-12-19_17h41.44.459,untitled,2023.2.3,60.00132002512176,2023-12-19 18h42.25.668772 -0500,
12.0,"[0.64, -0.4]",space,,,,,0.0,31.0,31.0,31.0,,,,,839.3826652999851,,,,,,,,,,,,,,,,,,,,,,,,,,,,,,,,,,,,,,,,,,,,,,,839.3674198999652,839.3826652999851,839.3826652999851,839.882904500002,839.882904500002,842.382656599977,842.382656599977,842.3666736999876,space,1.0,0.5589877999736927,None,,,,,,,,,,,,,,,,,,,,,,,,nback41,1.0,2023-12-19_17h41.44.459,untitled,2023.2.3,60.00132002512176,2023-12-19 18h42.25.668772 -0500,
2.0,"[0.64, 0.4]",None,,,,,0.0,32.0,32.0,32.0,,,,,842.382656599977,,,,,,,,,,,,,,,,,,,,,,,,,,,,,,,,,,,,,,,,,,,,,,,842.3674429999664,842.382656599977,842.382656599977,842.8829267999972,842.8829267999972,845.3826687999535,845.3826687999535,845.366635399987,None,1.0,,,,,,,,,,,,,,,,,,,,,,,,,,nback41,1.0,2023-12-19_17h41.44.459,untitled,2023.2.3,60.00132002512176,2023-12-19 18h42.25.668772 -0500,
1.0,"[-0.64, 0.4]",None,,,,,0.0,33.0,33.0,33.0,,,,,845.3826687999535,,,,,,,,,,,,,,,,,,,,,,,,,,,,,,,,,,,,,,,,,,,,,,,845.3673159999889,845.3826687999535,845.3826687999535,845.8826899999985,845.8826899999985,848.382626799983,848.382626799983,848.3664880999713,None,1.0,,,,,,,,,,,,,,,,,,,,,,,,,,nback41,1.0,2023-12-19_17h41.44.459,untitled,2023.2.3,60.00132002512176,2023-12-19 18h42.25.668772 -0500,
7.0,"[0.3, 0]",None,,,,,0.0,34.0,34.0,34.0,,,,,848.382626799983,,,,,,,,,,,,,,,,,,,,,,,,,,,,,,,,,,,,,,,,,,,,,,,848.3671118000057,848.382626799983,848.382626799983,848.8825846000109,848.8825846000109,851.3824323999579,851.3824323999579,851.3665273999795,None,1.0,,,,,,,,,,,,,,,,,,,,,,,,,,nback41,1.0,2023-12-19_17h41.44.459,untitled,2023.2.3,60.00132002512176,2023-12-19 18h42.25.668772 -0500,
7.0,"[0.3, 0]",space,,,,,0.0,35.0,35.0,35.0,,,,,851.3824323999579,,,,,,,,,,,,,,,,,,,,,,,,,,,,,,,,,,,,,,,,,,,,,,,851.3670406999881,851.3824323999579,851.3824323999579,851.8825163999572,851.8825163999572,854.3824575999752,854.3824575999752,854.3667797999806,space,1.0,0.5823477000230923,None,,,,,,,,,,,,,,,,,,,,,,,,nback41,1.0,2023-12-19_17h41.44.459,untitled,2023.2.3,60.00132002512176,2023-12-19 18h42.25.668772 -0500,
11.0,"[-0.64, -0.4]",None,,,,,0.0,36.0,36.0,36.0,,,,,854.3824575999752,,,,,,,,,,,,,,,,,,,,,,,,,,,,,,,,,,,,,,,,,,,,,,,854.3676290999865,854.3824575999752,854.3824575999752,854.882466799987,854.882466799987,857.3823342999676,857.3823342999676,857.3663428999716,None,1.0,,,,,,,,,,,,,,,,,,,,,,,,,,nback41,1.0,2023-12-19_17h41.44.459,untitled,2023.2.3,60.00132002512176,2023-12-19 18h42.25.668772 -0500,
2.0,"[0.64, 0.4]",None,,,,,0.0,37.0,37.0,37.0,,,,,857.3823342999676,,,,,,,,,,,,,,,,,,,,,,,,,,,,,,,,,,,,,,,,,,,,,,,857.3669261999894,857.3823342999676,857.3823342999676,857.8825962999836,857.8825962999836,860.382676899957,860.382676899957,860.3663318000035,None,1.0,,,,,,,,,,,,,,,,,,,,,,,,,,nback41,1.0,2023-12-19_17h41.44.459,untitled,2023.2.3,60.00132002512176,2023-12-19 18h42.25.668772 -0500,
6.0,"[-0.3, 0]",None,,,,,0.0,38.0,38.0,38.0,,,,,860.382676899957,,,,,,,,,,,,,,,,,,,,,,,,,,,,,,,,,,,,,,,,,,,,,,,860.366939199972,860.382676899957,860.382676899957,860.8824781999574,860.8824781999574,863.3826355999918,863.3826355999918,863.3665808999795,None,1.0,,,,,,,,,,,,,,,,,,,,,,,,,,nback41,1.0,2023-12-19_17h41.44.459,untitled,2023.2.3,60.00132002512176,2023-12-19 18h42.25.668772 -0500,
10.0,"[0, -0.2]",None,,,,,0.0,39.0,39.0,39.0,,,,,863.3826355999918,,,,,,,,,,,,,,,,,,,,,,,,,,,,,,,,,,,,,,,,,,,,,,,863.3672640000004,863.3826355999918,863.3826355999918,863.8825487999711,863.8825487999711,866.3824344999739,866.3824344999739,866.3664545000065,None,1.0,,,,,,,,,,,,,,,,,,,,,,,,,,nback41,1.0,2023-12-19_17h41.44.459,untitled,2023.2.3,60.00132002512176,2023-12-19 18h42.25.668772 -0500,
,,,,,,,,,,,,,,,,,,,,,,,,,,,,,,,,,,,,,,,,,,,,,,,,,,,,,,,,,,,,,,,,,,,,,,,,,,866.366898200009,866.3824344999739,866.3824344999739,898.7663253999781,space,32.36937289999332,None,,,,,,,,,,,,,,,,,nback41,1.0,2023-12-19_17h41.44.459,untitled,2023.2.3,60.00132002512176,2023-12-19 18h42.25.668772 -0500,
,"[0.2, 0.1]",None,,,,,,,,,0.0,0.0,0.0,0.0,899.7816537999897,,,,,,,,,,,,,,,,,,,,,,,,898.766359900008,898.7816615999909,899.7816537999897,899.7657115999609,,,,,,,,,,,,,,,,,,,,,,,,,,,,,,,,,,,,,,,899.7718598999782,899.7816537999897,899.7816537999897,900.281824500009,900.281824500009,902.7817632000078,902.7817632000078,902.765824000002,None,1.0,,,,,,,nback41,1.0,2023-12-19_17h41.44.459,untitled,2023.2.3,60.00132002512176,2023-12-19 18h42.25.668772 -0500,
,"[0.64, 0.4]",None,,,,,,,,,0.0,1.0,1.0,1.0,902.7817632000078,,,,,,,,,,,,,,,,,,,,,,,,,,,,,,,,,,,,,,,,,,,,,,,,,,,,,,,,,,,,,,,,,,902.7665610999684,902.7817632000078,902.7817632000078,903.2817560999538,903.2817560999538,905.7817256999552,905.7817256999552,905.7659455999964,None,1.0,,,,,,,nback41,1.0,2023-12-19_17h41.44.459,untitled,2023.2.3,60.00132002512176,2023-12-19 18h42.25.668772 -0500,
,"[-0.3, 0]",None,,,,,,,,,0.0,2.0,2.0,2.0,905.7817256999552,,,,,,,,,,,,,,,,,,,,,,,,,,,,,,,,,,,,,,,,,,,,,,,,,,,,,,,,,,,,,,,,,,905.7665685999672,905.7817256999552,905.7817256999552,906.2816721999552,906.2816721999552,908.7817822999788,908.7817822999788,908.7659882999724,None,1.0,,,,,,,nback41,1.0,2023-12-19_17h41.44.459,untitled,2023.2.3,60.00132002512176,2023-12-19 18h42.25.668772 -0500,
,"[0.2, -0.1]",None,,,,,,,,,0.0,3.0,3.0,3.0,908.7817822999788,,,,,,,,,,,,,,,,,,,,,,,,,,,,,,,,,,,,,,,,,,,,,,,,,,,,,,,,,,,,,,,,,,908.7668361999677,908.7817822999788,908.7817822999788,909.2817276999704,909.2817276999704,911.7815347999568,911.7815347999568,911.7660010000108,None,1.0,,,,,,,nback41,1.0,2023-12-19_17h41.44.459,untitled,2023.2.3,60.00132002512176,2023-12-19 18h42.25.668772 -0500,
,"[0, 0.2]",None,,,,,,,,,0.0,4.0,4.0,4.0,911.7815347999568,,,,,,,,,,,,,,,,,,,,,,,,,,,,,,,,,,,,,,,,,,,,,,,,,,,,,,,,,,,,,,,,,,911.7666920999764,911.7815347999568,911.7815347999568,912.281624299998,912.281624299998,914.7813697999808,914.7813697999808,914.7656375999796,None,1.0,,,,,,,nback41,1.0,2023-12-19_17h41.44.459,untitled,2023.2.3,60.00132002512176,2023-12-19 18h42.25.668772 -0500,
,"[0.2, -0.1]",space,,,,,,,,,0.0,5.0,5.0,5.0,914.7813697999808,,,,,,,,,,,,,,,,,,,,,,,,,,,,,,,,,,,,,,,,,,,,,,,,,,,,,,,,,,,,,,,,,,914.7663102999796,914.7813697999808,914.7813697999808,915.2815573999542,915.2815573999542,917.78159899998,917.78159899998,917.7654868999962,space,1.0,1.2195336999720894,None,,,,,nback41,1.0,2023-12-19_17h41.44.459,untitled,2023.2.3,60.00132002512176,2023-12-19 18h42.25.668772 -0500,
,"[0, -0.2]",None,,,,,,,,,0.0,6.0,6.0,6.0,917.78159899998,,,,,,,,,,,,,,,,,,,,,,,,,,,,,,,,,,,,,,,,,,,,,,,,,,,,,,,,,,,,,,,,,,917.766459300008,917.78159899998,917.78159899998,918.2812005999732,918.2812005999732,920.7814155999804,920.7814155999804,920.765822699992,None,1.0,,,,,,,nback41,1.0,2023-12-19_17h41.44.459,untitled,2023.2.3,60.00132002512176,2023-12-19 18h42.25.668772 -0500,
,"[0.64, -0.4]",None,,,,,,,,,0.0,7.0,7.0,7.0,920.7814155999804,,,,,,,,,,,,,,,,,,,,,,,,,,,,,,,,,,,,,,,,,,,,,,,,,,,,,,,,,,,,,,,,,,920.7666551999864,920.7814155999804,920.7814155999804,921.2814437999624,921.2814437999624,923.781522299978,923.781522299978,923.7656496999552,None,1.0,,,,,,,nback41,1.0,2023-12-19_17h41.44.459,untitled,2023.2.3,60.00132002512176,2023-12-19 18h42.25.668772 -0500,
,"[0.3, 0]",None,,,,,,,,,0.0,8.0,8.0,8.0,923.781522299978,,,,,,,,,,,,,,,,,,,,,,,,,,,,,,,,,,,,,,,,,,,,,,,,,,,,,,,,,,,,,,,,,,923.766477999976,923.781522299978,923.781522299978,924.2813901999616,924.2813901999616,926.7812297999626,926.7812297999626,926.7652900000104,None,1.0,,,,,,,nback41,1.0,2023-12-19_17h41.44.459,untitled,2023.2.3,60.00132002512176,2023-12-19 18h42.25.668772 -0500,
,"[0.64, -0.4]",space,,,,,,,,,0.0,9.0,9.0,9.0,926.7812297999626,,,,,,,,,,,,,,,,,,,,,,,,,,,,,,,,,,,,,,,,,,,,,,,,,,,,,,,,,,,,,,,,,,926.7659226999968,926.7812297999626,926.7812297999626,927.2812717999914,927.2812717999914,929.781194899988,929.781194899988,929.7651831999538,space,1.0,0.4082612000056542,None,,,,,nback41,1.0,2023-12-19_17h41.44.459,untitled,2023.2.3,60.00132002512176,2023-12-19 18h42.25.668772 -0500,
,"[-0.64, 0.4]",None,,,,,,,,,0.0,10.0,10.0,10.0,929.781194899988,,,,,,,,,,,,,,,,,,,,,,,,,,,,,,,,,,,,,,,,,,,,,,,,,,,,,,,,,,,,,,,,,,929.7657633000052,929.781194899988,929.781194899988,930.2811183999876,930.2811183999876,932.781420699961,932.781420699961,932.76533189998,None,1.0,,,,,,,nback41,1.0,2023-12-19_17h41.44.459,untitled,2023.2.3,60.00132002512176,2023-12-19 18h42.25.668772 -0500,
,"[0.2, 0.1]",None,,,,,,,,,0.0,11.0,11.0,11.0,932.781420699961,,,,,,,,,,,,,,,,,,,,,,,,,,,,,,,,,,,,,,,,,,,,,,,,,,,,,,,,,,,,,,,,,,932.7660643999698,932.781420699961,932.781420699961,933.2811316999724,933.2811316999724,935.7812387999728,935.7812387999728,935.765220500005,None,1.0,,,,,,,nback41,1.0,2023-12-19_17h41.44.459,untitled,2023.2.3,60.00132002512176,2023-12-19 18h42.25.668772 -0500,
,"[0.3, 0]",None,,,,,,,,,0.0,12.0,12.0,12.0,935.7812387999728,,,,,,,,,,,,,,,,,,,,,,,,,,,,,,,,,,,,,,,,,,,,,,,,,,,,,,,,,,,,,,,,,,935.765856999962,935.7812387999728,935.7812387999728,936.2811217999551,936.2811217999551,938.7811308999662,938.7811308999662,938.7655190000078,None,1.0,,,,,,,nback41,1.0,2023-12-19_17h41.44.459,untitled,2023.2.3,60.00132002512176,2023-12-19 18h42.25.668772 -0500,
,"[0.2, 0.1]",space,,,,,,,,,0.0,13.0,13.0,13.0,938.7811308999662,,,,,,,,,,,,,,,,,,,,,,,,,,,,,,,,,,,,,,,,,,,,,,,,,,,,,,,,,,,,,,,,,,938.7661726999796,938.7811308999662,938.7811308999662,939.281037000008,939.281037000008,941.7809534000116,941.7809534000116,941.7653494999976,space,1.0,0.3842785999877378,None,,,,,nback41,1.0,2023-12-19_17h41.44.459,untitled,2023.2.3,60.00132002512176,2023-12-19 18h42.25.668772 -0500,
,"[-0.3, 0]",None,,,,,,,,,0.0,14.0,14.0,14.0,941.7809534000116,,,,,,,,,,,,,,,,,,,,,,,,,,,,,,,,,,,,,,,,,,,,,,,,,,,,,,,,,,,,,,,,,,941.7662811999908,941.7809534000116,941.7809534000116,942.2809720999794,942.2809720999794,944.7809881999856,944.7809881999856,944.7651688999612,None,1.0,,,,,,,nback41,1.0,2023-12-19_17h41.44.459,untitled,2023.2.3,60.00132002512176,2023-12-19 18h42.25.668772 -0500,
,"[0, 0.2]",None,,,,,,,,,0.0,15.0,15.0,15.0,944.7809881999856,,,,,,,,,,,,,,,,,,,,,,,,,,,,,,,,,,,,,,,,,,,,,,,,,,,,,,,,,,,,,,,,,,944.7658046999712,944.7809881999856,944.7809881999856,945.2810855999704,945.2810855999704,947.7809085999615,947.7809085999615,947.7652923999703,None,1.0,,,,,,,nback41,1.0,2023-12-19_17h41.44.459,untitled,2023.2.3,60.00132002512176,2023-12-19 18h42.25.668772 -0500,
,"[-0.3, 0]",space,,,,,,,,,0.0,16.0,16.0,16.0,947.7809085999615,,,,,,,,,,,,,,,,,,,,,,,,,,,,,,,,,,,,,,,,,,,,,,,,,,,,,,,,,,,,,,,,,,947.7661200999864,947.7809085999615,947.7809085999615,948.2810027999805,948.2810027999805,950.7808243999608,950.7808243999608,950.7649843000108,space,1.0,0.5998309000278823,None,,,,,nback41,1.0,2023-12-19_17h41.44.459,untitled,2023.2.3,60.00132002512176,2023-12-19 18h42.25.668772 -0500,
,"[-0.64, -0.4]",None,,,,,,,,,0.0,17.0,17.0,17.0,950.7808243999608,,,,,,,,,,,,,,,,,,,,,,,,,,,,,,,,,,,,,,,,,,,,,,,,,,,,,,,,,,,,,,,,,,950.7657540999936,950.7808243999608,950.7808243999608,951.2808331999696,951.2808331999696,953.7808356999884,953.7808356999884,953.7647549000104,None,1.0,,,,,,,nback41,1.0,2023-12-19_17h41.44.459,untitled,2023.2.3,60.00132002512176,2023-12-19 18h42.25.668772 -0500,
,"[-0.2, -0.1]",None,,,,,,,,,0.0,18.0,18.0,18.0,953.7808356999884,,,,,,,,,,,,,,,,,,,,,,,,,,,,,,,,,,,,,,,,,,,,,,,,,,,,,,,,,,,,,,,,,,953.7652821000084,953.7808356999884,953.7808356999884,954.2807672999916,954.2807672999916,956.7806741999811,956.7806741999811,956.765015599958,None,1.0,,,,,,,nback41,1.0,2023-12-19_17h41.44.459,untitled,2023.2.3,60.00132002512176,2023-12-19 18h42.25.668772 -0500,
,"[0.2, -0.1]",None,,,,,,,,,0.0,19.0,19.0,19.0,956.7806741999811,,,,,,,,,,,,,,,,,,,,,,,,,,,,,,,,,,,,,,,,,,,,,,,,,,,,,,,,,,,,,,,,,,956.765708699997,956.7806741999811,956.7806741999811,957.2808265999774,957.2808265999774,959.7807447999947,959.7807447999947,959.7647428999773,None,1.0,,,,,,,nback41,1.0,2023-12-19_17h41.44.459,untitled,2023.2.3,60.00132002512176,2023-12-19 18h42.25.668772 -0500,
,"[0.2, -0.1]",None,,,,,,,,,0.0,20.0,20.0,20.0,959.7807447999947,,,,,,,,,,,,,,,,,,,,,,,,,,,,,,,,,,,,,,,,,,,,,,,,,,,,,,,,,,,,,,,,,,959.7654530999716,959.7807447999947,959.7807447999947,960.2807842000038,960.2807842000038,962.78054409998,962.78054409998,962.764727199974,None,1.0,,,,,,,nback41,1.0,2023-12-19_17h41.44.459,untitled,2023.2.3,60.00132002512176,2023-12-19 18h42.25.668772 -0500,
,"[-0.64, 0.4]",None,,,,,,,,,0.0,21.0,21.0,21.0,962.78054409998,,,,,,,,,,,,,,,,,,,,,,,,,,,,,,,,,,,,,,,,,,,,,,,,,,,,,,,,,,,,,,,,,,962.7652979999548,962.78054409998,962.78054409998,963.2809687999544,963.2809687999544,965.7805818999768,965.7805818999768,965.7648176999646,None,1.0,,,,,,,nback41,1.0,2023-12-19_17h41.44.459,untitled,2023.2.3,60.00132002512176,2023-12-19 18h42.25.668772 -0500,
,"[0, 0.2]",None,,,,,,,,,0.0,22.0,22.0,22.0,965.7805818999768,,,,,,,,,,,,,,,,,,,,,,,,,,,,,,,,,,,,,,,,,,,,,,,,,,,,,,,,,,,,,,,,,,965.7654107999988,965.7805818999768,965.7805818999768,966.2806043999736,966.2806043999736,968.7805123999716,968.7805123999716,968.7647925000056,None,1.0,,,,,,,nback41,1.0,2023-12-19_17h41.44.459,untitled,2023.2.3,60.00132002512176,2023-12-19 18h42.25.668772 -0500,
,"[0.64, -0.4]",None,,,,,,,,,0.0,23.0,23.0,23.0,968.7805123999716,,,,,,,,,,,,,,,,,,,,,,,,,,,,,,,,,,,,,,,,,,,,,,,,,,,,,,,,,,,,,,,,,,968.7656065999764,968.7805123999716,968.7805123999716,969.2805223999894,969.2805223999894,971.7805122999708,971.7805122999708,971.7651253999792,None,1.0,,,,,,,nback41,1.0,2023-12-19_17h41.44.459,untitled,2023.2.3,60.00132002512176,2023-12-19 18h42.25.668772 -0500,
,"[0, 0.2]",space,,,,,,,,,0.0,24.0,24.0,24.0,971.7805122999708,,,,,,,,,,,,,,,,,,,,,,,,,,,,,,,,,,,,,,,,,,,,,,,,,,,,,,,,,,,,,,,,,,971.7659925000044,971.7805122999708,971.7805122999708,972.2806306999992,972.2806306999992,974.7804374999832,974.7804374999832,974.7644276999636,space,1.0,0.966070199967362,None,,,,,nback41,1.0,2023-12-19_17h41.44.459,untitled,2023.2.3,60.00132002512176,2023-12-19 18h42.25.668772 -0500,
,"[-0.2, 0.1]",None,,,,,,,,,0.0,25.0,25.0,25.0,974.7804374999832,,,,,,,,,,,,,,,,,,,,,,,,,,,,,,,,,,,,,,,,,,,,,,,,,,,,,,,,,,,,,,,,,,974.7651823000052,974.7804374999832,974.7804374999832,975.2805515999788,975.2805515999788,977.7805006999988,977.7805006999988,977.7644821999712,None,1.0,,,,,,,nback41,1.0,2023-12-19_17h41.44.459,untitled,2023.2.3,60.00132002512176,2023-12-19 18h42.25.668772 -0500,
,"[0.3, 0]",None,,,,,,,,,0.0,26.0,26.0,26.0,977.7805006999988,,,,,,,,,,,,,,,,,,,,,,,,,,,,,,,,,,,,,,,,,,,,,,,,,,,,,,,,,,,,,,,,,,977.7657950999564,977.7805006999988,977.7805006999988,978.280449599959,978.280449599959,980.7803668999696,980.7803668999696,980.7642656000098,None,1.0,,,,,,,nback41,1.0,2023-12-19_17h41.44.459,untitled,2023.2.3,60.00132002512176,2023-12-19 18h42.25.668772 -0500,
,"[-0.2, 0.1]",space,,,,,,,,,0.0,27.0,27.0,27.0,980.7803668999696,,,,,,,,,,,,,,,,,,,,,,,,,,,,,,,,,,,,,,,,,,,,,,,,,,,,,,,,,,,,,,,,,,980.7648297999986,980.7803668999696,980.7803668999696,981.2803618999895,981.2803618999895,983.7803983999764,983.7803983999764,983.7642968999572,None,0.0,,,,,,,nback41,1.0,2023-12-19_17h41.44.459,untitled,2023.2.3,60.00132002512176,2023-12-19 18h42.25.668772 -0500,
,"[-0.2, 0.1]",None,,,,,,,,,0.0,28.0,28.0,28.0,983.7803983999764,,,,,,,,,,,,,,,,,,,,,,,,,,,,,,,,,,,,,,,,,,,,,,,,,,,,,,,,,,,,,,,,,,983.7649151000078,983.7803983999764,983.7803983999764,984.2804270999624,984.2804270999624,986.7802176999976,986.7802176999976,986.7643708999968,None,1.0,,,,,,,nback41,1.0,2023-12-19_17h41.44.459,untitled,2023.2.3,60.00132002512176,2023-12-19 18h42.25.668772 -0500,
,"[0.2, 0.1]",None,,,,,,,,,0.0,29.0,29.0,29.0,986.7802176999976,,,,,,,,,,,,,,,,,,,,,,,,,,,,,,,,,,,,,,,,,,,,,,,,,,,,,,,,,,,,,,,,,,986.7651338999858,986.7802176999976,986.7802176999976,987.2803931999952,987.2803931999952,989.7801516999608,989.7801516999608,989.7640939999836,None,1.0,,,,,,,nback41,1.0,2023-12-19_17h41.44.459,untitled,2023.2.3,60.00132002512176,2023-12-19 18h42.25.668772 -0500,
,"[-0.64, -0.4]",None,,,,,,,,,0.0,30.0,30.0,30.0,989.7801516999608,,,,,,,,,,,,,,,,,,,,,,,,,,,,,,,,,,,,,,,,,,,,,,,,,,,,,,,,,,,,,,,,,,989.7645114999614,989.7801516999608,989.7801516999608,990.2803430999628,990.2803430999628,992.780141700001,992.780141700001,992.7646478000096,None,1.0,,,,,,,nback41,1.0,2023-12-19_17h41.44.459,untitled,2023.2.3,60.00132002512176,2023-12-19 18h42.25.668772 -0500,
,"[0, -0.2]",None,,,,,,,,,0.0,31.0,31.0,31.0,992.780141700001,,,,,,,,,,,,,,,,,,,,,,,,,,,,,,,,,,,,,,,,,,,,,,,,,,,,,,,,,,,,,,,,,,992.7654943999952,992.780141700001,992.780141700001,993.2802163999876,993.2802163999876,995.7801070999705,995.7801070999705,995.764015099965,None,1.0,,,,,,,nback41,1.0,2023-12-19_17h41.44.459,untitled,2023.2.3,60.00132002512176,2023-12-19 18h42.25.668772 -0500,
,"[-0.64, -0.4]",space,,,,,,,,,0.0,32.0,32.0,32.0,995.7801070999705,,,,,,,,,,,,,,,,,,,,,,,,,,,,,,,,,,,,,,,,,,,,,,,,,,,,,,,,,,,,,,,,,,995.7646658999728,995.7801070999705,995.7801070999705,996.2801757999696,996.2801757999696,998.7800059999572,998.7800059999572,998.764189599955,space,1.0,0.4718757000518963,None,,,,,nback41,1.0,2023-12-19_17h41.44.459,untitled,2023.2.3,60.00132002512176,2023-12-19 18h42.25.668772 -0500,
,"[0.64, 0.4]",None,,,,,,,,,0.0,33.0,33.0,33.0,998.7800059999572,,,,,,,,,,,,,,,,,,,,,,,,,,,,,,,,,,,,,,,,,,,,,,,,,,,,,,,,,,,,,,,,,,998.7649191999808,998.7800059999572,998.7800059999572,999.28008279996,999.28008279996,1001.7801091999864,1001.7801091999864,1001.7643929999904,None,1.0,,,,,,,nback41,1.0,2023-12-19_17h41.44.459,untitled,2023.2.3,60.00132002512176,2023-12-19 18h42.25.668772 -0500,
,"[-0.3, 0]",None,,,,,,,,,0.0,34.0,34.0,34.0,1001.7801091999864,,,,,,,,,,,,,,,,,,,,,,,,,,,,,,,,,,,,,,,,,,,,,,,,,,,,,,,,,,,,,,,,,,1001.7652977000108,1001.7801091999864,1001.7801091999864,1002.2801121000084,1002.2801121000084,1004.7799014999764,1004.7799014999764,1004.764433400007,None,1.0,,,,,,,nback41,1.0,2023-12-19_17h41.44.459,untitled,2023.2.3,60.00132002512176,2023-12-19 18h42.25.668772 -0500,
,"[0.3, 0]",None,,,,,,,,,0.0,35.0,35.0,35.0,1004.7799014999764,,,,,,,,,,,,,,,,,,,,,,,,,,,,,,,,,,,,,,,,,,,,,,,,,,,,,,,,,,,,,,,,,,1004.7653844999732,1004.7799014999764,1004.7799014999764,1005.2799705999788,1005.2799705999788,1007.7798807999934,1007.7798807999934,1007.7639166999724,None,1.0,,,,,,,nback41,1.0,2023-12-19_17h41.44.459,untitled,2023.2.3,60.00132002512176,2023-12-19 18h42.25.668772 -0500,
,"[-0.3, 0]",space,,,,,,,,,0.0,36.0,36.0,36.0,1007.7798807999934,,,,,,,,,,,,,,,,,,,,,,,,,,,,,,,,,,,,,,,,,,,,,,,,,,,,,,,,,,,,,,,,,,1007.764621099981,1007.7798807999934,1007.7798807999934,1008.2800444999592,1008.2800444999592,1010.7797296000062,1010.7797296000062,1010.7640466999728,space,1.0,0.3917778999893926,None,,,,,nback41,1.0,2023-12-19_17h41.44.459,untitled,2023.2.3,60.00132002512176,2023-12-19 18h42.25.668772 -0500,
,"[0, -0.2]",None,,,,,,,,,0.0,37.0,37.0,37.0,1010.7797296000062,,,,,,,,,,,,,,,,,,,,,,,,,,,,,,,,,,,,,,,,,,,,,,,,,,,,,,,,,,,,,,,,,,1010.7650929999654,1010.7797296000062,1010.7797296000062,1011.2799192999956,1011.2799192999956,1013.7798610999598,1013.7798610999598,1013.7640368999564,None,1.0,,,,,,,nback41,1.0,2023-12-19_17h41.44.459,untitled,2023.2.3,60.00132002512176,2023-12-19 18h42.25.668772 -0500,
,"[0.3, 0]",None,,,,,,,,,0.0,38.0,38.0,38.0,1013.7798610999598,,,,,,,,,,,,,,,,,,,,,,,,,,,,,,,,,,,,,,,,,,,,,,,,,,,,,,,,,,,,,,,,,,1013.7647948999656,1013.7798610999598,1013.7798610999598,1014.279733399977,1014.279733399977,1016.7799298999598,1016.7799298999598,1016.7637272999856,None,1.0,,,,,,,nback41,1.0,2023-12-19_17h41.44.459,untitled,2023.2.3,60.00132002512176,2023-12-19 18h42.25.668772 -0500,
,"[0.2, 0.1]",None,,,,,,,,,0.0,39.0,39.0,39.0,1016.7799298999598,,,,,,,,,,,,,,,,,,,,,,,,,,,,,,,,,,,,,,,,,,,,,,,,,,,,,,,,,,,,,,,,,,1016.7644535999862,1016.7799298999598,1016.7799298999598,1017.279902099981,1017.279902099981,1019.7797591999988,1019.7797591999988,1019.7643282999634,None,1.0,,,,,,,nback41,1.0,2023-12-19_17h41.44.459,untitled,2023.2.3,60.00132002512176,2023-12-19 18h42.25.668772 -0500,
,,,,,,,,,,,,,,,,,,,,,,,,,,,,,,,,,,,,,,,,,,,,,,,,,,,,,,,,,,,,,,,,,,,,,,,,,,,,,,,,,,,,,,,,,,,,,1019.7649409999722,1019.7797591999988,1022.7796116999816,1022.7637452000054,,,,,,,,
