square,location,corrAns,trials_0.thisRepN,trials_0.thisTrialN,trials_0.thisN,trials_0.thisIndex,trials_1.thisRepN,trials_1.thisTrialN,trials_1.thisN,trials_1.thisIndex,trials_2.thisRepN,trials_2.thisTrialN,trials_2.thisN,trials_2.thisIndex,thisRow.t,notes,Instructions.started,instructions.started,key_resp.started,inst_sq11.started,Instructions.stopped,key_resp.keys,key_resp.rt,key_resp.duration,All.started,sq_1.started,sq_2.started,sq_3.started,sq_4.started,sq_5.started,sq_6.started,sq_7.started,sq_8.started,sq_9.started,sq_10.started,sq_11.started,sq_12.started,All.stopped,Fixation.started,fixation_3.started,fixation_3.stopped,Fixation.stopped,N_back_0_Trial.started,target_square_0.started,response_0.started,fixation_0.started,target_square_0.stopped,fixation_0.stopped,N_back_0_Trial.stopped,response_0.keys,response_0.corr,response_0.rt,response_0.duration,Instructions_1.started,instructions_1.started,key_resp_1.started,Instructions_1.stopped,key_resp_1.keys,key_resp_1.rt,key_resp_1.duration,N_back_1_Trial.started,target_square_1.started,response_1.started,fixation_1.started,target_square_1.stopped,fixation_1.stopped,N_back_1_Trial.stopped,response_1.keys,response_1.corr,response_1.rt,response_1.duration,Instructions_2.started,instructions_2.started,key_resp_2.started,Instructions_2.stopped,key_resp_2.keys,key_resp_2.rt,key_resp_2.duration,N_back_2_trials.started,target_square_2.started,response_2.started,fixation_2.started,target_square_2.stopped,fixation_2.stopped,N_back_2_trials.stopped,response_2.keys,response_2.corr,response_2.rt,response_2.duration,End.started,thank_you.started,End.stopped,participant,session,date,expName,psychopyVersion,frameRate,expStart,Unnamed: 100
,,,,,,,,,,,,,,,,,0.0015703000826761,0.0040127000538632,0.0040127000538632,0.0040127000538632,1769.9174955000635,space,1769.9074422999984,None,,,,,,,,,,,,,,,,,,,,,,,,,,,,,,,,,,,,,,,,,,,,,,,,,,,,,,,,,,,,,,,,,,,,,nback68,1.0,2024-01-23_09h23.21.458,untitled,2023.2.3,59.92886446829918,2024-01-23 09h42.43.416623 -0500,
6.0,"[-0.3, 0]",None,0.0,0.0,0.0,0.0,,,,,,,,,1771.9358901000817,,,,,,,,,,1769.9175389000447,1769.932390000089,1769.932390000089,1769.932390000089,1769.932390000089,1769.932390000089,1769.932390000089,1769.932390000089,1769.932390000089,1769.932390000089,1769.932390000089,1769.932390000089,1769.932390000089,1770.9163841999834,1770.9164034000132,1770.9324244000018,1771.9358901000817,1771.9166418000823,1771.9340096000817,1771.9358901000817,1771.9358901000817,1772.415793800028,1772.4492137000198,1774.9158128000563,1774.9327471000142,None,1.0,,,,,,,,,,,,,,,,,,,,,,,,,,,,,,,,,,,,,,,,,,nback68,1.0,2024-01-23_09h23.21.458,untitled,2023.2.3,59.92886446829918,2024-01-23 09h42.43.416623 -0500,
10.0,"[0, -0.2]",None,0.0,1.0,1.0,1.0,,,,,,,,,1774.9492372000825,,,,,,,,,,,,,,,,,,,,,,,,,,,,1774.933818200021,1774.9492372000825,1774.9492372000825,1775.4158260000404,1775.4491831000196,1777.9156402000226,1777.93263559998,None,1.0,,,,,,,,,,,,,,,,,,,,,,,,,,,,,,,,,,,,,,,,,,nback68,1.0,2024-01-23_09h23.21.458,untitled,2023.2.3,59.92886446829918,2024-01-23 09h42.43.416623 -0500,
11.0,"[-0.64, -0.4]",space,0.0,2.0,2.0,2.0,,,,,,,,,1777.9490547000896,,,,,,,,,,,,,,,,,,,,,,,,,,,,1777.933398900088,1777.9490547000896,1777.9490547000896,1778.41563589999,1778.4490693000844,1780.915892600082,1780.932496500085,space,1.0,0.4852903999853879,None,,,,,,,,,,,,,,,,,,,,,,,,,,,,,,,,,,,,,,,,nback68,1.0,2024-01-23_09h23.21.458,untitled,2023.2.3,59.92886446829918,2024-01-23 09h42.43.416623 -0500,
12.0,"[0.64, -0.4]",None,0.0,3.0,3.0,3.0,,,,,,,,,1780.9488870999776,,,,,,,,,,,,,,,,,,,,,,,,,,,,1780.9337284000358,1780.9488870999776,1780.9488870999776,1781.4156389000127,1781.448901200085,1783.9157464000164,1783.9324087999994,None,1.0,,,,,,,,,,,,,,,,,,,,,,,,,,,,,,,,,,,,,,,,,,nback68,1.0,2024-01-23_09h23.21.458,untitled,2023.2.3,59.92886446829918,2024-01-23 09h42.43.416623 -0500,
1.0,"[-0.64, 0.4]",None,0.0,4.0,4.0,4.0,,,,,,,,,1783.9489321000874,,,,,,,,,,,,,,,,,,,,,,,,,,,,1783.9332050000085,1783.9489321000874,1783.9489321000874,1784.4158859000308,1784.4489841000177,1786.9156681000022,1786.9324888000265,None,1.0,,,,,,,,,,,,,,,,,,,,,,,,,,,,,,,,,,,,,,,,,,nback68,1.0,2024-01-23_09h23.21.458,untitled,2023.2.3,59.92886446829918,2024-01-23 09h42.43.416623 -0500,
1.0,"[-0.64, 0.4]",None,0.0,5.0,5.0,5.0,,,,,,,,,1786.9489130000584,,,,,,,,,,,,,,,,,,,,,,,,,,,,1786.9332217000192,1786.9489130000584,1786.9489130000584,1787.415503700031,1787.4488139000025,1789.9155470000114,1789.9324265000178,None,1.0,,,,,,,,,,,,,,,,,,,,,,,,,,,,,,,,,,,,,,,,,,nback68,1.0,2024-01-23_09h23.21.458,untitled,2023.2.3,59.92886446829918,2024-01-23 09h42.43.416623 -0500,
4.0,"[-0.2, 0.1]",None,0.0,6.0,6.0,6.0,,,,,,,,,1789.9488964000484,,,,,,,,,,,,,,,,,,,,,,,,,,,,1789.933156199986,1789.9488964000484,1789.9488964000484,1790.4153245000634,1790.4487702000188,1792.9155520000495,1792.932405999978,None,1.0,,,,,,,,,,,,,,,,,,,,,,,,,,,,,,,,,,,,,,,,,,nback68,1.0,2024-01-23_09h23.21.458,untitled,2023.2.3,59.92886446829918,2024-01-23 09h42.43.416623 -0500,
5.0,"[0.2, 0.1]",None,0.0,7.0,7.0,7.0,,,,,,,,,1792.9489160000812,,,,,,,,,,,,,,,,,,,,,,,,,,,,1792.9331819000654,1792.9489160000812,1792.9489160000812,1793.4154313000618,1793.448630800005,1795.9155863000778,1795.9324793000706,space,0.0,0.3103113999823108,None,,,,,,,,,,,,,,,,,,,,,,,,,,,,,,,,,,,,,,,,nback68,1.0,2024-01-23_09h23.21.458,untitled,2023.2.3,59.92886446829918,2024-01-23 09h42.43.416623 -0500,
11.0,"[-0.64, -0.4]",space,0.0,8.0,8.0,8.0,,,,,,,,,1795.948725400027,,,,,,,,,,,,,,,,,,,,,,,,,,,,1795.9334707000526,1795.948725400027,1795.948725400027,1796.4153080000542,1796.4486946000252,1798.9153399000645,1798.9323980000336,space,1.0,0.4322898000245914,None,,,,,,,,,,,,,,,,,,,,,,,,,,,,,,,,,,,,,,,,nback68,1.0,2024-01-23_09h23.21.458,untitled,2023.2.3,59.92886446829918,2024-01-23 09h42.43.416623 -0500,
9.0,"[0.2, -0.1]",None,0.0,9.0,9.0,9.0,,,,,,,,,1798.9486977000488,,,,,,,,,,,,,,,,,,,,,,,,,,,,1798.9334296000889,1798.9486977000488,1798.9486977000488,1799.4320172000444,1799.448612499982,1801.931993199978,1801.9321988000304,None,1.0,,,,,,,,,,,,,,,,,,,,,,,,,,,,,,,,,,,,,,,,,,nback68,1.0,2024-01-23_09h23.21.458,untitled,2023.2.3,59.92886446829918,2024-01-23 09h42.43.416623 -0500,
8.0,"[-0.2, -0.1]",None,0.0,10.0,10.0,10.0,,,,,,,,,1801.948478300008,,,,,,,,,,,,,,,,,,,,,,,,,,,,1801.9329898,1801.948478300008,1801.948478300008,1802.415210700012,1802.4487310000693,1804.9153162,1804.931814600015,None,1.0,,,,,,,,,,,,,,,,,,,,,,,,,,,,,,,,,,,,,,,,,,nback68,1.0,2024-01-23_09h23.21.458,untitled,2023.2.3,59.92886446829918,2024-01-23 09h42.43.416623 -0500,
9.0,"[0.2, -0.1]",None,0.0,11.0,11.0,11.0,,,,,,,,,1804.9483601000395,,,,,,,,,,,,,,,,,,,,,,,,,,,,1804.9321356000144,1804.9483601000395,1804.9483601000395,1805.4321083000395,1805.4485522999892,1807.931829100009,1807.9320189000573,None,1.0,,,,,,,,,,,,,,,,,,,,,,,,,,,,,,,,,,,,,,,,,,nback68,1.0,2024-01-23_09h23.21.458,untitled,2023.2.3,59.92886446829918,2024-01-23 09h42.43.416623 -0500,
6.0,"[-0.3, 0]",None,0.0,12.0,12.0,12.0,,,,,,,,,1807.9484772,,,,,,,,,,,,,,,,,,,,,,,,,,,,1807.9327562000835,1807.9484772,1807.9484772,1808.4319065000163,1808.4486139999933,1810.931846600026,1810.9320357000688,None,1.0,,,,,,,,,,,,,,,,,,,,,,,,,,,,,,,,,,,,,,,,,,nback68,1.0,2024-01-23_09h23.21.458,untitled,2023.2.3,59.92886446829918,2024-01-23 09h42.43.416623 -0500,
9.0,"[0.2, -0.1]",None,0.0,13.0,13.0,13.0,,,,,,,,,1810.948490299983,,,,,,,,,,,,,,,,,,,,,,,,,,,,1810.9327561000828,1810.948490299983,1810.948490299983,1811.4320098999888,1811.4484423000831,1813.931844000006,1813.9320606000256,None,1.0,,,,,,,,,,,,,,,,,,,,,,,,,,,,,,,,,,,,,,,,,,nback68,1.0,2024-01-23_09h23.21.458,untitled,2023.2.3,59.92886446829918,2024-01-23 09h42.43.416623 -0500,
7.0,"[0.3, 0]",None,0.0,14.0,14.0,14.0,,,,,,,,,1813.948282300029,,,,,,,,,,,,,,,,,,,,,,,,,,,,1813.9329347000455,1813.948282300029,1813.948282300029,1814.431932699983,1814.448437700048,1816.9317070000104,1816.9318693000823,None,1.0,,,,,,,,,,,,,,,,,,,,,,,,,,,,,,,,,,,,,,,,,,nback68,1.0,2024-01-23_09h23.21.458,untitled,2023.2.3,59.92886446829918,2024-01-23 09h42.43.416623 -0500,
2.0,"[0.64, 0.4]",None,0.0,15.0,15.0,15.0,,,,,,,,,1816.9482515000277,,,,,,,,,,,,,,,,,,,,,,,,,,,,1816.932653900003,1816.9482515000277,1816.9482515000277,1817.431638600072,1817.4483396,1819.9316193000411,1819.9318013000304,None,1.0,,,,,,,,,,,,,,,,,,,,,,,,,,,,,,,,,,,,,,,,,,nback68,1.0,2024-01-23_09h23.21.458,untitled,2023.2.3,59.92886446829918,2024-01-23 09h42.43.416623 -0500,
2.0,"[0.64, 0.4]",None,0.0,16.0,16.0,16.0,,,,,,,,,1819.9484141999856,,,,,,,,,,,,,,,,,,,,,,,,,,,,1819.93259630003,1819.9484141999856,1819.9484141999856,1820.431645000004,1820.4484392000595,1822.931549000088,1822.931715000072,None,1.0,,,,,,,,,,,,,,,,,,,,,,,,,,,,,,,,,,,,,,,,,,nback68,1.0,2024-01-23_09h23.21.458,untitled,2023.2.3,59.92886446829918,2024-01-23 09h42.43.416623 -0500,
11.0,"[-0.64, -0.4]",space,0.0,17.0,17.0,17.0,,,,,,,,,1822.9481552999928,,,,,,,,,,,,,,,,,,,,,,,,,,,,1822.9323439000875,1822.9481552999928,1822.9481552999928,1823.4316082000728,1823.4482343000127,1825.9316572999812,1825.9318394000877,space,1.0,0.3876612999010831,None,,,,,,,,,,,,,,,,,,,,,,,,,,,,,,,,,,,,,,,,nback68,1.0,2024-01-23_09h23.21.458,untitled,2023.2.3,59.92886446829918,2024-01-23 09h42.43.416623 -0500,
11.0,"[-0.64, -0.4]",space,0.0,18.0,18.0,18.0,,,,,,,,,1825.9482982000336,,,,,,,,,,,,,,,,,,,,,,,,,,,,1825.932656000019,1825.9482982000336,1825.9482982000336,1826.4314378000563,1826.4480194000064,1828.9314357000403,1828.931636900059,space,1.0,0.4574795999797061,None,,,,,,,,,,,,,,,,,,,,,,,,,,,,,,,,,,,,,,,,nback68,1.0,2024-01-23_09h23.21.458,untitled,2023.2.3,59.92886446829918,2024-01-23 09h42.43.416623 -0500,
7.0,"[0.3, 0]",None,0.0,19.0,19.0,19.0,,,,,,,,,1828.9482168999969,,,,,,,,,,,,,,,,,,,,,,,,,,,,1828.9325572000816,1828.9482168999969,1828.9482168999969,1829.4315252000235,1829.4481349000707,1831.93143960007,1831.9316133999964,None,1.0,,,,,,,,,,,,,,,,,,,,,,,,,,,,,,,,,,,,,,,,,,nback68,1.0,2024-01-23_09h23.21.458,untitled,2023.2.3,59.92886446829918,2024-01-23 09h42.43.416623 -0500,
3.0,"[0, 0.2]",None,0.0,20.0,20.0,20.0,,,,,,,,,1831.9481848999856,,,,,,,,,,,,,,,,,,,,,,,,,,,,1831.9322556999975,1831.9481848999856,1831.9481848999856,1832.431473899982,1832.4481191000668,1834.9314111000856,1834.9315791000845,None,1.0,,,,,,,,,,,,,,,,,,,,,,,,,,,,,,,,,,,,,,,,,,nback68,1.0,2024-01-23_09h23.21.458,untitled,2023.2.3,59.92886446829918,2024-01-23 09h42.43.416623 -0500,
10.0,"[0, -0.2]",None,0.0,21.0,21.0,21.0,,,,,,,,,1834.9480914000887,,,,,,,,,,,,,,,,,,,,,,,,,,,,1834.9322563000023,1834.9480914000887,1834.9480914000887,1835.4315669999924,1835.4481432000173,1837.9312979000388,1837.9314779000124,None,1.0,,,,,,,,,,,,,,,,,,,,,,,,,,,,,,,,,,,,,,,,,,nback68,1.0,2024-01-23_09h23.21.458,untitled,2023.2.3,59.92886446829918,2024-01-23 09h42.43.416623 -0500,
1.0,"[-0.64, 0.4]",None,0.0,22.0,22.0,22.0,,,,,,,,,1837.947929100017,,,,,,,,,,,,,,,,,,,,,,,,,,,,1837.9322363000829,1837.947929100017,1837.947929100017,1838.4315488000864,1838.447981600068,1840.9313242000064,1840.9314865000777,None,1.0,,,,,,,,,,,,,,,,,,,,,,,,,,,,,,,,,,,,,,,,,,nback68,1.0,2024-01-23_09h23.21.458,untitled,2023.2.3,59.92886446829918,2024-01-23 09h42.43.416623 -0500,
2.0,"[0.64, 0.4]",None,0.0,23.0,23.0,23.0,,,,,,,,,1840.9478480999824,,,,,,,,,,,,,,,,,,,,,,,,,,,,1840.9320993000877,1840.9478480999824,1840.9478480999824,1841.4311748000327,1841.447985899984,1843.9313854000063,1843.9315993000052,None,1.0,,,,,,,,,,,,,,,,,,,,,,,,,,,,,,,,,,,,,,,,,,nback68,1.0,2024-01-23_09h23.21.458,untitled,2023.2.3,59.92886446829918,2024-01-23 09h42.43.416623 -0500,
6.0,"[-0.3, 0]",None,0.0,24.0,24.0,24.0,,,,,,,,,1843.9480409000532,,,,,,,,,,,,,,,,,,,,,,,,,,,,1843.9324087999996,1843.9480409000532,1843.9480409000532,1844.431441700086,1844.4478924000869,1846.9311670000895,1846.9313565000195,None,1.0,,,,,,,,,,,,,,,,,,,,,,,,,,,,,,,,,,,,,,,,,,nback68,1.0,2024-01-23_09h23.21.458,untitled,2023.2.3,59.92886446829918,2024-01-23 09h42.43.416623 -0500,
3.0,"[0, 0.2]",None,0.0,25.0,25.0,25.0,,,,,,,,,1846.94791680004,,,,,,,,,,,,,,,,,,,,,,,,,,,,1846.9321752000835,1846.94791680004,1846.94791680004,1847.4311873000115,1847.4478816000048,1849.9313504000893,1849.9315493000904,None,1.0,,,,,,,,,,,,,,,,,,,,,,,,,,,,,,,,,,,,,,,,,,nback68,1.0,2024-01-23_09h23.21.458,untitled,2023.2.3,59.92886446829918,2024-01-23 09h42.43.416623 -0500,
11.0,"[-0.64, -0.4]",space,0.0,26.0,26.0,26.0,,,,,,,,,1849.9477819000604,,,,,,,,,,,,,,,,,,,,,,,,,,,,1849.932364200009,1849.9477819000604,1849.9477819000604,1850.4311603000388,1850.4477598000085,1852.9312943000116,1852.931514200056,space,1.0,0.3595516999484971,None,,,,,,,,,,,,,,,,,,,,,,,,,,,,,,,,,,,,,,,,nback68,1.0,2024-01-23_09h23.21.458,untitled,2023.2.3,59.92886446829918,2024-01-23 09h42.43.416623 -0500,
1.0,"[-0.64, 0.4]",None,0.0,27.0,27.0,27.0,,,,,,,,,1852.947817999986,,,,,,,,,,,,,,,,,,,,,,,,,,,,1852.9324000000488,1852.947817999986,1852.947817999986,1853.431382699986,1853.447883100016,1855.931166900089,1855.9313714000164,None,1.0,,,,,,,,,,,,,,,,,,,,,,,,,,,,,,,,,,,,,,,,,,nback68,1.0,2024-01-23_09h23.21.458,untitled,2023.2.3,59.92886446829918,2024-01-23 09h42.43.416623 -0500,
3.0,"[0, 0.2]",None,0.0,28.0,28.0,28.0,,,,,,,,,1855.9477137000067,,,,,,,,,,,,,,,,,,,,,,,,,,,,1855.93214550009,1855.9477137000067,1855.9477137000067,1856.4311207000865,1856.4476924000771,1858.930995700066,1858.9312025000108,None,1.0,,,,,,,,,,,,,,,,,,,,,,,,,,,,,,,,,,,,,,,,,,nback68,1.0,2024-01-23_09h23.21.458,untitled,2023.2.3,59.92886446829918,2024-01-23 09h42.43.416623 -0500,
9.0,"[0.2, -0.1]",None,0.0,29.0,29.0,29.0,,,,,,,,,1858.9477048000556,,,,,,,,,,,,,,,,,,,,,,,,,,,,1858.9319787999848,1858.9477048000556,1858.9477048000556,1859.4310474999947,1859.4476702000247,1861.9310240000489,1861.9312188000183,None,1.0,,,,,,,,,,,,,,,,,,,,,,,,,,,,,,,,,,,,,,,,,,nback68,1.0,2024-01-23_09h23.21.458,untitled,2023.2.3,59.92886446829918,2024-01-23 09h42.43.416623 -0500,
8.0,"[-0.2, -0.1]",None,0.0,30.0,30.0,30.0,,,,,,,,,1861.9475544000743,,,,,,,,,,,,,,,,,,,,,,,,,,,,1861.93193010008,1861.9475544000743,1861.9475544000743,1862.431046599988,1862.4476749000603,1864.9309614000376,1864.931174200028,None,1.0,,,,,,,,,,,,,,,,,,,,,,,,,,,,,,,,,,,,,,,,,,nback68,1.0,2024-01-23_09h23.21.458,untitled,2023.2.3,59.92886446829918,2024-01-23 09h42.43.416623 -0500,
12.0,"[0.64, -0.4]",None,0.0,31.0,31.0,31.0,,,,,,,,,1864.947570000077,,,,,,,,,,,,,,,,,,,,,,,,,,,,1864.931992900092,1864.947570000077,1864.947570000077,1865.431028900086,1865.4476077000145,1867.9309082999823,1867.9311144000385,None,1.0,,,,,,,,,,,,,,,,,,,,,,,,,,,,,,,,,,,,,,,,,,nback68,1.0,2024-01-23_09h23.21.458,untitled,2023.2.3,59.92886446829918,2024-01-23 09h42.43.416623 -0500,
9.0,"[0.2, -0.1]",None,0.0,32.0,32.0,32.0,,,,,,,,,1867.9474035000892,,,,,,,,,,,,,,,,,,,,,,,,,,,,1867.9318718999857,1867.9474035000892,1867.9474035000892,1868.4308748000767,1868.4475315000163,1870.9309892000165,1870.93119100004,None,1.0,,,,,,,,,,,,,,,,,,,,,,,,,,,,,,,,,,,,,,,,,,nback68,1.0,2024-01-23_09h23.21.458,untitled,2023.2.3,59.92886446829918,2024-01-23 09h42.43.416623 -0500,
11.0,"[-0.64, -0.4]",space,0.0,33.0,33.0,33.0,,,,,,,,,1870.9474590000464,,,,,,,,,,,,,,,,,,,,,,,,,,,,1870.9319766000845,1870.9474590000464,1870.9474590000464,1871.4309871000005,1871.4474266000325,1873.9307570999956,1873.9309525000865,space,1.0,0.4081121999770403,None,,,,,,,,,,,,,,,,,,,,,,,,,,,,,,,,,,,,,,,,nback68,1.0,2024-01-23_09h23.21.458,untitled,2023.2.3,59.92886446829918,2024-01-23 09h42.43.416623 -0500,
7.0,"[0.3, 0]",None,0.0,34.0,34.0,34.0,,,,,,,,,1873.9473977000453,,,,,,,,,,,,,,,,,,,,,,,,,,,,1873.931861600024,1873.9473977000453,1873.9473977000453,1874.430789300008,1874.447402000078,1876.930733400048,1876.9308379000288,None,1.0,,,,,,,,,,,,,,,,,,,,,,,,,,,,,,,,,,,,,,,,,,nback68,1.0,2024-01-23_09h23.21.458,untitled,2023.2.3,59.92886446829918,2024-01-23 09h42.43.416623 -0500,
11.0,"[-0.64, -0.4]",space,0.0,35.0,35.0,35.0,,,,,,,,,1876.947371300077,,,,,,,,,,,,,,,,,,,,,,,,,,,,1876.9314397000708,1876.947371300077,1876.947371300077,1877.430594400037,1877.4472247000083,1879.9306185999883,1879.9308201000092,space,1.0,0.4669147999957204,None,,,,,,,,,,,,,,,,,,,,,,,,,,,,,,,,,,,,,,,,nback68,1.0,2024-01-23_09h23.21.458,untitled,2023.2.3,59.92886446829918,2024-01-23 09h42.43.416623 -0500,
4.0,"[-0.2, 0.1]",None,0.0,36.0,36.0,36.0,,,,,,,,,1879.947249000077,,,,,,,,,,,,,,,,,,,,,,,,,,,,1879.9317657999927,1879.947249000077,1879.947249000077,1880.430573699996,1880.44733320002,1882.930593200028,1882.93076690007,space,0.0,0.2076585000613704,None,,,,,,,,,,,,,,,,,,,,,,,,,,,,,,,,,,,,,,,,nback68,1.0,2024-01-23_09h23.21.458,untitled,2023.2.3,59.92886446829918,2024-01-23 09h42.43.416623 -0500,
5.0,"[0.2, 0.1]",None,0.0,37.0,37.0,37.0,,,,,,,,,1882.9471208000325,,,,,,,,,,,,,,,,,,,,,,,,,,,,1882.9315671999937,1882.9471208000325,1882.9471208000325,1883.430753700086,1883.4472551000072,1885.930507900077,1885.9306889000584,None,1.0,,,,,,,,,,,,,,,,,,,,,,,,,,,,,,,,,,,,,,,,,,nback68,1.0,2024-01-23_09h23.21.458,untitled,2023.2.3,59.92886446829918,2024-01-23 09h42.43.416623 -0500,
6.0,"[-0.3, 0]",None,0.0,38.0,38.0,38.0,,,,,,,,,1885.9472160000587,,,,,,,,,,,,,,,,,,,,,,,,,,,,1885.9313829999885,1885.9472160000587,1885.9472160000587,1886.4305212000615,1886.4470573000144,1888.9304050999929,1888.930606000009,None,1.0,,,,,,,,,,,,,,,,,,,,,,,,,,,,,,,,,,,,,,,,,,nback68,1.0,2024-01-23_09h23.21.458,untitled,2023.2.3,59.92886446829918,2024-01-23 09h42.43.416623 -0500,
11.0,"[-0.64, -0.4]",space,0.0,39.0,39.0,39.0,,,,,,,,,1888.9471902999796,,,,,,,,,,,,,,,,,,,,,,,,,,,,1888.931453300058,1888.9471902999796,1888.9471902999796,1889.4304037999827,1889.4470205000837,1891.9302785000764,1891.9304459000705,space,1.0,0.3551286000292748,None,,,,,,,,,,,,,,,,,,,,,,,,,,,,,,,,,,,,,,,,nback68,1.0,2024-01-23_09h23.21.458,untitled,2023.2.3,59.92886446829918,2024-01-23 09h42.43.416623 -0500,
,,,,,,,,,,,,,,,,,,,,,,,,,,,,,,,,,,,,,,,,,,,,,,,,,,,,,,1891.9310372000327,1891.9471335000128,1891.9471335000128,1907.1486243000252,space,15.19865050003864,None,,,,,,,,,,,,,,,,,,,,,,,,,,,,,,,,,nback68,1.0,2024-01-23_09h23.21.458,untitled,2023.2.3,59.92886446829918,2024-01-23 09h42.43.416623 -0500,
10.0,"[0, -0.2]",None,,,,,0.0,0.0,0.0,0.0,,,,,1908.1654956000857,,,,,,,,,,,,,,,,,,,,,,,,1907.148675500066,1907.1633934000276,1908.1654956000857,1908.1477278000675,,,,,,,,,,,,,,,,,,,1908.1635626000352,1908.1654956000857,1908.1654956000857,1908.663455800037,1908.6801170000108,1911.1635336000472,1911.163738899981,None,1.0,,,,,,,,,,,,,,,,,,,,,,,,nback68,1.0,2024-01-23_09h23.21.458,untitled,2023.2.3,59.92886446829918,2024-01-23 09h42.43.416623 -0500,
5.0,"[0.2, 0.1]",None,,,,,0.0,1.0,1.0,1.0,,,,,1911.17990550003,,,,,,,,,,,,,,,,,,,,,,,,,,,,,,,,,,,,,,,,,,,,,,1911.1646057000617,1911.17990550003,1911.17990550003,1911.663434999995,1911.6802461000625,1914.1633333000357,1914.1635264999927,None,1.0,,,,,,,,,,,,,,,,,,,,,,,,nback68,1.0,2024-01-23_09h23.21.458,untitled,2023.2.3,59.92886446829918,2024-01-23 09h42.43.416623 -0500,
6.0,"[-0.3, 0]",None,,,,,0.0,2.0,2.0,2.0,,,,,1914.1799870000689,,,,,,,,,,,,,,,,,,,,,,,,,,,,,,,,,,,,,,,,,,,,,,1914.16426650004,1914.1799870000689,1914.1799870000689,1914.6633350000484,1914.680019200081,1917.1634742000608,1917.1636857000408,None,1.0,,,,,,,,,,,,,,,,,,,,,,,,nback68,1.0,2024-01-23_09h23.21.458,untitled,2023.2.3,59.92886446829918,2024-01-23 09h42.43.416623 -0500,
6.0,"[-0.3, 0]",space,,,,,0.0,3.0,3.0,3.0,,,,,1917.1802227000007,,,,,,,,,,,,,,,,,,,,,,,,,,,,,,,,,,,,,,,,,,,,,,1917.164506400004,1917.1802227000007,1917.1802227000007,1917.6632835000053,1917.6801481000148,1920.163367600064,1920.163586599985,space,1.0,0.6683114999905229,None,,,,,,,,,,,,,,,,,,,,,,nback68,1.0,2024-01-23_09h23.21.458,untitled,2023.2.3,59.92886446829918,2024-01-23 09h42.43.416623 -0500,
12.0,"[0.64, -0.4]",None,,,,,0.0,4.0,4.0,4.0,,,,,1920.18002780003,,,,,,,,,,,,,,,,,,,,,,,,,,,,,,,,,,,,,,,,,,,,,,1920.1647400000363,1920.18002780003,1920.18002780003,1920.66344090004,1920.680134500028,1923.1632046999875,1923.163398200064,None,1.0,,,,,,,,,,,,,,,,,,,,,,,,nback68,1.0,2024-01-23_09h23.21.458,untitled,2023.2.3,59.92886446829918,2024-01-23 09h42.43.416623 -0500,
10.0,"[0, -0.2]",None,,,,,0.0,5.0,5.0,5.0,,,,,1923.1798174000576,,,,,,,,,,,,,,,,,,,,,,,,,,,,,,,,,,,,,,,,,,,,,,1923.164118300076,1923.1798174000576,1923.1798174000576,1923.6630878000287,1923.6799148999853,1926.163149500033,1926.163370800088,None,1.0,,,,,,,,,,,,,,,,,,,,,,,,nback68,1.0,2024-01-23_09h23.21.458,untitled,2023.2.3,59.92886446829918,2024-01-23 09h42.43.416623 -0500,
2.0,"[0.64, 0.4]",None,,,,,0.0,6.0,6.0,6.0,,,,,1926.179889000021,,,,,,,,,,,,,,,,,,,,,,,,,,,,,,,,,,,,,,,,,,,,,,1926.1642148999963,1926.179889000021,1926.179889000021,1926.6631052000448,1926.6799218000376,1929.1631684000604,1929.163371300092,None,1.0,,,,,,,,,,,,,,,,,,,,,,,,nback68,1.0,2024-01-23_09h23.21.458,untitled,2023.2.3,59.92886446829918,2024-01-23 09h42.43.416623 -0500,
9.0,"[0.2, -0.1]",None,,,,,0.0,7.0,7.0,7.0,,,,,1929.1797706000507,,,,,,,,,,,,,,,,,,,,,,,,,,,,,,,,,,,,,,,,,,,,,,1929.164177000057,1929.1797706000507,1929.1797706000507,1929.6630333000796,1929.6796621000396,1932.1629763999956,1932.1631628000175,None,1.0,,,,,,,,,,,,,,,,,,,,,,,,nback68,1.0,2024-01-23_09h23.21.458,untitled,2023.2.3,59.92886446829918,2024-01-23 09h42.43.416623 -0500,
9.0,"[0.2, -0.1]",space,,,,,0.0,8.0,8.0,8.0,,,,,1932.179719800013,,,,,,,,,,,,,,,,,,,,,,,,,,,,,,,,,,,,,,,,,,,,,,1932.1638687000377,1932.179719800013,1932.179719800013,1932.66295170004,1932.679584800033,1935.163002000074,1935.163179300027,space,1.0,0.523060999927111,None,,,,,,,,,,,,,,,,,,,,,,nback68,1.0,2024-01-23_09h23.21.458,untitled,2023.2.3,59.92886446829918,2024-01-23 09h42.43.416623 -0500,
6.0,"[-0.3, 0]",None,,,,,0.0,9.0,9.0,9.0,,,,,1935.179599400028,,,,,,,,,,,,,,,,,,,,,,,,,,,,,,,,,,,,,,,,,,,,,,1935.163972900016,1935.179599400028,1935.179599400028,1935.663051099982,1935.6795680000212,1938.1628390999977,1938.1630068999948,None,1.0,,,,,,,,,,,,,,,,,,,,,,,,nback68,1.0,2024-01-23_09h23.21.458,untitled,2023.2.3,59.92886446829918,2024-01-23 09h42.43.416623 -0500,
11.0,"[-0.64, -0.4]",None,,,,,0.0,10.0,10.0,10.0,,,,,1938.179639999988,,,,,,,,,,,,,,,,,,,,,,,,,,,,,,,,,,,,,,,,,,,,,,1938.1636405000463,1938.179639999988,1938.179639999988,1938.6629912999924,1938.679577300092,1941.163036599988,1941.1632561000297,None,1.0,,,,,,,,,,,,,,,,,,,,,,,,nback68,1.0,2024-01-23_09h23.21.458,untitled,2023.2.3,59.92886446829918,2024-01-23 09h42.43.416623 -0500,
11.0,"[-0.64, -0.4]",space,,,,,0.0,11.0,11.0,11.0,,,,,1941.1796259999971,,,,,,,,,,,,,,,,,,,,,,,,,,,,,,,,,,,,,,,,,,,,,,1941.164103700081,1941.1796259999971,1941.1796259999971,1941.662744500092,1941.6797374000307,1944.16280140006,1944.1629920999983,space,1.0,0.3706352000590414,None,,,,,,,,,,,,,,,,,,,,,,nback68,1.0,2024-01-23_09h23.21.458,untitled,2023.2.3,59.92886446829918,2024-01-23 09h42.43.416623 -0500,
4.0,"[-0.2, 0.1]",None,,,,,0.0,12.0,12.0,12.0,,,,,1944.1794758000176,,,,,,,,,,,,,,,,,,,,,,,,,,,,,,,,,,,,,,,,,,,,,,1944.163879300002,1944.1794758000176,1944.1794758000176,1944.663003800088,1944.6795733000615,1947.1628281000303,1947.1630437000424,None,1.0,,,,,,,,,,,,,,,,,,,,,,,,nback68,1.0,2024-01-23_09h23.21.458,untitled,2023.2.3,59.92886446829918,2024-01-23 09h42.43.416623 -0500,
3.0,"[0, 0.2]",None,,,,,0.0,13.0,13.0,13.0,,,,,1947.179750200012,,,,,,,,,,,,,,,,,,,,,,,,,,,,,,,,,,,,,,,,,,,,,,1947.16387639998,1947.179750200012,1947.179750200012,1947.6626524000892,1947.6793672000056,1950.1627994000448,1950.163015200058,None,1.0,,,,,,,,,,,,,,,,,,,,,,,,nback68,1.0,2024-01-23_09h23.21.458,untitled,2023.2.3,59.92886446829918,2024-01-23 09h42.43.416623 -0500,
3.0,"[0, 0.2]",space,,,,,0.0,14.0,14.0,14.0,,,,,1950.179551600013,,,,,,,,,,,,,,,,,,,,,,,,,,,,,,,,,,,,,,,,,,,,,,1950.1638202000177,1950.179551600013,1950.179551600013,1950.662829900044,1950.6794686000796,1953.1627419000724,1953.162935300032,space,1.0,0.5522467000409961,None,,,,,,,,,,,,,,,,,,,,,,nback68,1.0,2024-01-23_09h23.21.458,untitled,2023.2.3,59.92886446829918,2024-01-23 09h42.43.416623 -0500,
8.0,"[-0.2, -0.1]",None,,,,,0.0,15.0,15.0,15.0,,,,,1953.1794942000413,,,,,,,,,,,,,,,,,,,,,,,,,,,,,,,,,,,,,,,,,,,,,,1953.163807200035,1953.1794942000413,1953.1794942000413,1953.66260270006,1953.679303199984,1956.1627479000017,1956.1629652000263,None,1.0,,,,,,,,,,,,,,,,,,,,,,,,nback68,1.0,2024-01-23_09h23.21.458,untitled,2023.2.3,59.92886446829918,2024-01-23 09h42.43.416623 -0500,
1.0,"[-0.64, 0.4]",None,,,,,0.0,16.0,16.0,16.0,,,,,1956.179465700057,,,,,,,,,,,,,,,,,,,,,,,,,,,,,,,,,,,,,,,,,,,,,,1956.163839600049,1956.179465700057,1956.179465700057,1956.6625656000103,1956.6794205000624,1959.162572600064,1959.1627949000103,None,1.0,,,,,,,,,,,,,,,,,,,,,,,,nback68,1.0,2024-01-23_09h23.21.458,untitled,2023.2.3,59.92886446829918,2024-01-23 09h42.43.416623 -0500,
2.0,"[0.64, 0.4]",None,,,,,0.0,17.0,17.0,17.0,,,,,1959.179380299989,,,,,,,,,,,,,,,,,,,,,,,,,,,,,,,,,,,,,,,,,,,,,,1959.1636468999784,1959.179380299989,1959.179380299989,1959.662710700068,1959.6791880000385,1962.162611000007,1962.162784300046,None,1.0,,,,,,,,,,,,,,,,,,,,,,,,nback68,1.0,2024-01-23_09h23.21.458,untitled,2023.2.3,59.92886446829918,2024-01-23 09h42.43.416623 -0500,
4.0,"[-0.2, 0.1]",None,,,,,0.0,18.0,18.0,18.0,,,,,1962.1791726000372,,,,,,,,,,,,,,,,,,,,,,,,,,,,,,,,,,,,,,,,,,,,,,1962.1634622000856,1962.1791726000372,1962.1791726000372,1962.6626645000647,1962.6792168000247,1965.1625329999952,1965.162733400008,None,1.0,,,,,,,,,,,,,,,,,,,,,,,,nback68,1.0,2024-01-23_09h23.21.458,untitled,2023.2.3,59.92886446829918,2024-01-23 09h42.43.416623 -0500,
4.0,"[-0.2, 0.1]",space,,,,,0.0,19.0,19.0,19.0,,,,,1965.179244800005,,,,,,,,,,,,,,,,,,,,,,,,,,,,,,,,,,,,,,,,,,,,,,1965.163505200064,1965.179244800005,1965.179244800005,1965.662600300042,1965.679129300057,1968.162400200032,1968.1626133000243,space,1.0,0.5053249000338838,None,,,,,,,,,,,,,,,,,,,,,,nback68,1.0,2024-01-23_09h23.21.458,untitled,2023.2.3,59.92886446829918,2024-01-23 09h42.43.416623 -0500,
8.0,"[-0.2, -0.1]",None,,,,,0.0,20.0,20.0,20.0,,,,,1968.1789660999784,,,,,,,,,,,,,,,,,,,,,,,,,,,,,,,,,,,,,,,,,,,,,,1968.1636055000129,1968.1789660999784,1968.1789660999784,1968.662427400006,1968.678955500014,1971.1626490000635,1971.1628445000388,None,1.0,,,,,,,,,,,,,,,,,,,,,,,,nback68,1.0,2024-01-23_09h23.21.458,untitled,2023.2.3,59.92886446829918,2024-01-23 09h42.43.416623 -0500,
5.0,"[0.2, 0.1]",None,,,,,0.0,21.0,21.0,21.0,,,,,1971.1789180000776,,,,,,,,,,,,,,,,,,,,,,,,,,,,,,,,,,,,,,,,,,,,,,1971.1636316999795,1971.1789180000776,1971.1789180000776,1971.6624321000415,1971.679106800002,1974.1624147000257,1974.1626128000207,None,1.0,,,,,,,,,,,,,,,,,,,,,,,,nback68,1.0,2024-01-23_09h23.21.458,untitled,2023.2.3,59.92886446829918,2024-01-23 09h42.43.416623 -0500,
5.0,"[0.2, 0.1]",space,,,,,0.0,22.0,22.0,22.0,,,,,1974.1789645000829,,,,,,,,,,,,,,,,,,,,,,,,,,,,,,,,,,,,,,,,,,,,,,1974.1634278000563,1974.1789645000829,1974.1789645000829,1974.6623447000748,1974.6790282999864,1977.162258299999,1977.1624512000708,space,1.0,0.3221394000574946,None,,,,,,,,,,,,,,,,,,,,,,nback68,1.0,2024-01-23_09h23.21.458,untitled,2023.2.3,59.92886446829918,2024-01-23 09h42.43.416623 -0500,
1.0,"[-0.64, 0.4]",None,,,,,0.0,23.0,23.0,23.0,,,,,1977.1791161000729,,,,,,,,,,,,,,,,,,,,,,,,,,,,,,,,,,,,,,,,,,,,,,1977.163320700056,1977.1791161000729,1977.1791161000729,1977.662238900084,1977.6788647000208,1980.1622680000728,1980.1624884000048,None,1.0,,,,,,,,,,,,,,,,,,,,,,,,nback68,1.0,2024-01-23_09h23.21.458,untitled,2023.2.3,59.92886446829918,2024-01-23 09h42.43.416623 -0500,
3.0,"[0, 0.2]",None,,,,,0.0,24.0,24.0,24.0,,,,,1980.1787818000885,,,,,,,,,,,,,,,,,,,,,,,,,,,,,,,,,,,,,,,,,,,,,,1980.1633179000344,1980.1787818000885,1980.1787818000885,1980.6623915000816,1980.678924900014,1983.1621771000791,1983.1623787999847,None,1.0,,,,,,,,,,,,,,,,,,,,,,,,nback68,1.0,2024-01-23_09h23.21.458,untitled,2023.2.3,59.92886446829918,2024-01-23 09h42.43.416623 -0500,
6.0,"[-0.3, 0]",None,,,,,0.0,25.0,25.0,25.0,,,,,1983.1788165000037,,,,,,,,,,,,,,,,,,,,,,,,,,,,,,,,,,,,,,,,,,,,,,1983.1631932000164,1983.1788165000037,1983.1788165000037,1983.6620153000115,1983.6787603000407,1986.1620131999955,1986.162219900056,None,1.0,,,,,,,,,,,,,,,,,,,,,,,,nback68,1.0,2024-01-23_09h23.21.458,untitled,2023.2.3,59.92886446829918,2024-01-23 09h42.43.416623 -0500,
1.0,"[-0.64, 0.4]",None,,,,,0.0,26.0,26.0,26.0,,,,,1986.1792403000877,,,,,,,,,,,,,,,,,,,,,,,,,,,,,,,,,,,,,,,,,,,,,,1986.162993200007,1986.1792403000877,1986.1792403000877,1986.6622052000605,1986.67871560005,1989.1621268000451,1989.1623044000007,None,1.0,,,,,,,,,,,,,,,,,,,,,,,,nback68,1.0,2024-01-23_09h23.21.458,untitled,2023.2.3,59.92886446829918,2024-01-23 09h42.43.416623 -0500,
1.0,"[-0.64, 0.4]",space,,,,,0.0,27.0,27.0,27.0,,,,,1989.178717700066,,,,,,,,,,,,,,,,,,,,,,,,,,,,,,,,,,,,,,,,,,,,,,1989.163020899985,1989.178717700066,1989.178717700066,1989.6620671000564,1989.6787561000087,1992.1621545000237,1992.1623830000167,space,1.0,0.6150712000671774,None,,,,,,,,,,,,,,,,,,,,,,nback68,1.0,2024-01-23_09h23.21.458,untitled,2023.2.3,59.92886446829918,2024-01-23 09h42.43.416623 -0500,
1.0,"[-0.64, 0.4]",space,,,,,0.0,28.0,28.0,28.0,,,,,1992.178813299979,,,,,,,,,,,,,,,,,,,,,,,,,,,,,,,,,,,,,,,,,,,,,,1992.1632097000256,1992.178813299979,1992.178813299979,1992.661971600028,1992.67867100006,1995.1619285000488,1995.1621102000356,space,1.0,1.2382513999473304,None,,,,,,,,,,,,,,,,,,,,,,nback68,1.0,2024-01-23_09h23.21.458,untitled,2023.2.3,59.92886446829918,2024-01-23 09h42.43.416623 -0500,
3.0,"[0, 0.2]",None,,,,,0.0,29.0,29.0,29.0,,,,,1995.1784286000768,,,,,,,,,,,,,,,,,,,,,,,,,,,,,,,,,,,,,,,,,,,,,,1995.1628744000336,1995.1784286000768,1995.1784286000768,1995.662204600056,1995.6787334000687,1998.162017500028,1998.162231000024,None,1.0,,,,,,,,,,,,,,,,,,,,,,,,nback68,1.0,2024-01-23_09h23.21.458,untitled,2023.2.3,59.92886446829918,2024-01-23 09h42.43.416623 -0500,
12.0,"[0.64, -0.4]",None,,,,,0.0,30.0,30.0,30.0,,,,,1998.17859460006,,,,,,,,,,,,,,,,,,,,,,,,,,,,,,,,,,,,,,,,,,,,,,1998.1630406000183,1998.17859460006,1998.17859460006,1998.662392300088,1998.67833600007,2001.161885100068,2001.1620887999889,None,1.0,,,,,,,,,,,,,,,,,,,,,,,,nback68,1.0,2024-01-23_09h23.21.458,untitled,2023.2.3,59.92886446829918,2024-01-23 09h42.43.416623 -0500,
12.0,"[0.64, -0.4]",space,,,,,0.0,31.0,31.0,31.0,,,,,2001.178428500076,,,,,,,,,,,,,,,,,,,,,,,,,,,,,,,,,,,,,,,,,,,,,,2001.16287520004,2001.178428500076,2001.178428500076,2001.661867100047,2001.6784738000715,2004.161736399983,2004.161907300004,space,1.0,0.6660099000437185,None,,,,,,,,,,,,,,,,,,,,,,nback68,1.0,2024-01-23_09h23.21.458,untitled,2023.2.3,59.92886446829918,2024-01-23 09h42.43.416623 -0500,
2.0,"[0.64, 0.4]",None,,,,,0.0,32.0,32.0,32.0,,,,,2004.1785226999784,,,,,,,,,,,,,,,,,,,,,,,,,,,,,,,,,,,,,,,,,,,,,,2004.162700199988,2004.1785226999784,2004.1785226999784,2004.6617235000008,2004.6784794999985,2007.161689500092,2007.1618503000357,None,1.0,,,,,,,,,,,,,,,,,,,,,,,,nback68,1.0,2024-01-23_09h23.21.458,untitled,2023.2.3,59.92886446829918,2024-01-23 09h42.43.416623 -0500,
1.0,"[-0.64, 0.4]",None,,,,,0.0,33.0,33.0,33.0,,,,,2007.178289300064,,,,,,,,,,,,,,,,,,,,,,,,,,,,,,,,,,,,,,,,,,,,,,2007.1625655000096,2007.178289300064,2007.178289300064,2007.6617775000632,2007.678513900028,2010.16157830006,2010.1617148000516,None,1.0,,,,,,,,,,,,,,,,,,,,,,,,nback68,1.0,2024-01-23_09h23.21.458,untitled,2023.2.3,59.92886446829918,2024-01-23 09h42.43.416623 -0500,
7.0,"[0.3, 0]",None,,,,,0.0,34.0,34.0,34.0,,,,,2010.178583699977,,,,,,,,,,,,,,,,,,,,,,,,,,,,,,,,,,,,,,,,,,,,,,2010.1622783000348,2010.178583699977,2010.178583699977,2010.661987300031,2010.6784169999885,2013.161768099992,2013.161976100062,None,1.0,,,,,,,,,,,,,,,,,,,,,,,,nback68,1.0,2024-01-23_09h23.21.458,untitled,2023.2.3,59.92886446829918,2024-01-23 09h42.43.416623 -0500,
7.0,"[0.3, 0]",space,,,,,0.0,35.0,35.0,35.0,,,,,2013.178352100076,,,,,,,,,,,,,,,,,,,,,,,,,,,,,,,,,,,,,,,,,,,,,,2013.1628106000132,2013.178352100076,2013.178352100076,2013.661743300036,2013.678327200003,2016.161667700042,2016.1618868000803,space,1.0,0.4119415999157354,None,,,,,,,,,,,,,,,,,,,,,,nback68,1.0,2024-01-23_09h23.21.458,untitled,2023.2.3,59.92886446829918,2024-01-23 09h42.43.416623 -0500,
11.0,"[-0.64, -0.4]",None,,,,,0.0,36.0,36.0,36.0,,,,,2016.17831410002,,,,,,,,,,,,,,,,,,,,,,,,,,,,,,,,,,,,,,,,,,,,,,2016.1633185000392,2016.17831410002,2016.17831410002,2016.661506100092,2016.678256000043,2019.1615221999816,2019.1617109000215,None,1.0,,,,,,,,,,,,,,,,,,,,,,,,nback68,1.0,2024-01-23_09h23.21.458,untitled,2023.2.3,59.92886446829918,2024-01-23 09h42.43.416623 -0500,
2.0,"[0.64, 0.4]",None,,,,,0.0,37.0,37.0,37.0,,,,,2019.1781327000356,,,,,,,,,,,,,,,,,,,,,,,,,,,,,,,,,,,,,,,,,,,,,,2019.1624548999823,2019.1781327000356,2019.1781327000356,2019.661660099984,2019.6782304000808,2022.1615228999872,2022.1616906999843,None,1.0,,,,,,,,,,,,,,,,,,,,,,,,nback68,1.0,2024-01-23_09h23.21.458,untitled,2023.2.3,59.92886446829918,2024-01-23 09h42.43.416623 -0500,
6.0,"[-0.3, 0]",None,,,,,0.0,38.0,38.0,38.0,,,,,2022.178180200048,,,,,,,,,,,,,,,,,,,,,,,,,,,,,,,,,,,,,,,,,,,,,,2022.1623299000785,2022.178180200048,2022.178180200048,2022.6615896000292,2022.6782703000356,2025.1615073999856,2025.1616901999805,None,1.0,,,,,,,,,,,,,,,,,,,,,,,,nback68,1.0,2024-01-23_09h23.21.458,untitled,2023.2.3,59.92886446829918,2024-01-23 09h42.43.416623 -0500,
10.0,"[0, -0.2]",None,,,,,0.0,39.0,39.0,39.0,,,,,2025.1782531000208,,,,,,,,,,,,,,,,,,,,,,,,,,,,,,,,,,,,,,,,,,,,,,2025.162369800033,2025.1782531000208,2025.1782531000208,2025.6614149999805,2025.678068100009,2028.1612974000163,2028.1614763999823,None,1.0,,,,,,,,,,,,,,,,,,,,,,,,nback68,1.0,2024-01-23_09h23.21.458,untitled,2023.2.3,59.92886446829918,2024-01-23 09h42.43.416623 -0500,
,,,,,,,,,,,,,,,,,,,,,,,,,,,,,,,,,,,,,,,,,,,,,,,,,,,,,,,,,,,,,,,,,,,,,,,,2028.1619550000175,2028.1781699000855,2028.1781699000855,2041.4458273000785,space,13.26355859998148,None,,,,,,,,,,,,,,,nback68,1.0,2024-01-23_09h23.21.458,untitled,2023.2.3,59.92886446829918,2024-01-23 09h42.43.416623 -0500,
,"[0.2, 0.1]",None,,,,,,,,,0.0,0.0,0.0,0.0,2042.4623102000917,,,,,,,,,,,,,,,,,,,,,,,,2041.4458710000615,2041.46121530002,2042.4623102000917,2042.4453633000376,,,,,,,,,,,,,,,,,,,,,,,,,,,,,,,,,,,,,2042.4603075999769,2042.4623102000917,2042.4623102000917,2042.961145700072,2042.9778853000607,2045.460924700019,2045.4611183999805,None,1.0,,,,,,nback68,1.0,2024-01-23_09h23.21.458,untitled,2023.2.3,59.92886446829918,2024-01-23 09h42.43.416623 -0500,
,"[0.64, 0.4]",None,,,,,,,,,0.0,1.0,1.0,1.0,2045.477792700054,,,,,,,,,,,,,,,,,,,,,,,,,,,,,,,,,,,,,,,,,,,,,,,,,,,,,,,,,,,,,,,,2045.462018700084,2045.477792700054,2045.477792700054,2045.9611318000825,2045.977824400063,2048.4608256000797,2048.4609781000763,None,1.0,,,,,,nback68,1.0,2024-01-23_09h23.21.458,untitled,2023.2.3,59.92886446829918,2024-01-23 09h42.43.416623 -0500,
,"[-0.3, 0]",None,,,,,,,,,0.0,2.0,2.0,2.0,2048.477605300024,,,,,,,,,,,,,,,,,,,,,,,,,,,,,,,,,,,,,,,,,,,,,,,,,,,,,,,,,,,,,,,,2048.4615765000926,2048.477605300024,2048.477605300024,2048.9610460000117,2048.977593800053,2051.461069900077,2051.46128430008,None,1.0,,,,,,nback68,1.0,2024-01-23_09h23.21.458,untitled,2023.2.3,59.92886446829918,2024-01-23 09h42.43.416623 -0500,
,"[0.2, -0.1]",None,,,,,,,,,0.0,3.0,3.0,3.0,2051.477581900079,,,,,,,,,,,,,,,,,,,,,,,,,,,,,,,,,,,,,,,,,,,,,,,,,,,,,,,,,,,,,,,,2051.46210470004,2051.477581900079,2051.477581900079,2051.961071000085,2051.977561000036,2054.46086500003,2054.461035000044,None,1.0,,,,,,nback68,1.0,2024-01-23_09h23.21.458,untitled,2023.2.3,59.92886446829918,2024-01-23 09h42.43.416623 -0500,
,"[0, 0.2]",None,,,,,,,,,0.0,4.0,4.0,4.0,2054.4774605000857,,,,,,,,,,,,,,,,,,,,,,,,,,,,,,,,,,,,,,,,,,,,,,,,,,,,,,,,,,,,,,,,2054.461690200027,2054.4774605000857,2054.4774605000857,2054.960839400068,2054.97748900007,2057.460727000027,2057.46089820005,None,1.0,,,,,,nback68,1.0,2024-01-23_09h23.21.458,untitled,2023.2.3,59.92886446829918,2024-01-23 09h42.43.416623 -0500,
,"[0.2, -0.1]",space,,,,,,,,,0.0,5.0,5.0,5.0,2057.4774492,,,,,,,,,,,,,,,,,,,,,,,,,,,,,,,,,,,,,,,,,,,,,,,,,,,,,,,,,,,,,,,,2057.4615596000804,2057.4774492,2057.4774492,2057.9608819000423,2057.977390600019,2060.460816400009,2060.4610211000545,space,1.0,0.515748200006783,None,,,,nback68,1.0,2024-01-23_09h23.21.458,untitled,2023.2.3,59.92886446829918,2024-01-23 09h42.43.416623 -0500,
,"[0, -0.2]",None,,,,,,,,,0.0,6.0,6.0,6.0,2060.477525299997,,,,,,,,,,,,,,,,,,,,,,,,,,,,,,,,,,,,,,,,,,,,,,,,,,,,,,,,,,,,,,,,2060.4622826999985,2060.477525299997,2060.477525299997,2060.960895700031,2060.977610900067,2063.4608742999844,2063.4610880999826,None,1.0,,,,,,nback68,1.0,2024-01-23_09h23.21.458,untitled,2023.2.3,59.92886446829918,2024-01-23 09h42.43.416623 -0500,
,"[0.64, -0.4]",None,,,,,,,,,0.0,7.0,7.0,7.0,2063.477278599981,,,,,,,,,,,,,,,,,,,,,,,,,,,,,,,,,,,,,,,,,,,,,,,,,,,,,,,,,,,,,,,,2063.4619495000225,2063.477278599981,2063.477278599981,2063.960759800044,2063.9773964000638,2066.4607882000278,2066.4609913000604,None,1.0,,,,,,nback68,1.0,2024-01-23_09h23.21.458,untitled,2023.2.3,59.92886446829918,2024-01-23 09h42.43.416623 -0500,
,"[0.3, 0]",None,,,,,,,,,0.0,8.0,8.0,8.0,2066.477266300004,,,,,,,,,,,,,,,,,,,,,,,,,,,,,,,,,,,,,,,,,,,,,,,,,,,,,,,,,,,,,,,,2066.461734500015,2066.477266300004,2066.477266300004,2066.9605934000574,2066.9775365000824,2069.460719100083,2069.4609530000016,None,1.0,,,,,,nback68,1.0,2024-01-23_09h23.21.458,untitled,2023.2.3,59.92886446829918,2024-01-23 09h42.43.416623 -0500,
,"[0.64, -0.4]",space,,,,,,,,,0.0,9.0,9.0,9.0,2069.477386099985,,,,,,,,,,,,,,,,,,,,,,,,,,,,,,,,,,,,,,,,,,,,,,,,,,,,,,,,,,,,,,,,2069.4618582000257,2069.477386099985,2069.477386099985,2069.9608519000467,2069.977398100076,2072.4606424000813,2072.460841100081,space,1.0,0.8603885000338778,None,,,,nback68,1.0,2024-01-23_09h23.21.458,untitled,2023.2.3,59.92886446829918,2024-01-23 09h42.43.416623 -0500,
,"[-0.64, 0.4]",None,,,,,,,,,0.0,10.0,10.0,10.0,2072.47722650005,,,,,,,,,,,,,,,,,,,,,,,,,,,,,,,,,,,,,,,,,,,,,,,,,,,,,,,,,,,,,,,,2072.461860800045,2072.47722650005,2072.47722650005,2072.960598899983,2072.977133100037,2075.460490500089,2075.460672400077,None,1.0,,,,,,nback68,1.0,2024-01-23_09h23.21.458,untitled,2023.2.3,59.92886446829918,2024-01-23 09h42.43.416623 -0500,
,"[0.2, 0.1]",None,,,,,,,,,0.0,11.0,11.0,11.0,2075.4772323999787,,,,,,,,,,,,,,,,,,,,,,,,,,,,,,,,,,,,,,,,,,,,,,,,,,,,,,,,,,,,,,,,2075.461389800068,2075.4772323999787,2075.4772323999787,2075.9605623000534,2075.977345000021,2078.4605704999994,2078.460767699988,None,1.0,,,,,,nback68,1.0,2024-01-23_09h23.21.458,untitled,2023.2.3,59.92886446829918,2024-01-23 09h42.43.416623 -0500,
,"[0.3, 0]",None,,,,,,,,,0.0,12.0,12.0,12.0,2078.477027100045,,,,,,,,,,,,,,,,,,,,,,,,,,,,,,,,,,,,,,,,,,,,,,,,,,,,,,,,,,,,,,,,2078.4615294000832,2078.477027100045,2078.477027100045,2078.960479600006,2078.9769554000814,2081.4603749000235,2081.4605552,None,1.0,,,,,,nback68,1.0,2024-01-23_09h23.21.458,untitled,2023.2.3,59.92886446829918,2024-01-23 09h42.43.416623 -0500,
,"[0.2, 0.1]",space,,,,,,,,,0.0,13.0,13.0,13.0,2081.477019499988,,,,,,,,,,,,,,,,,,,,,,,,,,,,,,,,,,,,,,,,,,,,,,,,,,,,,,,,,,,,,,,,2081.4612546000862,2081.477019499988,2081.477019499988,2081.9604441000847,2081.977103900048,2084.460305300076,2084.460488700075,space,1.0,0.7546629999997094,None,,,,nback68,1.0,2024-01-23_09h23.21.458,untitled,2023.2.3,59.92886446829918,2024-01-23 09h42.43.416623 -0500,
,"[-0.3, 0]",None,,,,,,,,,0.0,14.0,14.0,14.0,2084.476994400029,,,,,,,,,,,,,,,,,,,,,,,,,,,,,,,,,,,,,,,,,,,,,,,,,,,,,,,,,,,,,,,,2084.461284900084,2084.476994400029,2084.476994400029,2084.960410700063,2084.9770261000376,2087.4604296000907,2087.4606481000083,None,1.0,,,,,,nback68,1.0,2024-01-23_09h23.21.458,untitled,2023.2.3,59.92886446829918,2024-01-23 09h42.43.416623 -0500,
,"[0, 0.2]",None,,,,,,,,,0.0,15.0,15.0,15.0,2087.476955700084,,,,,,,,,,,,,,,,,,,,,,,,,,,,,,,,,,,,,,,,,,,,,,,,,,,,,,,,,,,,,,,,2087.4614924000343,2087.476955700084,2087.476955700084,2087.9604699000483,2087.9770631000865,2090.460303400061,2090.460474300082,None,1.0,,,,,,nback68,1.0,2024-01-23_09h23.21.458,untitled,2023.2.3,59.92886446829918,2024-01-23 09h42.43.416623 -0500,
,"[-0.3, 0]",space,,,,,,,,,0.0,16.0,16.0,16.0,2090.4770059,,,,,,,,,,,,,,,,,,,,,,,,,,,,,,,,,,,,,,,,,,,,,,,,,,,,,,,,,,,,,,,,2090.461228500004,2090.4770059,2090.4770059,2090.9601674000733,2090.9768114000326,2093.4602095000446,2093.460385399987,space,1.0,0.4108939999714494,None,,,,nback68,1.0,2024-01-23_09h23.21.458,untitled,2023.2.3,59.92886446829918,2024-01-23 09h42.43.416623 -0500,
,"[-0.64, -0.4]",None,,,,,,,,,0.0,17.0,17.0,17.0,2093.476949200034,,,,,,,,,,,,,,,,,,,,,,,,,,,,,,,,,,,,,,,,,,,,,,,,,,,,,,,,,,,,,,,,2093.4611779000843,2093.476949200034,2093.476949200034,2093.9601465000305,2093.976884100004,2096.4600950999884,2096.460274900077,None,1.0,,,,,,nback68,1.0,2024-01-23_09h23.21.458,untitled,2023.2.3,59.92886446829918,2024-01-23 09h42.43.416623 -0500,
,"[-0.2, -0.1]",None,,,,,,,,,0.0,18.0,18.0,18.0,2096.47680230008,,,,,,,,,,,,,,,,,,,,,,,,,,,,,,,,,,,,,,,,,,,,,,,,,,,,,,,,,,,,,,,,2096.460985600017,2096.47680230008,2096.47680230008,2096.9601598000154,2096.9769342000363,2099.4601195000578,2099.4603242999874,None,1.0,,,,,,nback68,1.0,2024-01-23_09h23.21.458,untitled,2023.2.3,59.92886446829918,2024-01-23 09h42.43.416623 -0500,
,"[0.2, -0.1]",None,,,,,,,,,0.0,19.0,19.0,19.0,2099.4768272000365,,,,,,,,,,,,,,,,,,,,,,,,,,,,,,,,,,,,,,,,,,,,,,,,,,,,,,,,,,,,,,,,2099.46106240002,2099.4768272000365,2099.4768272000365,2099.9599443000043,2099.9767803000286,2102.4599740999984,2102.4601806000574,None,1.0,,,,,,nback68,1.0,2024-01-23_09h23.21.458,untitled,2023.2.3,59.92886446829918,2024-01-23 09h42.43.416623 -0500,
,"[0.2, -0.1]",None,,,,,,,,,0.0,20.0,20.0,20.0,2102.476759099984,,,,,,,,,,,,,,,,,,,,,,,,,,,,,,,,,,,,,,,,,,,,,,,,,,,,,,,,,,,,,,,,2102.4609163000714,2102.476759099984,2102.476759099984,2102.96000750002,2102.9766481000697,2105.4599836000707,2105.4601444000145,None,1.0,,,,,,nback68,1.0,2024-01-23_09h23.21.458,untitled,2023.2.3,59.92886446829918,2024-01-23 09h42.43.416623 -0500,
,"[-0.64, 0.4]",None,,,,,,,,,0.0,21.0,21.0,21.0,2105.47669140005,,,,,,,,,,,,,,,,,,,,,,,,,,,,,,,,,,,,,,,,,,,,,,,,,,,,,,,,,,,,,,,,2105.4607791000744,2105.47669140005,2105.47669140005,2105.959998400067,2105.9767100000754,2108.459998000064,2108.4602342,None,1.0,,,,,,nback68,1.0,2024-01-23_09h23.21.458,untitled,2023.2.3,59.92886446829918,2024-01-23 09h42.43.416623 -0500,
,"[0, 0.2]",None,,,,,,,,,0.0,22.0,22.0,22.0,2108.4764582000207,,,,,,,,,,,,,,,,,,,,,,,,,,,,,,,,,,,,,,,,,,,,,,,,,,,,,,,,,,,,,,,,2108.4610283999937,2108.4764582000207,2108.4764582000207,2108.9599253000924,2108.976604100084,2111.459824300022,2111.459960200009,None,1.0,,,,,,nback68,1.0,2024-01-23_09h23.21.458,untitled,2023.2.3,59.92886446829918,2024-01-23 09h42.43.416623 -0500,
,"[0.64, -0.4]",None,,,,,,,,,0.0,23.0,23.0,23.0,2111.476462600054,,,,,,,,,,,,,,,,,,,,,,,,,,,,,,,,,,,,,,,,,,,,,,,,,,,,,,,,,,,,,,,,2111.460470800055,2111.476462600054,2111.476462600054,2111.9598884000443,2111.976489200024,2114.4601776000345,2114.460389400017,None,1.0,,,,,,nback68,1.0,2024-01-23_09h23.21.458,untitled,2023.2.3,59.92886446829918,2024-01-23 09h42.43.416623 -0500,
,"[0, 0.2]",space,,,,,,,,,0.0,24.0,24.0,24.0,2114.476598700043,,,,,,,,,,,,,,,,,,,,,,,,,,,,,,,,,,,,,,,,,,,,,,,,,,,,,,,,,,,,,,,,2114.461339600035,2114.476598700043,2114.476598700043,2114.959929900011,2114.976494600065,2117.4596231000032,2117.4597367000533,space,1.0,0.9589484999887644,None,,,,nback68,1.0,2024-01-23_09h23.21.458,untitled,2023.2.3,59.92886446829918,2024-01-23 09h42.43.416623 -0500,
,"[-0.2, 0.1]",None,,,,,,,,,0.0,25.0,25.0,25.0,2117.476463600062,,,,,,,,,,,,,,,,,,,,,,,,,,,,,,,,,,,,,,,,,,,,,,,,,,,,,,,,,,,,,,,,2117.460195900057,2117.476463600062,2117.476463600062,2117.959754700074,2117.976533900015,2120.45987989998,2120.460086700041,None,1.0,,,,,,nback68,1.0,2024-01-23_09h23.21.458,untitled,2023.2.3,59.92886446829918,2024-01-23 09h42.43.416623 -0500,
,"[0.3, 0]",None,,,,,,,,,0.0,26.0,26.0,26.0,2120.476414200035,,,,,,,,,,,,,,,,,,,,,,,,,,,,,,,,,,,,,,,,,,,,,,,,,,,,,,,,,,,,,,,,2120.4608951000264,2120.476414200035,2120.476414200035,2120.959642200032,2120.976592499996,2123.459755600081,2123.459962600027,None,1.0,,,,,,nback68,1.0,2024-01-23_09h23.21.458,untitled,2023.2.3,59.92886446829918,2024-01-23 09h42.43.416623 -0500,
,"[-0.2, 0.1]",space,,,,,,,,,0.0,27.0,27.0,27.0,2123.476364800008,,,,,,,,,,,,,,,,,,,,,,,,,,,,,,,,,,,,,,,,,,,,,,,,,,,,,,,,,,,,,,,,2123.4607416000217,2123.476364800008,2123.476364800008,2123.9596773000667,2123.976322100032,2126.459630700061,2126.459837500006,space,1.0,0.8156727000605315,None,,,,nback68,1.0,2024-01-23_09h23.21.458,untitled,2023.2.3,59.92886446829918,2024-01-23 09h42.43.416623 -0500,
,"[-0.2, 0.1]",None,,,,,,,,,0.0,28.0,28.0,28.0,2126.476075100014,,,,,,,,,,,,,,,,,,,,,,,,,,,,,,,,,,,,,,,,,,,,,,,,,,,,,,,,,,,,,,,,2126.4607902000425,2126.476075100014,2126.476075100014,2126.9595020000124,2126.976197300013,2129.4595924000023,2129.45979350002,None,1.0,,,,,,nback68,1.0,2024-01-23_09h23.21.458,untitled,2023.2.3,59.92886446829918,2024-01-23 09h42.43.416623 -0500,
,"[0.2, 0.1]",None,,,,,,,,,0.0,29.0,29.0,29.0,2129.4761263000546,,,,,,,,,,,,,,,,,,,,,,,,,,,,,,,,,,,,,,,,,,,,,,,,,,,,,,,,,,,,,,,,2129.460542500019,2129.4761263000546,2129.4761263000546,2129.95957070007,2129.976300899987,2132.4596762000583,2132.459905100055,None,1.0,,,,,,nback68,1.0,2024-01-23_09h23.21.458,untitled,2023.2.3,59.92886446829918,2024-01-23 09h42.43.416623 -0500,
,"[-0.64, -0.4]",None,,,,,,,,,0.0,30.0,30.0,30.0,2132.476313600084,,,,,,,,,,,,,,,,,,,,,,,,,,,,,,,,,,,,,,,,,,,,,,,,,,,,,,,,,,,,,,,,2132.4606291999808,2132.476313600084,2132.476313600084,2132.959471900016,2132.976088099997,2135.4596554000163,2135.4598665999947,None,1.0,,,,,,nback68,1.0,2024-01-23_09h23.21.458,untitled,2023.2.3,59.92886446829918,2024-01-23 09h42.43.416623 -0500,
,"[0, -0.2]",None,,,,,,,,,0.0,31.0,31.0,31.0,2135.476057599997,,,,,,,,,,,,,,,,,,,,,,,,,,,,,,,,,,,,,,,,,,,,,,,,,,,,,,,,,,,,,,,,2135.460503600072,2135.476057599997,2135.476057599997,2135.9596501000924,2135.9763033000054,2138.4594402000075,2138.4596313000657,None,1.0,,,,,,nback68,1.0,2024-01-23_09h23.21.458,untitled,2023.2.3,59.92886446829918,2024-01-23 09h42.43.416623 -0500,
,"[-0.64, -0.4]",space,,,,,,,,,0.0,32.0,32.0,32.0,2138.4760033000493,,,,,,,,,,,,,,,,,,,,,,,,,,,,,,,,,,,,,,,,,,,,,,,,,,,,,,,,,,,,,,,,2138.460420600022,2138.4760033000493,2138.4760033000493,2138.959239699994,2138.9760578999994,2141.4594820999773,2141.45969430008,space,1.0,0.4421055999118835,None,,,,nback68,1.0,2024-01-23_09h23.21.458,untitled,2023.2.3,59.92886446829918,2024-01-23 09h42.43.416623 -0500,
,"[0.64, 0.4]",None,,,,,,,,,0.0,33.0,33.0,33.0,2141.4762771000387,,,,,,,,,,,,,,,,,,,,,,,,,,,,,,,,,,,,,,,,,,,,,,,,,,,,,,,,,,,,,,,,2141.460697900038,2141.4762771000387,2141.4762771000387,2141.959463400068,2141.9762628000462,2144.4592786000576,2144.459443800035,None,1.0,,,,,,nback68,1.0,2024-01-23_09h23.21.458,untitled,2023.2.3,59.92886446829918,2024-01-23 09h42.43.416623 -0500,
,"[-0.3, 0]",None,,,,,,,,,0.0,34.0,34.0,34.0,2144.475930200075,,,,,,,,,,,,,,,,,,,,,,,,,,,,,,,,,,,,,,,,,,,,,,,,,,,,,,,,,,,,,,,,2144.4600822000066,2144.475930200075,2144.475930200075,2144.9591444000835,2144.975895300042,2147.4591887000715,2147.4593574000755,None,1.0,,,,,,nback68,1.0,2024-01-23_09h23.21.458,untitled,2023.2.3,59.92886446829918,2024-01-23 09h42.43.416623 -0500,
,"[0.3, 0]",None,,,,,,,,,0.0,35.0,35.0,35.0,2147.4761132000717,,,,,,,,,,,,,,,,,,,,,,,,,,,,,,,,,,,,,,,,,,,,,,,,,,,,,,,,,,,,,,,,2147.459977200022,2147.4761132000717,2147.4761132000717,2147.959064500057,2147.976016600034,2150.459238899988,2150.4594200000865,None,1.0,,,,,,nback68,1.0,2024-01-23_09h23.21.458,untitled,2023.2.3,59.92886446829918,2024-01-23 09h42.43.416623 -0500,
,"[-0.3, 0]",space,,,,,,,,,0.0,36.0,36.0,36.0,2150.4758013000246,,,,,,,,,,,,,,,,,,,,,,,,,,,,,,,,,,,,,,,,,,,,,,,,,,,,,,,,,,,,,,,,2150.4601290000137,2150.4758013000246,2150.4758013000246,2150.9594014000613,2150.97604660003,2153.4592033000663,2153.4593924999936,space,1.0,0.6205845000222325,None,,,,nback68,1.0,2024-01-23_09h23.21.458,untitled,2023.2.3,59.92886446829918,2024-01-23 09h42.43.416623 -0500,
,"[0, -0.2]",None,,,,,,,,,0.0,37.0,37.0,37.0,2153.475909300032,,,,,,,,,,,,,,,,,,,,,,,,,,,,,,,,,,,,,,,,,,,,,,,,,,,,,,,,,,,,,,,,2153.4602559000487,2153.475909300032,2153.475909300032,2153.959185100044,2153.975675099995,2156.459156900062,2156.4593979000347,None,1.0,,,,,,nback68,1.0,2024-01-23_09h23.21.458,untitled,2023.2.3,59.92886446829918,2024-01-23 09h42.43.416623 -0500,
,"[0.3, 0]",None,,,,,,,,,0.0,38.0,38.0,38.0,2156.475838500075,,,,,,,,,,,,,,,,,,,,,,,,,,,,,,,,,,,,,,,,,,,,,,,,,,,,,,,,,,,,,,,,2156.460209300043,2156.475838500075,2156.475838500075,2156.9590712999925,2156.975867900066,2159.459133299999,2159.4593465999933,space,0.0,0.7309278999455273,None,,,,nback68,1.0,2024-01-23_09h23.21.458,untitled,2023.2.3,59.92886446829918,2024-01-23 09h42.43.416623 -0500,
,"[0.2, 0.1]",None,,,,,,,,,0.0,39.0,39.0,39.0,2159.4757797999773,,,,,,,,,,,,,,,,,,,,,,,,,,,,,,,,,,,,,,,,,,,,,,,,,,,,,,,,,,,,,,,,2159.460336600081,2159.4757797999773,2159.4757797999773,2159.9589686000254,2159.975759800058,2162.459144500084,2162.45933480002,None,1.0,,,,,,nback68,1.0,2024-01-23_09h23.21.458,untitled,2023.2.3,59.92886446829918,2024-01-23 09h42.43.416623 -0500,
,,,,,,,,,,,,,,,,,,,,,,,,,,,,,,,,,,,,,,,,,,,,,,,,,,,,,,,,,,,,,,,,,,,,,,,,,,,,,,,,,,,,,,,,,,2162.459855100024,2162.47576880001,2165.459239599993,,,,,,,,
