square,location,corrAns,trials_0.thisRepN,trials_0.thisTrialN,trials_0.thisN,trials_0.thisIndex,trials_1.thisRepN,trials_1.thisTrialN,trials_1.thisN,trials_1.thisIndex,trials_2.thisRepN,trials_2.thisTrialN,trials_2.thisN,trials_2.thisIndex,thisRow.t,notes,Instructions.started,instructions.started,key_resp.started,inst_sq11.started,Instructions.stopped,key_resp.keys,key_resp.rt,key_resp.duration,All.started,sq_1.started,sq_2.started,sq_3.started,sq_4.started,sq_5.started,sq_6.started,sq_7.started,sq_8.started,sq_9.started,sq_10.started,sq_11.started,sq_12.started,All.stopped,Fixation.started,fixation_3.started,fixation_3.stopped,Fixation.stopped,N_back_0_Trial.started,target_square_0.started,response_0.started,fixation_0.started,target_square_0.stopped,fixation_0.stopped,N_back_0_Trial.stopped,response_0.keys,response_0.corr,response_0.rt,response_0.duration,Instructions_1.started,instructions_1.started,key_resp_1.started,Instructions_1.stopped,key_resp_1.keys,key_resp_1.rt,key_resp_1.duration,N_back_1_Trial.started,target_square_1.started,response_1.started,fixation_1.started,target_square_1.stopped,fixation_1.stopped,N_back_1_Trial.stopped,response_1.keys,response_1.corr,response_1.rt,response_1.duration,Instructions_2.started,instructions_2.started,key_resp_2.started,Instructions_2.stopped,key_resp_2.keys,key_resp_2.rt,key_resp_2.duration,N_back_2_trials.started,target_square_2.started,response_2.started,fixation_2.started,target_square_2.stopped,fixation_2.stopped,N_back_2_trials.stopped,response_2.keys,response_2.corr,response_2.rt,response_2.duration,End.started,thank_you.started,End.stopped,participant,session,date,expName,psychopyVersion,frameRate,expStart,
,,,,,,,,,,,,,,,,,0.0017874999903142452,0.004373899893835187,0.004373899893835187,0.004373899893835187,1717.0051746000536,space,1716.98309600004,None,,,,,,,,,,,,,,,,,,,,,,,,,,,,,,,,,,,,,,,,,,,,,,,,,,,,,,,,,,,,,,,,,,,,,nback74,001,2024-01-30_10h21.03.132,untitled,2023.2.3,59.94082641218299,2024-01-30 10h45.14.521678 -0500,
6,"[-0.3, 0]",None,0,0,0,0,,,,,,,,,1719.0249153999612,,,,,,,,,,1717.0052435998805,1717.0196368999314,1717.0196368999314,1717.0196368999314,1717.0196368999314,1717.0196368999314,1717.0196368999314,1717.0196368999314,1717.0196368999314,1717.0196368999314,1717.0196368999314,1717.0196368999314,1717.0196368999314,1718.0034105000086,1718.00342549989,1718.0195917999372,1719.0249153999612,1719.0040577999316,1719.022946999874,1719.0249153999612,1719.0249153999612,1719.5030359998345,1719.5362219999079,1722.002955700038,1722.020041699987,None,1,,,,,,,,,,,,,,,,,,,,,,,,,,,,,,,,,,,,,,,,,,nback74,001,2024-01-30_10h21.03.132,untitled,2023.2.3,59.94082641218299,2024-01-30 10h45.14.521678 -0500,
10,"[0, -0.2]",None,0,1,1,1,,,,,,,,,1722.0365146999247,,,,,,,,,,,,,,,,,,,,,,,,,,,,1722.0211181999184,1722.0365146999247,1722.0365146999247,1722.5031112998258,1722.5364757999778,1725.0030832998455,1725.0199434000533,None,1,,,,,,,,,,,,,,,,,,,,,,,,,,,,,,,,,,,,,,,,,,nback74,001,2024-01-30_10h21.03.132,untitled,2023.2.3,59.94082641218299,2024-01-30 10h45.14.521678 -0500,
11,"[-0.64, -0.4]",space,0,2,2,2,,,,,,,,,1725.0363717998844,,,,,,,,,,,,,,,,,,,,,,,,,,,,1725.0207656999119,1725.0363717998844,1725.0363717998844,1725.5036954998504,1725.5368500999175,1728.0029829000123,1728.019941699924,space,1,0.6505867000669241,None,,,,,,,,,,,,,,,,,,,,,,,,,,,,,,,,,,,,,,,,nback74,001,2024-01-30_10h21.03.132,untitled,2023.2.3,59.94082641218299,2024-01-30 10h45.14.521678 -0500,
12,"[0.64, -0.4]",None,0,3,3,3,,,,,,,,,1728.036323999986,,,,,,,,,,,,,,,,,,,,,,,,,,,,1728.0211968000513,1728.036323999986,1728.036323999986,1728.503039599862,1728.5364802998956,1731.003048799932,1731.0197890000418,None,1,,,,,,,,,,,,,,,,,,,,,,,,,,,,,,,,,,,,,,,,,,nback74,001,2024-01-30_10h21.03.132,untitled,2023.2.3,59.94082641218299,2024-01-30 10h45.14.521678 -0500,
1,"[-0.64, 0.4]",None,0,4,4,4,,,,,,,,,1731.0362321999855,,,,,,,,,,,,,,,,,,,,,,,,,,,,1731.0205081000458,1731.0362321999855,1731.0362321999855,1731.5030226998497,1731.5363558998797,1734.002836999949,1734.0196066999342,None,1,,,,,,,,,,,,,,,,,,,,,,,,,,,,,,,,,,,,,,,,,,nback74,001,2024-01-30_10h21.03.132,untitled,2023.2.3,59.94082641218299,2024-01-30 10h45.14.521678 -0500,
1,"[-0.64, 0.4]",None,0,5,5,5,,,,,,,,,1734.0362008998636,,,,,,,,,,,,,,,,,,,,,,,,,,,,1734.0203992999159,1734.0362008998636,1734.0362008998636,1734.5029322998598,1734.536281599896,1737.0028051999398,1737.0197568000294,None,1,,,,,,,,,,,,,,,,,,,,,,,,,,,,,,,,,,,,,,,,,,nback74,001,2024-01-30_10h21.03.132,untitled,2023.2.3,59.94082641218299,2024-01-30 10h45.14.521678 -0500,
4,"[-0.2, 0.1]",None,0,6,6,6,,,,,,,,,1737.0361546999775,,,,,,,,,,,,,,,,,,,,,,,,,,,,1737.020600500051,1737.0361546999775,1737.0361546999775,1737.5026970999315,1737.536203800002,1740.0027189999819,1740.0197176998481,None,1,,,,,,,,,,,,,,,,,,,,,,,,,,,,,,,,,,,,,,,,,,nback74,001,2024-01-30_10h21.03.132,untitled,2023.2.3,59.94082641218299,2024-01-30 10h45.14.521678 -0500,
5,"[0.2, 0.1]",None,0,7,7,7,,,,,,,,,1740.0361768000294,,,,,,,,,,,,,,,,,,,,,,,,,,,,1740.0204978999682,1740.0361768000294,1740.0361768000294,1740.5028252999764,1740.5360679998994,1743.002717099851,1743.0195801998489,None,1,,,,,,,,,,,,,,,,,,,,,,,,,,,,,,,,,,,,,,,,,,nback74,001,2024-01-30_10h21.03.132,untitled,2023.2.3,59.94082641218299,2024-01-30 10h45.14.521678 -0500,
11,"[-0.64, -0.4]",space,0,8,8,8,,,,,,,,,1743.0362074999139,,,,,,,,,,,,,,,,,,,,,,,,,,,,1743.0203549000435,1743.0362074999139,1743.0362074999139,1743.5025692000054,1743.5360121999402,1746.0026252998505,1746.0194899998605,space,1,0.38844130001962185,None,,,,,,,,,,,,,,,,,,,,,,,,,,,,,,,,,,,,,,,,nback74,001,2024-01-30_10h21.03.132,untitled,2023.2.3,59.94082641218299,2024-01-30 10h45.14.521678 -0500,
9,"[0.2, -0.1]",None,0,9,9,9,,,,,,,,,1746.0358923999593,,,,,,,,,,,,,,,,,,,,,,,,,,,,1746.02042299998,1746.0358923999593,1746.0358923999593,1746.502721299883,1746.535995400045,1749.0025180999655,1749.0195132000372,None,1,,,,,,,,,,,,,,,,,,,,,,,,,,,,,,,,,,,,,,,,,,nback74,001,2024-01-30_10h21.03.132,untitled,2023.2.3,59.94082641218299,2024-01-30 10h45.14.521678 -0500,
8,"[-0.2, -0.1]",None,0,10,10,10,,,,,,,,,1749.03605409991,,,,,,,,,,,,,,,,,,,,,,,,,,,,1749.020334099885,1749.03605409991,1749.03605409991,1749.5024738998618,1749.5358541000169,1752.002656799974,1752.0194184000138,None,1,,,,,,,,,,,,,,,,,,,,,,,,,,,,,,,,,,,,,,,,,,nback74,001,2024-01-30_10h21.03.132,untitled,2023.2.3,59.94082641218299,2024-01-30 10h45.14.521678 -0500,
9,"[0.2, -0.1]",None,0,11,11,11,,,,,,,,,1752.0359537999611,,,,,,,,,,,,,,,,,,,,,,,,,,,,1752.0202883998863,1752.0359537999611,1752.0359537999611,1752.502541200025,1752.5360337998718,1755.0024687999394,1755.0195234999992,None,1,,,,,,,,,,,,,,,,,,,,,,,,,,,,,,,,,,,,,,,,,,nback74,001,2024-01-30_10h21.03.132,untitled,2023.2.3,59.94082641218299,2024-01-30 10h45.14.521678 -0500,
6,"[-0.3, 0]",None,0,12,12,12,,,,,,,,,1755.035837299889,,,,,,,,,,,,,,,,,,,,,,,,,,,,1755.0203792999964,1755.035837299889,1755.035837299889,1755.5192021999974,1755.5357886999846,1758.0192728999536,1758.0194955999032,None,1,,,,,,,,,,,,,,,,,,,,,,,,,,,,,,,,,,,,,,,,,,nback74,001,2024-01-30_10h21.03.132,untitled,2023.2.3,59.94082641218299,2024-01-30 10h45.14.521678 -0500,
9,"[0.2, -0.1]",None,0,13,13,13,,,,,,,,,1758.0357907998841,,,,,,,,,,,,,,,,,,,,,,,,,,,,1758.0203758999705,1758.0357907998841,1758.0357907998841,1758.5023817999754,1758.5355682000518,1761.002407599939,1761.0192656000145,None,1,,,,,,,,,,,,,,,,,,,,,,,,,,,,,,,,,,,,,,,,,,nback74,001,2024-01-30_10h21.03.132,untitled,2023.2.3,59.94082641218299,2024-01-30 10h45.14.521678 -0500,
7,"[0.3, 0]",None,0,14,14,14,,,,,,,,,1761.0357770000119,,,,,,,,,,,,,,,,,,,,,,,,,,,,1761.0201179999858,1761.0357770000119,1761.0357770000119,1761.5191061999649,1761.5359032000415,1764.019055099925,1764.0192726999521,None,1,,,,,,,,,,,,,,,,,,,,,,,,,,,,,,,,,,,,,,,,,,nback74,001,2024-01-30_10h21.03.132,untitled,2023.2.3,59.94082641218299,2024-01-30 10h45.14.521678 -0500,
2,"[0.64, 0.4]",None,0,15,15,15,,,,,,,,,1764.0355601999909,,,,,,,,,,,,,,,,,,,,,,,,,,,,1764.0200310999062,1764.0355601999909,1764.0355601999909,1764.5025722000282,1764.5355920000002,1767.0023417999037,1767.019209699938,None,1,,,,,,,,,,,,,,,,,,,,,,,,,,,,,,,,,,,,,,,,,,nback74,001,2024-01-30_10h21.03.132,untitled,2023.2.3,59.94082641218299,2024-01-30 10h45.14.521678 -0500,
2,"[0.64, 0.4]",None,0,16,16,16,,,,,,,,,1767.0356566999108,,,,,,,,,,,,,,,,,,,,,,,,,,,,1767.0199837998953,1767.0356566999108,1767.0356566999108,1767.5189332000446,1767.5356976999901,1770.0190210000146,1770.0192250998225,None,1,,,,,,,,,,,,,,,,,,,,,,,,,,,,,,,,,,,,,,,,,,nback74,001,2024-01-30_10h21.03.132,untitled,2023.2.3,59.94082641218299,2024-01-30 10h45.14.521678 -0500,
11,"[-0.64, -0.4]",space,0,17,17,17,,,,,,,,,1770.0357001998927,,,,,,,,,,,,,,,,,,,,,,,,,,,,1770.0200187000446,1770.0357001998927,1770.0357001998927,1770.5189833999611,1770.5354232999962,1773.0188213998917,1773.019035999896,space,1,0.36450699996203184,None,,,,,,,,,,,,,,,,,,,,,,,,,,,,,,,,,,,,,,,,nback74,001,2024-01-30_10h21.03.132,untitled,2023.2.3,59.94082641218299,2024-01-30 10h45.14.521678 -0500,
11,"[-0.64, -0.4]",space,0,18,18,18,,,,,,,,,1773.0355447998736,,,,,,,,,,,,,,,,,,,,,,,,,,,,1773.0200511999428,1773.0355447998736,1773.0355447998736,1773.5188549000304,1773.5354110999033,1776.018834499875,1776.019023800036,space,1,0.5150886001065373,None,,,,,,,,,,,,,,,,,,,,,,,,,,,,,,,,,,,,,,,,nback74,001,2024-01-30_10h21.03.132,untitled,2023.2.3,59.94082641218299,2024-01-30 10h45.14.521678 -0500,
7,"[0.3, 0]",None,0,19,19,19,,,,,,,,,1776.0354696998838,,,,,,,,,,,,,,,,,,,,,,,,,,,,1776.0199716999196,1776.0354696998838,1776.0354696998838,1776.5188251000363,1776.5354331999552,1779.0188651999924,1779.0190659000073,None,1,,,,,,,,,,,,,,,,,,,,,,,,,,,,,,,,,,,,,,,,,,nback74,001,2024-01-30_10h21.03.132,untitled,2023.2.3,59.94082641218299,2024-01-30 10h45.14.521678 -0500,
3,"[0, 0.2]",None,0,20,20,20,,,,,,,,,1779.0353840000462,,,,,,,,,,,,,,,,,,,,,,,,,,,,1779.0198643999174,1779.0353840000462,1779.0353840000462,1779.5188239999115,1779.535480799852,1782.0187653000467,1782.0189785000402,None,1,,,,,,,,,,,,,,,,,,,,,,,,,,,,,,,,,,,,,,,,,,nback74,001,2024-01-30_10h21.03.132,untitled,2023.2.3,59.94082641218299,2024-01-30 10h45.14.521678 -0500,
10,"[0, -0.2]",None,0,21,21,21,,,,,,,,,1782.0353744998574,,,,,,,,,,,,,,,,,,,,,,,,,,,,1782.0197823999915,1782.0353744998574,1782.0353744998574,1782.5187337999232,1782.5354402000085,1785.0189171000384,1785.0191323000472,None,1,,,,,,,,,,,,,,,,,,,,,,,,,,,,,,,,,,,,,,,,,,nback74,001,2024-01-30_10h21.03.132,untitled,2023.2.3,59.94082641218299,2024-01-30 10h45.14.521678 -0500,
1,"[-0.64, 0.4]",None,0,22,22,22,,,,,,,,,1785.0354102000128,,,,,,,,,,,,,,,,,,,,,,,,,,,,1785.0199454999529,1785.0354102000128,1785.0354102000128,1785.5193033998366,1785.535980500048,1788.0185815999284,1788.0187619000208,None,1,,,,,,,,,,,,,,,,,,,,,,,,,,,,,,,,,,,,,,,,,,nback74,001,2024-01-30_10h21.03.132,untitled,2023.2.3,59.94082641218299,2024-01-30 10h45.14.521678 -0500,
2,"[0.64, 0.4]",None,0,23,23,23,,,,,,,,,1788.0352496998385,,,,,,,,,,,,,,,,,,,,,,,,,,,,1788.0194361999165,1788.0352496998385,1788.0352496998385,1788.5186719999183,1788.5352701998781,1791.0185215999372,1791.0187056998257,None,1,,,,,,,,,,,,,,,,,,,,,,,,,,,,,,,,,,,,,,,,,,nback74,001,2024-01-30_10h21.03.132,untitled,2023.2.3,59.94082641218299,2024-01-30 10h45.14.521678 -0500,
6,"[-0.3, 0]",None,0,24,24,24,,,,,,,,,1791.0351593999658,,,,,,,,,,,,,,,,,,,,,,,,,,,,1791.019494399894,1791.0351593999658,1791.0351593999658,1791.518446699949,1791.5350233998615,1794.0185187000316,1794.018700500019,None,1,,,,,,,,,,,,,,,,,,,,,,,,,,,,,,,,,,,,,,,,,,nback74,001,2024-01-30_10h21.03.132,untitled,2023.2.3,59.94082641218299,2024-01-30 10h45.14.521678 -0500,
3,"[0, 0.2]",None,0,25,25,25,,,,,,,,,1794.0352411998902,,,,,,,,,,,,,,,,,,,,,,,,,,,,1794.019376900047,1794.0352411998902,1794.0352411998902,1794.5187619000208,1794.5352802998386,1797.0185497000348,1797.018753199838,None,1,,,,,,,,,,,,,,,,,,,,,,,,,,,,,,,,,,,,,,,,,,nback74,001,2024-01-30_10h21.03.132,untitled,2023.2.3,59.94082641218299,2024-01-30 10h45.14.521678 -0500,
11,"[-0.64, -0.4]",space,0,26,26,26,,,,,,,,,1797.035061799921,,,,,,,,,,,,,,,,,,,,,,,,,,,,1797.0195184999611,1797.035061799921,1797.035061799921,1797.5183746998664,1797.5349801999982,1800.0182230998762,1800.0183751999866,space,1,0.352522199973464,None,,,,,,,,,,,,,,,,,,,,,,,,,,,,,,,,,,,,,,,,nback74,001,2024-01-30_10h21.03.132,untitled,2023.2.3,59.94082641218299,2024-01-30 10h45.14.521678 -0500,
1,"[-0.64, 0.4]",None,0,27,27,27,,,,,,,,,1800.0351038998924,,,,,,,,,,,,,,,,,,,,,,,,,,,,1800.0190898999572,1800.0351038998924,1800.0351038998924,1800.518335300032,1800.5349191999994,1803.0182986999862,1803.0184885999188,None,1,,,,,,,,,,,,,,,,,,,,,,,,,,,,,,,,,,,,,,,,,,nback74,001,2024-01-30_10h21.03.132,untitled,2023.2.3,59.94082641218299,2024-01-30 10h45.14.521678 -0500,
3,"[0, 0.2]",None,0,28,28,28,,,,,,,,,1803.034991899971,,,,,,,,,,,,,,,,,,,,,,,,,,,,1803.019238699926,1803.034991899971,1803.034991899971,1803.5182998999953,1803.534924000036,1806.0181018000003,1806.0182510998566,None,1,,,,,,,,,,,,,,,,,,,,,,,,,,,,,,,,,,,,,,,,,,nback74,001,2024-01-30_10h21.03.132,untitled,2023.2.3,59.94082641218299,2024-01-30 10h45.14.521678 -0500,
9,"[0.2, -0.1]",None,0,29,29,29,,,,,,,,,1806.03498389991,,,,,,,,,,,,,,,,,,,,,,,,,,,,1806.0188186999876,1806.03498389991,1806.03498389991,1806.5184972998686,1806.5348292000126,1809.0184247000143,1809.0186387998983,None,1,,,,,,,,,,,,,,,,,,,,,,,,,,,,,,,,,,,,,,,,,,nback74,001,2024-01-30_10h21.03.132,untitled,2023.2.3,59.94082641218299,2024-01-30 10h45.14.521678 -0500,
8,"[-0.2, -0.1]",None,0,30,30,30,,,,,,,,,1809.0349707999267,,,,,,,,,,,,,,,,,,,,,,,,,,,,1809.0194774998818,1809.0349707999267,1809.0349707999267,1809.5182111000177,1809.5349343998823,1812.0181440999731,1812.0183375000488,None,1,,,,,,,,,,,,,,,,,,,,,,,,,,,,,,,,,,,,,,,,,,nback74,001,2024-01-30_10h21.03.132,untitled,2023.2.3,59.94082641218299,2024-01-30 10h45.14.521678 -0500,
12,"[0.64, -0.4]",None,0,31,31,31,,,,,,,,,1812.034998399904,,,,,,,,,,,,,,,,,,,,,,,,,,,,1812.0191866999958,1812.034998399904,1812.034998399904,1812.5181700999383,1812.5348839999642,1815.018196299905,1815.0184108999092,None,1,,,,,,,,,,,,,,,,,,,,,,,,,,,,,,,,,,,,,,,,,,nback74,001,2024-01-30_10h21.03.132,untitled,2023.2.3,59.94082641218299,2024-01-30 10h45.14.521678 -0500,
9,"[0.2, -0.1]",None,0,32,32,32,,,,,,,,,1815.0348954999354,,,,,,,,,,,,,,,,,,,,,,,,,,,,1815.0192590998486,1815.0348954999354,1815.0348954999354,1815.5179884999525,1815.5347481998615,1818.0179995999206,1818.0181865999475,None,1,,,,,,,,,,,,,,,,,,,,,,,,,,,,,,,,,,,,,,,,,,nback74,001,2024-01-30_10h21.03.132,untitled,2023.2.3,59.94082641218299,2024-01-30 10h45.14.521678 -0500,
11,"[-0.64, -0.4]",space,0,33,33,33,,,,,,,,,1818.034859499894,,,,,,,,,,,,,,,,,,,,,,,,,,,,1818.0190079999156,1818.034859499894,1818.034859499894,1818.5178888000082,1818.534590399824,1821.0181940000039,1821.0183838999365,space,1,0.3801884001586586,None,,,,,,,,,,,,,,,,,,,,,,,,,,,,,,,,,,,,,,,,nback74,001,2024-01-30_10h21.03.132,untitled,2023.2.3,59.94082641218299,2024-01-30 10h45.14.521678 -0500,
7,"[0.3, 0]",None,0,34,34,34,,,,,,,,,1821.0347992999014,,,,,,,,,,,,,,,,,,,,,,,,,,,,1821.0192402999382,1821.0347992999014,1821.0347992999014,1821.5180623000488,1821.534478199901,1824.0179743999615,1824.0181716999505,None,1,,,,,,,,,,,,,,,,,,,,,,,,,,,,,,,,,,,,,,,,,,nback74,001,2024-01-30_10h21.03.132,untitled,2023.2.3,59.94082641218299,2024-01-30 10h45.14.521678 -0500,
11,"[-0.64, -0.4]",space,0,35,35,35,,,,,,,,,1824.034746099962,,,,,,,,,,,,,,,,,,,,,,,,,,,,1824.0189950999338,1824.034746099962,1824.034746099962,1824.517854299862,1824.5343532999977,1827.0179021998774,1827.0180877000093,space,1,0.4039960000663996,None,,,,,,,,,,,,,,,,,,,,,,,,,,,,,,,,,,,,,,,,nback74,001,2024-01-30_10h21.03.132,untitled,2023.2.3,59.94082641218299,2024-01-30 10h45.14.521678 -0500,
4,"[-0.2, 0.1]",None,0,36,36,36,,,,,,,,,1827.0345931998454,,,,,,,,,,,,,,,,,,,,,,,,,,,,1827.018894799985,1827.0345931998454,1827.0345931998454,1827.5181316998787,1827.5345898999367,1830.0178831999656,1830.0180927999318,None,1,,,,,,,,,,,,,,,,,,,,,,,,,,,,,,,,,,,,,,,,,,nback74,001,2024-01-30_10h21.03.132,untitled,2023.2.3,59.94082641218299,2024-01-30 10h45.14.521678 -0500,
5,"[0.2, 0.1]",None,0,37,37,37,,,,,,,,,1830.0346494000405,,,,,,,,,,,,,,,,,,,,,,,,,,,,1830.0189624999184,1830.0346494000405,1830.0346494000405,1830.517697099829,1830.5344089998398,1833.0178528998513,1833.0180607000366,None,1,,,,,,,,,,,,,,,,,,,,,,,,,,,,,,,,,,,,,,,,,,nback74,001,2024-01-30_10h21.03.132,untitled,2023.2.3,59.94082641218299,2024-01-30 10h45.14.521678 -0500,
6,"[-0.3, 0]",None,0,38,38,38,,,,,,,,,1833.0345165999606,,,,,,,,,,,,,,,,,,,,,,,,,,,,1833.0189212998375,1833.0345165999606,1833.0345165999606,1833.5178004000336,1833.5346784999128,1836.0178236998618,1836.01800429984,None,1,,,,,,,,,,,,,,,,,,,,,,,,,,,,,,,,,,,,,,,,,,nback74,001,2024-01-30_10h21.03.132,untitled,2023.2.3,59.94082641218299,2024-01-30 10h45.14.521678 -0500,
11,"[-0.64, -0.4]",space,0,39,39,39,,,,,,,,,1836.0345085998997,,,,,,,,,,,,,,,,,,,,,,,,,,,,1836.0186766998377,1836.0345085998997,1836.0345085998997,1836.5178345998283,1836.534531999845,1839.0176325000357,1839.0178034999408,space,1,0.3378407000564039,None,,,,,,,,,,,,,,,,,,,,,,,,,,,,,,,,,,,,,,,,nback74,001,2024-01-30_10h21.03.132,untitled,2023.2.3,59.94082641218299,2024-01-30 10h45.14.521678 -0500,
,,,,,,,,,,,,,,,,,,,,,,,,,,,,,,,,,,,,,,,,,,,,,,,,,,,,,,1839.0184098000173,1839.0345200998709,1839.0345200998709,1852.3023961000144,space,13.26368819992058,None,,,,,,,,,,,,,,,,,,,,,,,,,,,,,,,,,nback74,001,2024-01-30_10h21.03.132,untitled,2023.2.3,59.94082641218299,2024-01-30 10h45.14.521678 -0500,
10,"[0, -0.2]",None,,,,,0,0,0,0,,,,,1853.3194961999543,,,,,,,,,,,,,,,,,,,,,,,,1852.3024315999355,1852.3172297999263,1853.3194961999543,1853.3015441000462,,,,,,,,,,,,,,,,,,,1853.31756139989,1853.3194961999543,1853.3194961999543,1853.8173529000487,1853.8340461000334,1856.3172551000025,1856.3174164998345,None,1,,,,,,,,,,,,,,,,,,,,,,,,nback74,001,2024-01-30_10h21.03.132,untitled,2023.2.3,59.94082641218299,2024-01-30 10h45.14.521678 -0500,
5,"[0.2, 0.1]",None,,,,,0,1,1,1,,,,,1856.3339062999003,,,,,,,,,,,,,,,,,,,,,,,,,,,,,,,,,,,,,,,,,,,,,,1856.3181761000305,1856.3339062999003,1856.3339062999003,1856.8174822998699,1856.8340155999176,1859.3171786998864,1859.3173813999165,None,1,,,,,,,,,,,,,,,,,,,,,,,,nback74,001,2024-01-30_10h21.03.132,untitled,2023.2.3,59.94082641218299,2024-01-30 10h45.14.521678 -0500,
6,"[-0.3, 0]",None,,,,,0,2,2,2,,,,,1859.3340274000075,,,,,,,,,,,,,,,,,,,,,,,,,,,,,,,,,,,,,,,,,,,,,,1859.318166699959,1859.3340274000075,1859.3340274000075,1859.8175025000237,1859.8340407998767,1862.3172247998882,1862.3173978000414,None,1,,,,,,,,,,,,,,,,,,,,,,,,nback74,001,2024-01-30_10h21.03.132,untitled,2023.2.3,59.94082641218299,2024-01-30 10h45.14.521678 -0500,
6,"[-0.3, 0]",space,,,,,0,3,3,3,,,,,1862.333946299972,,,,,,,,,,,,,,,,,,,,,,,,,,,,,,,,,,,,,,,,,,,,,,1862.318060999969,1862.333946299972,1862.333946299972,1862.817208299879,1862.83399059996,1865.3174117000308,1865.317611800041,None,0,,,,,,,,,,,,,,,,,,,,,,,,nback74,001,2024-01-30_10h21.03.132,untitled,2023.2.3,59.94082641218299,2024-01-30 10h45.14.521678 -0500,
12,"[0.64, -0.4]",None,,,,,0,4,4,4,,,,,1865.3340062999632,,,,,,,,,,,,,,,,,,,,,,,,,,,,,,,,,,,,,,,,,,,,,,1865.3184423998464,1865.3340062999632,1865.3340062999632,1865.8173873999622,1865.8340994999744,1868.3173740999773,1868.317591900006,None,1,,,,,,,,,,,,,,,,,,,,,,,,nback74,001,2024-01-30_10h21.03.132,untitled,2023.2.3,59.94082641218299,2024-01-30 10h45.14.521678 -0500,
10,"[0, -0.2]",None,,,,,0,5,5,5,,,,,1868.3339488999918,,,,,,,,,,,,,,,,,,,,,,,,,,,,,,,,,,,,,,,,,,,,,,1868.3183634998277,1868.3339488999918,1868.3339488999918,1868.8171182998922,1868.833860799903,1871.3172712000087,1871.3174995000008,None,1,,,,,,,,,,,,,,,,,,,,,,,,nback74,001,2024-01-30_10h21.03.132,untitled,2023.2.3,59.94082641218299,2024-01-30 10h45.14.521678 -0500,
2,"[0.64, 0.4]",None,,,,,0,6,6,6,,,,,1871.3337169999722,,,,,,,,,,,,,,,,,,,,,,,,,,,,,,,,,,,,,,,,,,,,,,1871.3184374999255,1871.3337169999722,1871.3337169999722,1871.8172389999963,1871.8338720998727,1874.317130399868,1874.3173318000045,None,1,,,,,,,,,,,,,,,,,,,,,,,,nback74,001,2024-01-30_10h21.03.132,untitled,2023.2.3,59.94082641218299,2024-01-30 10h45.14.521678 -0500,
9,"[0.2, -0.1]",None,,,,,0,7,7,7,,,,,1874.333927899832,,,,,,,,,,,,,,,,,,,,,,,,,,,,,,,,,,,,,,,,,,,,,,1874.3180953999981,1874.333927899832,1874.333927899832,1874.8171440998558,1874.833800100023,1877.3170781000517,1877.3172760000452,space,0,0.4364261000882834,None,,,,,,,,,,,,,,,,,,,,,,nback74,001,2024-01-30_10h21.03.132,untitled,2023.2.3,59.94082641218299,2024-01-30 10h45.14.521678 -0500,
9,"[0.2, -0.1]",space,,,,,0,8,8,8,,,,,1877.3339253999293,,,,,,,,,,,,,,,,,,,,,,,,,,,,,,,,,,,,,,,,,,,,,,1877.3184537999332,1877.3339253999293,1877.3339253999293,1877.8170818998478,1877.833808899857,1880.317111699842,1880.317328199977,None,0,,,,,,,,,,,,,,,,,,,,,,,,nback74,001,2024-01-30_10h21.03.132,untitled,2023.2.3,59.94082641218299,2024-01-30 10h45.14.521678 -0500,
6,"[-0.3, 0]",None,,,,,0,9,9,9,,,,,1880.3336722999811,,,,,,,,,,,,,,,,,,,,,,,,,,,,,,,,,,,,,,,,,,,,,,1880.3181779999286,1880.3336722999811,1880.3336722999811,1880.817111399956,1880.833581399871,1883.3168941000476,1883.3171047000214,space,0,0.5208239001221955,None,,,,,,,,,,,,,,,,,,,,,,nback74,001,2024-01-30_10h21.03.132,untitled,2023.2.3,59.94082641218299,2024-01-30 10h45.14.521678 -0500,
11,"[-0.64, -0.4]",None,,,,,0,10,10,10,,,,,1883.3335789998528,,,,,,,,,,,,,,,,,,,,,,,,,,,,,,,,,,,,,,,,,,,,,,1883.3181292000227,1883.3335789998528,1883.3335789998528,1883.8167036999948,1883.8335078998934,1886.3170029998291,1886.3172150999308,None,1,,,,,,,,,,,,,,,,,,,,,,,,nback74,001,2024-01-30_10h21.03.132,untitled,2023.2.3,59.94082641218299,2024-01-30 10h45.14.521678 -0500,
11,"[-0.64, -0.4]",space,,,,,0,11,11,11,,,,,1886.3336006999016,,,,,,,,,,,,,,,,,,,,,,,,,,,,,,,,,,,,,,,,,,,,,,1886.3180320998654,1886.3336006999016,1886.3336006999016,1886.8167275998276,1886.8334591998719,1889.3164973999374,1889.3166350000538,space,1,0.6397820999845862,None,,,,,,,,,,,,,,,,,,,,,,nback74,001,2024-01-30_10h21.03.132,untitled,2023.2.3,59.94082641218299,2024-01-30 10h45.14.521678 -0500,
4,"[-0.2, 0.1]",None,,,,,0,12,12,12,,,,,1889.333155500004,,,,,,,,,,,,,,,,,,,,,,,,,,,,,,,,,,,,,,,,,,,,,,1889.3172656998504,1889.333155500004,1889.333155500004,1889.8166218998376,1889.8332974000368,1892.3166232998483,1892.3167659000028,space,0,0.433885799953714,None,,,,,,,,,,,,,,,,,,,,,,nback74,001,2024-01-30_10h21.03.132,untitled,2023.2.3,59.94082641218299,2024-01-30 10h45.14.521678 -0500,
3,"[0, 0.2]",None,,,,,0,13,13,13,,,,,1892.3334520000499,,,,,,,,,,,,,,,,,,,,,,,,,,,,,,,,,,,,,,,,,,,,,,1892.3173388999421,1892.3334520000499,1892.3334520000499,1892.8164663000498,1892.8334431999829,1895.3166664999444,1895.31678740005,None,1,,,,,,,,,,,,,,,,,,,,,,,,nback74,001,2024-01-30_10h21.03.132,untitled,2023.2.3,59.94082641218299,2024-01-30 10h45.14.521678 -0500,
3,"[0, 0.2]",space,,,,,0,14,14,14,,,,,1895.3331581000239,,,,,,,,,,,,,,,,,,,,,,,,,,,,,,,,,,,,,,,,,,,,,,1895.3172611999325,1895.3331581000239,1895.3331581000239,1895.8165650998708,1895.8331820999738,1898.3167286999524,1898.3169290998485,space,1,0.6643145999405533,None,,,,,,,,,,,,,,,,,,,,,,nback74,001,2024-01-30_10h21.03.132,untitled,2023.2.3,59.94082641218299,2024-01-30 10h45.14.521678 -0500,
8,"[-0.2, -0.1]",None,,,,,0,15,15,15,,,,,1898.3337212998886,,,,,,,,,,,,,,,,,,,,,,,,,,,,,,,,,,,,,,,,,,,,,,1898.317433499964,1898.3337212998886,1898.3337212998886,1898.8168402998708,1898.8331623999402,1901.316803699825,1901.3169729998335,space,0,0.46654030005447567,None,,,,,,,,,,,,,,,,,,,,,,nback74,001,2024-01-30_10h21.03.132,untitled,2023.2.3,59.94082641218299,2024-01-30 10h45.14.521678 -0500,
1,"[-0.64, 0.4]",None,,,,,0,16,16,16,,,,,1901.3332048999146,,,,,,,,,,,,,,,,,,,,,,,,,,,,,,,,,,,,,,,,,,,,,,1901.317766299937,1901.3332048999146,1901.3332048999146,1901.8165827998891,1901.8331663999707,1904.3164655000437,1904.3166344000492,None,1,,,,,,,,,,,,,,,,,,,,,,,,nback74,001,2024-01-30_10h21.03.132,untitled,2023.2.3,59.94082641218299,2024-01-30 10h45.14.521678 -0500,
2,"[0.64, 0.4]",None,,,,,0,17,17,17,,,,,1904.3331865998916,,,,,,,,,,,,,,,,,,,,,,,,,,,,,,,,,,,,,,,,,,,,,,1904.317467099987,1904.3331865998916,1904.3331865998916,1904.816633099923,1904.8330182998907,1907.3164617998991,1907.3166355998255,space,0,0.4311675999779254,None,,,,,,,,,,,,,,,,,,,,,,nback74,001,2024-01-30_10h21.03.132,untitled,2023.2.3,59.94082641218299,2024-01-30 10h45.14.521678 -0500,
4,"[-0.2, 0.1]",None,,,,,0,18,18,18,,,,,1907.333254299825,,,,,,,,,,,,,,,,,,,,,,,,,,,,,,,,,,,,,,,,,,,,,,1907.3176196999848,1907.333254299825,1907.333254299825,1907.816532799974,1907.8330184998922,1910.3164623000193,1910.3166739000008,space,0,0.6950143999420106,None,,,,,,,,,,,,,,,,,,,,,,nback74,001,2024-01-30_10h21.03.132,untitled,2023.2.3,59.94082641218299,2024-01-30 10h45.14.521678 -0500,
4,"[-0.2, 0.1]",space,,,,,0,19,19,19,,,,,1910.333001199877,,,,,,,,,,,,,,,,,,,,,,,,,,,,,,,,,,,,,,,,,,,,,,1910.3176231000107,1910.333001199877,1910.333001199877,1910.816457199864,1910.8329165999312,1913.3162858998403,1913.3164665999357,space,1,0.6109042000025511,None,,,,,,,,,,,,,,,,,,,,,,nback74,001,2024-01-30_10h21.03.132,untitled,2023.2.3,59.94082641218299,2024-01-30 10h45.14.521678 -0500,
8,"[-0.2, -0.1]",None,,,,,0,20,20,20,,,,,1913.3330432998482,,,,,,,,,,,,,,,,,,,,,,,,,,,,,,,,,,,,,,,,,,,,,,1913.3174105000217,1913.3330432998482,1913.3330432998482,1913.8161459998228,1913.8329290000256,1916.3162662000395,1916.3164301998913,space,0,0.5745784000027925,None,,,,,,,,,,,,,,,,,,,,,,nback74,001,2024-01-30_10h21.03.132,untitled,2023.2.3,59.94082641218299,2024-01-30 10h45.14.521678 -0500,
5,"[0.2, 0.1]",None,,,,,0,21,21,21,,,,,1916.333089799853,,,,,,,,,,,,,,,,,,,,,,,,,,,,,,,,,,,,,,,,,,,,,,1916.3171975000296,1916.333089799853,1916.333089799853,1916.8164156998973,1916.8330353999045,1919.3163157999516,1919.3164639000315,None,1,,,,,,,,,,,,,,,,,,,,,,,,nback74,001,2024-01-30_10h21.03.132,untitled,2023.2.3,59.94082641218299,2024-01-30 10h45.14.521678 -0500,
5,"[0.2, 0.1]",space,,,,,0,22,22,22,,,,,1919.332850900013,,,,,,,,,,,,,,,,,,,,,,,,,,,,,,,,,,,,,,,,,,,,,,1919.3170196998399,1919.332850900013,1919.332850900013,1919.8161665999796,1919.8328318998683,1922.3163854000159,1922.3165797998663,space,1,0.6618680998217314,None,,,,,,,,,,,,,,,,,,,,,,nback74,001,2024-01-30_10h21.03.132,untitled,2023.2.3,59.94082641218299,2024-01-30 10h45.14.521678 -0500,
1,"[-0.64, 0.4]",None,,,,,0,23,23,23,,,,,1922.3329356999602,,,,,,,,,,,,,,,,,,,,,,,,,,,,,,,,,,,,,,,,,,,,,,1922.3174787999596,1922.3329356999602,1922.3329356999602,1922.8162262998521,1922.83276010002,1925.3161289000418,1925.316309900023,space,0,0.33549850014969707,None,,,,,,,,,,,,,,,,,,,,,,nback74,001,2024-01-30_10h21.03.132,untitled,2023.2.3,59.94082641218299,2024-01-30 10h45.14.521678 -0500,
3,"[0, 0.2]",None,,,,,0,24,24,24,,,,,1925.3329264000058,,,,,,,,,,,,,,,,,,,,,,,,,,,,,,,,,,,,,,,,,,,,,,1925.317160599865,1925.3329264000058,1925.3329264000058,1925.8160551998299,1925.8328038000036,1928.3164168000221,1928.3165951999836,None,1,,,,,,,,,,,,,,,,,,,,,,,,nback74,001,2024-01-30_10h21.03.132,untitled,2023.2.3,59.94082641218299,2024-01-30 10h45.14.521678 -0500,
6,"[-0.3, 0]",None,,,,,0,25,25,25,,,,,1928.333500499837,,,,,,,,,,,,,,,,,,,,,,,,,,,,,,,,,,,,,,,,,,,,,,1928.3172766999342,1928.333500499837,1928.333500499837,1928.815998799866,1928.8327346998267,1931.3159829999786,1931.3161967999768,space,0,0.49959759996272624,None,,,,,,,,,,,,,,,,,,,,,,nback74,001,2024-01-30_10h21.03.132,untitled,2023.2.3,59.94082641218299,2024-01-30 10h45.14.521678 -0500,
1,"[-0.64, 0.4]",None,,,,,0,26,26,26,,,,,1931.3327422000002,,,,,,,,,,,,,,,,,,,,,,,,,,,,,,,,,,,,,,,,,,,,,,1931.3171538999304,1931.3327422000002,1931.3327422000002,1931.8159075998701,1931.832919599954,1934.3159882000182,1934.3161519998685,space,0,0.4487395000178367,None,,,,,,,,,,,,,,,,,,,,,,nback74,001,2024-01-30_10h21.03.132,untitled,2023.2.3,59.94082641218299,2024-01-30 10h45.14.521678 -0500,
1,"[-0.64, 0.4]",space,,,,,0,27,27,27,,,,,1934.3327108998783,,,,,,,,,,,,,,,,,,,,,,,,,,,,,,,,,,,,,,,,,,,,,,1934.3169177998789,1934.3327108998783,1934.3327108998783,1934.8158912998624,1934.8328463998623,1937.3158851999324,1937.3160677000415,space,1,0.34229660010896623,None,,,,,,,,,,,,,,,,,,,,,,nback74,001,2024-01-30_10h21.03.132,untitled,2023.2.3,59.94082641218299,2024-01-30 10h45.14.521678 -0500,
1,"[-0.64, 0.4]",space,,,,,0,28,28,28,,,,,1937.3325964999385,,,,,,,,,,,,,,,,,,,,,,,,,,,,,,,,,,,,,,,,,,,,,,1937.3167985000182,1937.3325964999385,1937.3325964999385,1937.8160228000488,1937.8328205998987,1940.3158463998698,1940.3159592000302,space,1,0.4689549000468105,None,,,,,,,,,,,,,,,,,,,,,,nback74,001,2024-01-30_10h21.03.132,untitled,2023.2.3,59.94082641218299,2024-01-30 10h45.14.521678 -0500,
3,"[0, 0.2]",None,,,,,0,29,29,29,,,,,1940.3324197998736,,,,,,,,,,,,,,,,,,,,,,,,,,,,,,,,,,,,,,,,,,,,,,1940.3163938999642,1940.3324197998736,1940.3324197998736,1940.8159081998747,1940.832543599885,1943.3159419998992,1943.3161303000525,space,0,0.43241939996369183,None,,,,,,,,,,,,,,,,,,,,,,nback74,001,2024-01-30_10h21.03.132,untitled,2023.2.3,59.94082641218299,2024-01-30 10h45.14.521678 -0500,
12,"[0.64, -0.4]",None,,,,,0,30,30,30,,,,,1943.3326077000238,,,,,,,,,,,,,,,,,,,,,,,,,,,,,,,,,,,,,,,,,,,,,,1943.3170139000285,1943.3326077000238,1943.3326077000238,1943.8157871998847,1943.8327104998752,1946.3157346998341,1946.3159822998568,None,1,,,,,,,,,,,,,,,,,,,,,,,,nback74,001,2024-01-30_10h21.03.132,untitled,2023.2.3,59.94082641218299,2024-01-30 10h45.14.521678 -0500,
12,"[0.64, -0.4]",space,,,,,0,31,31,31,,,,,1946.3325838998426,,,,,,,,,,,,,,,,,,,,,,,,,,,,,,,,,,,,,,,,,,,,,,1946.316894999938,1946.3325838998426,1946.3325838998426,1946.81604039995,1946.8325161000248,1949.315836600028,1949.3160182998981,space,1,0.3209355999715626,None,,,,,,,,,,,,,,,,,,,,,,nback74,001,2024-01-30_10h21.03.132,untitled,2023.2.3,59.94082641218299,2024-01-30 10h45.14.521678 -0500,
2,"[0.64, 0.4]",None,,,,,0,32,32,32,,,,,1949.3323116998654,,,,,,,,,,,,,,,,,,,,,,,,,,,,,,,,,,,,,,,,,,,,,,1949.3168698998634,1949.3323116998654,1949.3323116998654,1949.8158686999232,1949.8324076000135,1952.3154340998735,1952.3155213999562,None,1,,,,,,,,,,,,,,,,,,,,,,,,nback74,001,2024-01-30_10h21.03.132,untitled,2023.2.3,59.94082641218299,2024-01-30 10h45.14.521678 -0500,
1,"[-0.64, 0.4]",None,,,,,0,33,33,33,,,,,1952.332061199937,,,,,,,,,,,,,,,,,,,,,,,,,,,,,,,,,,,,,,,,,,,,,,1952.315997299971,1952.332061199937,1952.332061199937,1952.8155653998256,1952.8322758998256,1955.3154175998643,1955.3155814998318,space,0,0.6145675999578089,None,,,,,,,,,,,,,,,,,,,,,,nback74,001,2024-01-30_10h21.03.132,untitled,2023.2.3,59.94082641218299,2024-01-30 10h45.14.521678 -0500,
7,"[0.3, 0]",None,,,,,0,34,34,34,,,,,1955.332358499989,,,,,,,,,,,,,,,,,,,,,,,,,,,,,,,,,,,,,,,,,,,,,,1955.3164625000209,1955.332358499989,1955.332358499989,1955.8155435998924,1955.8322831999976,1958.315559499897,1958.3157249998767,None,1,,,,,,,,,,,,,,,,,,,,,,,,nback74,001,2024-01-30_10h21.03.132,untitled,2023.2.3,59.94082641218299,2024-01-30 10h45.14.521678 -0500,
7,"[0.3, 0]",space,,,,,0,35,35,35,,,,,1958.3322276999243,,,,,,,,,,,,,,,,,,,,,,,,,,,,,,,,,,,,,,,,,,,,,,1958.3163598000538,1958.3322276999243,1958.3322276999243,1958.81562629994,1958.8321128999814,1961.3155952000525,1961.3157528999727,space,1,0.5247236001305282,None,,,,,,,,,,,,,,,,,,,,,,nback74,001,2024-01-30_10h21.03.132,untitled,2023.2.3,59.94082641218299,2024-01-30 10h45.14.521678 -0500,
11,"[-0.64, -0.4]",None,,,,,0,36,36,36,,,,,1961.3323506999295,,,,,,,,,,,,,,,,,,,,,,,,,,,,,,,,,,,,,,,,,,,,,,1961.3165156999603,1961.3323506999295,1961.3323506999295,1961.8155755999032,1961.832168799825,1964.3155237999745,1964.315740399994,space,0,0.6149371999781579,None,,,,,,,,,,,,,,,,,,,,,,nback74,001,2024-01-30_10h21.03.132,untitled,2023.2.3,59.94082641218299,2024-01-30 10h45.14.521678 -0500,
2,"[0.64, 0.4]",None,,,,,0,37,37,37,,,,,1964.3321189999115,,,,,,,,,,,,,,,,,,,,,,,,,,,,,,,,,,,,,,,,,,,,,,1964.316754899919,1964.3321189999115,1964.3321189999115,1964.8155404999852,1964.8319937998895,1967.3154755998403,1967.3156836000271,space,0,0.508832500083372,None,,,,,,,,,,,,,,,,,,,,,,nback74,001,2024-01-30_10h21.03.132,untitled,2023.2.3,59.94082641218299,2024-01-30 10h45.14.521678 -0500,
6,"[-0.3, 0]",None,,,,,0,38,38,38,,,,,1967.3321795999072,,,,,,,,,,,,,,,,,,,,,,,,,,,,,,,,,,,,,,,,,,,,,,1967.3166217999533,1967.3321795999072,1967.3321795999072,1967.8154154999647,1967.83229749999,1970.3155657998286,1970.315790799912,None,1,,,,,,,,,,,,,,,,,,,,,,,,nback74,001,2024-01-30_10h21.03.132,untitled,2023.2.3,59.94082641218299,2024-01-30 10h45.14.521678 -0500,
10,"[0, -0.2]",None,,,,,0,39,39,39,,,,,1970.3321876998525,,,,,,,,,,,,,,,,,,,,,,,,,,,,,,,,,,,,,,,,,,,,,,1970.3166443998925,1970.3321876998525,1970.3321876998525,1970.8153609000146,1970.831968100043,1973.315466400003,1973.3156848999206,space,0,0.4829228001181036,None,,,,,,,,,,,,,,,,,,,,,,nback74,001,2024-01-30_10h21.03.132,untitled,2023.2.3,59.94082641218299,2024-01-30 10h45.14.521678 -0500,
,,,,,,,,,,,,,,,,,,,,,,,,,,,,,,,,,,,,,,,,,,,,,,,,,,,,,,,,,,,,,,,,,,,,,,,,1973.3164756998885,1973.3320855000056,1973.3320855000056,2039.082228000043,space,65.74348230008036,None,,,,,,,,,,,,,,,nback74,001,2024-01-30_10h21.03.132,untitled,2023.2.3,59.94082641218299,2024-01-30 10h45.14.521678 -0500,
,"[0.2, 0.1]",None,,,,,,,,,0,0,0,0,2040.0986997999717,,,,,,,,,,,,,,,,,,,,,,,,2039.0822648999747,2039.0972761998419,2040.0986997999717,2040.0818667998537,,,,,,,,,,,,,,,,,,,,,,,,,,,,,,,,,,,,,2040.0967581998557,2040.0986997999717,2040.0986997999717,2040.5974892999511,2040.6141516999342,2043.097427399829,2043.0976103998255,None,1,,,,,,nback74,001,2024-01-30_10h21.03.132,untitled,2023.2.3,59.94082641218299,2024-01-30 10h45.14.521678 -0500,
,"[0.64, 0.4]",None,,,,,,,,,0,1,1,1,2043.114055099897,,,,,,,,,,,,,,,,,,,,,,,,,,,,,,,,,,,,,,,,,,,,,,,,,,,,,,,,,,,,,,,,2043.0984994999599,2043.114055099897,2043.114055099897,2043.5975401999895,2043.6142674000002,2046.0973562998697,2046.097519399831,None,1,,,,,,nback74,001,2024-01-30_10h21.03.132,untitled,2023.2.3,59.94082641218299,2024-01-30 10h45.14.521678 -0500,
,"[-0.3, 0]",None,,,,,,,,,0,2,2,2,2046.1139815000352,,,,,,,,,,,,,,,,,,,,,,,,,,,,,,,,,,,,,,,,,,,,,,,,,,,,,,,,,,,,,,,,2046.0981309998315,2046.1139815000352,2046.1139815000352,2046.5973912999034,2046.6138740999158,2049.0974893998355,2049.097690699855,None,1,,,,,,nback74,001,2024-01-30_10h21.03.132,untitled,2023.2.3,59.94082641218299,2024-01-30 10h45.14.521678 -0500,
,"[0.2, -0.1]",None,,,,,,,,,0,3,3,3,2049.1140751000494,,,,,,,,,,,,,,,,,,,,,,,,,,,,,,,,,,,,,,,,,,,,,,,,,,,,,,,,,,,,,,,,2049.0985152998473,2049.1140751000494,2049.1140751000494,2049.5972932998557,2049.614031799836,2052.0973002000246,2052.0975046998356,None,1,,,,,,nback74,001,2024-01-30_10h21.03.132,untitled,2023.2.3,59.94082641218299,2024-01-30 10h45.14.521678 -0500,
,"[0, 0.2]",None,,,,,,,,,0,4,4,4,2052.1140095999,,,,,,,,,,,,,,,,,,,,,,,,,,,,,,,,,,,,,,,,,,,,,,,,,,,,,,,,,,,,,,,,2052.098315899959,2052.1140095999,2052.1140095999,2052.5972137998324,2052.6140070999973,2055.097107099835,2055.0972954998724,None,1,,,,,,nback74,001,2024-01-30_10h21.03.132,untitled,2023.2.3,59.94082641218299,2024-01-30 10h45.14.521678 -0500,
,"[0.2, -0.1]",space,,,,,,,,,0,5,5,5,2055.1138094000053,,,,,,,,,,,,,,,,,,,,,,,,,,,,,,,,,,,,,,,,,,,,,,,,,,,,,,,,,,,,,,,,2055.0980415998492,2055.1138094000053,2055.1138094000053,2055.597079699859,2055.6140766998287,2058.0971655000467,2058.097367499955,space,1,0.3144022000487894,None,,,,nback74,001,2024-01-30_10h21.03.132,untitled,2023.2.3,59.94082641218299,2024-01-30 10h45.14.521678 -0500,
,"[0, -0.2]",None,,,,,,,,,0,6,6,6,2058.113808599999,,,,,,,,,,,,,,,,,,,,,,,,,,,,,,,,,,,,,,,,,,,,,,,,,,,,,,,,,,,,,,,,2058.098568599904,2058.113808599999,2058.113808599999,2058.5971844999585,2058.6139682999346,2061.097051399993,2061.0972402000334,None,1,,,,,,nback74,001,2024-01-30_10h21.03.132,untitled,2023.2.3,59.94082641218299,2024-01-30 10h45.14.521678 -0500,
,"[0.64, -0.4]",None,,,,,,,,,0,7,7,7,2061.113844699925,,,,,,,,,,,,,,,,,,,,,,,,,,,,,,,,,,,,,,,,,,,,,,,,,,,,,,,,,,,,,,,,2061.0979913999327,2061.113844699925,2061.113844699925,2061.59700910002,2061.613801299827,2064.097080799984,2064.0972569999285,None,1,,,,,,nback74,001,2024-01-30_10h21.03.132,untitled,2023.2.3,59.94082641218299,2024-01-30 10h45.14.521678 -0500,
,"[0.3, 0]",None,,,,,,,,,0,8,8,8,2064.113668099977,,,,,,,,,,,,,,,,,,,,,,,,,,,,,,,,,,,,,,,,,,,,,,,,,,,,,,,,,,,,,,,,2064.0980837000534,2064.113668099977,2064.113668099977,2064.5970482998528,2064.613681699848,2067.0970256999135,2067.0972543999087,None,1,,,,,,nback74,001,2024-01-30_10h21.03.132,untitled,2023.2.3,59.94082641218299,2024-01-30 10h45.14.521678 -0500,
,"[0.64, -0.4]",space,,,,,,,,,0,9,9,9,2067.113634099951,,,,,,,,,,,,,,,,,,,,,,,,,,,,,,,,,,,,,,,,,,,,,,,,,,,,,,,,,,,,,,,,2067.0980996999424,2067.113634099951,2067.113634099951,2067.596804599976,2067.6137113999575,2070.0969936999027,2070.097222100012,None,0,,,,,,nback74,001,2024-01-30_10h21.03.132,untitled,2023.2.3,59.94082641218299,2024-01-30 10h45.14.521678 -0500,
,"[-0.64, 0.4]",None,,,,,,,,,0,10,10,10,2070.113473800011,,,,,,,,,,,,,,,,,,,,,,,,,,,,,,,,,,,,,,,,,,,,,,,,,,,,,,,,,,,,,,,,2070.0979740999173,2070.113473800011,2070.113473800011,2070.596851499984,2070.613498199964,2073.0969185000286,2073.097130900016,None,1,,,,,,nback74,001,2024-01-30_10h21.03.132,untitled,2023.2.3,59.94082641218299,2024-01-30 10h45.14.521678 -0500,
,"[0.2, 0.1]",None,,,,,,,,,0,11,11,11,2073.1137818999123,,,,,,,,,,,,,,,,,,,,,,,,,,,,,,,,,,,,,,,,,,,,,,,,,,,,,,,,,,,,,,,,2073.097949599847,2073.1137818999123,2073.1137818999123,2073.596907999832,2073.6136047998443,2076.096896899864,2076.097123299958,None,1,,,,,,nback74,001,2024-01-30_10h21.03.132,untitled,2023.2.3,59.94082641218299,2024-01-30 10h45.14.521678 -0500,
,"[0.3, 0]",None,,,,,,,,,0,12,12,12,2076.113521500025,,,,,,,,,,,,,,,,,,,,,,,,,,,,,,,,,,,,,,,,,,,,,,,,,,,,,,,,,,,,,,,,2076.097981999861,2076.113521500025,2076.113521500025,2076.59680379997,2076.613520799903,2079.096836599987,2079.0970137999393,None,1,,,,,,nback74,001,2024-01-30_10h21.03.132,untitled,2023.2.3,59.94082641218299,2024-01-30 10h45.14.521678 -0500,
,"[0.2, 0.1]",space,,,,,,,,,0,13,13,13,2079.11346839997,,,,,,,,,,,,,,,,,,,,,,,,,,,,,,,,,,,,,,,,,,,,,,,,,,,,,,,,,,,,,,,,2079.09768659994,2079.11346839997,2079.11346839997,2079.5968299999367,2079.6135984000284,2082.0966944999527,2082.096895799972,None,0,,,,,,nback74,001,2024-01-30_10h21.03.132,untitled,2023.2.3,59.94082641218299,2024-01-30 10h45.14.521678 -0500,
,"[-0.3, 0]",None,,,,,,,,,0,14,14,14,2082.113397799898,,,,,,,,,,,,,,,,,,,,,,,,,,,,,,,,,,,,,,,,,,,,,,,,,,,,,,,,,,,,,,,,2082.0976978999097,2082.113397799898,2082.113397799898,2082.5967963000294,2082.613572199829,2085.0967832999304,2085.0970407000277,None,1,,,,,,nback74,001,2024-01-30_10h21.03.132,untitled,2023.2.3,59.94082641218299,2024-01-30 10h45.14.521678 -0500,
,"[0, 0.2]",None,,,,,,,,,0,15,15,15,2085.113210099982,,,,,,,,,,,,,,,,,,,,,,,,,,,,,,,,,,,,,,,,,,,,,,,,,,,,,,,,,,,,,,,,2085.0979004998226,2085.113210099982,2085.113210099982,2085.5964233998675,2085.6131804999895,2088.0966872000135,2088.096894899849,None,1,,,,,,nback74,001,2024-01-30_10h21.03.132,untitled,2023.2.3,59.94082641218299,2024-01-30 10h45.14.521678 -0500,
,"[-0.3, 0]",space,,,,,,,,,0,16,16,16,2088.113378399983,,,,,,,,,,,,,,,,,,,,,,,,,,,,,,,,,,,,,,,,,,,,,,,,,,,,,,,,,,,,,,,,2088.0977469999343,2088.113378399983,2088.113378399983,2088.596659099916,2088.613307700027,2091.096511699958,2091.096701100003,None,0,,,,,,nback74,001,2024-01-30_10h21.03.132,untitled,2023.2.3,59.94082641218299,2024-01-30 10h45.14.521678 -0500,
,"[-0.64, -0.4]",None,,,,,,,,,0,17,17,17,2091.1132771000266,,,,,,,,,,,,,,,,,,,,,,,,,,,,,,,,,,,,,,,,,,,,,,,,,,,,,,,,,,,,,,,,2091.097443399951,2091.1132771000266,2091.1132771000266,2091.5964265000075,2091.6133758998476,2094.0965759998653,2094.0967729999684,None,1,,,,,,nback74,001,2024-01-30_10h21.03.132,untitled,2023.2.3,59.94082641218299,2024-01-30 10h45.14.521678 -0500,
,"[-0.2, -0.1]",None,,,,,,,,,0,18,18,18,2094.1131464999635,,,,,,,,,,,,,,,,,,,,,,,,,,,,,,,,,,,,,,,,,,,,,,,,,,,,,,,,,,,,,,,,2094.0976028000005,2094.1131464999635,2094.1131464999635,2094.596550999908,2094.613227599999,2097.096551100025,2097.096764399903,None,1,,,,,,nback74,001,2024-01-30_10h21.03.132,untitled,2023.2.3,59.94082641218299,2024-01-30 10h45.14.521678 -0500,
,"[0.2, -0.1]",None,,,,,,,,,0,19,19,19,2097.1131486999802,,,,,,,,,,,,,,,,,,,,,,,,,,,,,,,,,,,,,,,,,,,,,,,,,,,,,,,,,,,,,,,,2097.0976100999396,2097.1131486999802,2097.1131486999802,2097.5962479000445,2097.6133010999765,2100.0964802999515,2100.0966719000135,None,1,,,,,,nback74,001,2024-01-30_10h21.03.132,untitled,2023.2.3,59.94082641218299,2024-01-30 10h45.14.521678 -0500,
,"[0.2, -0.1]",None,,,,,,,,,0,20,20,20,2100.113166499883,,,,,,,,,,,,,,,,,,,,,,,,,,,,,,,,,,,,,,,,,,,,,,,,,,,,,,,,,,,,,,,,2100.0974212000147,2100.113166499883,2100.113166499883,2100.5963332999963,2100.6132179000415,2103.0963280999567,2103.096545399865,None,1,,,,,,nback74,001,2024-01-30_10h21.03.132,untitled,2023.2.3,59.94082641218299,2024-01-30 10h45.14.521678 -0500,
,"[-0.64, 0.4]",None,,,,,,,,,0,21,21,21,2103.113031900022,,,,,,,,,,,,,,,,,,,,,,,,,,,,,,,,,,,,,,,,,,,,,,,,,,,,,,,,,,,,,,,,2103.0973692999687,2103.113031900022,2103.113031900022,2103.596500399988,2103.613093199907,2106.096328199841,2106.096544599859,None,1,,,,,,nback74,001,2024-01-30_10h21.03.132,untitled,2023.2.3,59.94082641218299,2024-01-30 10h45.14.521678 -0500,
,"[0, 0.2]",None,,,,,,,,,0,22,22,22,2106.1130822999403,,,,,,,,,,,,,,,,,,,,,,,,,,,,,,,,,,,,,,,,,,,,,,,,,,,,,,,,,,,,,,,,2106.0973656999413,2106.1130822999403,2106.1130822999403,2106.596311699832,2106.613097499823,2109.09621670004,2109.0964180999435,None,1,,,,,,nback74,001,2024-01-30_10h21.03.132,untitled,2023.2.3,59.94082641218299,2024-01-30 10h45.14.521678 -0500,
,"[0.64, -0.4]",None,,,,,,,,,0,23,23,23,2109.1128976000473,,,,,,,,,,,,,,,,,,,,,,,,,,,,,,,,,,,,,,,,,,,,,,,,,,,,,,,,,,,,,,,,2109.097216299968,2109.1128976000473,2109.1128976000473,2109.596448099939,2109.6128995998297,2112.096211799886,2112.0963991000317,None,1,,,,,,nback74,001,2024-01-30_10h21.03.132,untitled,2023.2.3,59.94082641218299,2024-01-30 10h45.14.521678 -0500,
,"[0, 0.2]",space,,,,,,,,,0,24,24,24,2112.1128110999707,,,,,,,,,,,,,,,,,,,,,,,,,,,,,,,,,,,,,,,,,,,,,,,,,,,,,,,,,,,,,,,,2112.09716070001,2112.1128110999707,2112.1128110999707,2112.596228600014,2112.613217599923,2115.096228200011,2115.096427500015,None,0,,,,,,nback74,001,2024-01-30_10h21.03.132,untitled,2023.2.3,59.94082641218299,2024-01-30 10h45.14.521678 -0500,
,"[-0.2, 0.1]",None,,,,,,,,,0,25,25,25,2115.1127702000085,,,,,,,,,,,,,,,,,,,,,,,,,,,,,,,,,,,,,,,,,,,,,,,,,,,,,,,,,,,,,,,,2115.097217799863,2115.1127702000085,2115.1127702000085,2115.59628920001,2115.61300319992,2118.0962638999335,2118.0964801998343,None,1,,,,,,nback74,001,2024-01-30_10h21.03.132,untitled,2023.2.3,59.94082641218299,2024-01-30 10h45.14.521678 -0500,
,"[0.3, 0]",None,,,,,,,,,0,26,26,26,2118.1129697998986,,,,,,,,,,,,,,,,,,,,,,,,,,,,,,,,,,,,,,,,,,,,,,,,,,,,,,,,,,,,,,,,2118.097296599997,2118.1129697998986,2118.1129697998986,2118.595934999874,2118.612777299946,2121.0960710998625,2121.096284699859,None,1,,,,,,nback74,001,2024-01-30_10h21.03.132,untitled,2023.2.3,59.94082641218299,2024-01-30 10h45.14.521678 -0500,
,"[-0.2, 0.1]",space,,,,,,,,,0,27,27,27,2121.112744099926,,,,,,,,,,,,,,,,,,,,,,,,,,,,,,,,,,,,,,,,,,,,,,,,,,,,,,,,,,,,,,,,2121.0971325000282,2121.112744099926,2121.112744099926,2121.596181599889,2121.61277649994,2124.095994599862,2124.096244599903,None,0,,,,,,nback74,001,2024-01-30_10h21.03.132,untitled,2023.2.3,59.94082641218299,2024-01-30 10h45.14.521678 -0500,
,"[-0.2, 0.1]",None,,,,,,,,,0,28,28,28,2124.1124113998376,,,,,,,,,,,,,,,,,,,,,,,,,,,,,,,,,,,,,,,,,,,,,,,,,,,,,,,,,,,,,,,,2124.096814400051,2124.1124113998376,2124.1124113998376,2124.5958696999587,2124.612561899936,2127.0959673998877,2127.0961805998813,None,1,,,,,,nback74,001,2024-01-30_10h21.03.132,untitled,2023.2.3,59.94082641218299,2024-01-30 10h45.14.521678 -0500,
,"[0.2, 0.1]",None,,,,,,,,,0,29,29,29,2127.1128297999967,,,,,,,,,,,,,,,,,,,,,,,,,,,,,,,,,,,,,,,,,,,,,,,,,,,,,,,,,,,,,,,,2127.0970222998876,2127.1128297999967,2127.1128297999967,2127.5958538998384,2127.6126822999213,2130.0959431999363,2130.096138200024,None,1,,,,,,nback74,001,2024-01-30_10h21.03.132,untitled,2023.2.3,59.94082641218299,2024-01-30 10h45.14.521678 -0500,
,"[-0.64, -0.4]",None,,,,,,,,,0,30,30,30,2130.112668100046,,,,,,,,,,,,,,,,,,,,,,,,,,,,,,,,,,,,,,,,,,,,,,,,,,,,,,,,,,,,,,,,2130.0969030999113,2130.112668100046,2130.112668100046,2130.596140000038,2130.6124696999323,2133.0959810998756,2133.0961968000047,None,1,,,,,,nback74,001,2024-01-30_10h21.03.132,untitled,2023.2.3,59.94082641218299,2024-01-30 10h45.14.521678 -0500,
,"[0, -0.2]",None,,,,,,,,,0,31,31,31,2133.11280360003,,,,,,,,,,,,,,,,,,,,,,,,,,,,,,,,,,,,,,,,,,,,,,,,,,,,,,,,,,,,,,,,2133.097076999955,2133.11280360003,2133.11280360003,2133.5959417000413,2133.612531099934,2136.0957764999475,2136.096017200034,None,1,,,,,,nback74,001,2024-01-30_10h21.03.132,untitled,2023.2.3,59.94082641218299,2024-01-30 10h45.14.521678 -0500,
,"[-0.64, -0.4]",space,,,,,,,,,0,32,32,32,2136.1123575000092,,,,,,,,,,,,,,,,,,,,,,,,,,,,,,,,,,,,,,,,,,,,,,,,,,,,,,,,,,,,,,,,2136.0967649999075,2136.1123575000092,2136.1123575000092,2136.5955383998808,2136.6123559998814,2139.095810599858,2139.096001399914,space,1,0.3172993999905884,None,,,,nback74,001,2024-01-30_10h21.03.132,untitled,2023.2.3,59.94082641218299,2024-01-30 10h45.14.521678 -0500,
,"[0.64, 0.4]",None,,,,,,,,,0,33,33,33,2139.1125219999813,,,,,,,,,,,,,,,,,,,,,,,,,,,,,,,,,,,,,,,,,,,,,,,,,,,,,,,,,,,,,,,,2139.096877799835,2139.1125219999813,2139.1125219999813,2139.595807899954,2139.6124625999946,2142.0957082000095,2142.0958924998995,None,1,,,,,,nback74,001,2024-01-30_10h21.03.132,untitled,2023.2.3,59.94082641218299,2024-01-30 10h45.14.521678 -0500,
,"[-0.3, 0]",None,,,,,,,,,0,34,34,34,2142.1122838999145,,,,,,,,,,,,,,,,,,,,,,,,,,,,,,,,,,,,,,,,,,,,,,,,,,,,,,,,,,,,,,,,2142.096711399965,2142.1122838999145,2142.1122838999145,2142.595710699912,2142.6124481000006,2145.0957329999655,2145.0959486998618,None,1,,,,,,nback74,001,2024-01-30_10h21.03.132,untitled,2023.2.3,59.94082641218299,2024-01-30 10h45.14.521678 -0500,
,"[0.3, 0]",None,,,,,,,,,0,35,35,35,2145.1124050000217,,,,,,,,,,,,,,,,,,,,,,,,,,,,,,,,,,,,,,,,,,,,,,,,,,,,,,,,,,,,,,,,2145.096786999842,2145.1124050000217,2145.1124050000217,2145.5955089000054,2145.6122194000054,2148.095643499866,2148.0958535999525,None,1,,,,,,nback74,001,2024-01-30_10h21.03.132,untitled,2023.2.3,59.94082641218299,2024-01-30 10h45.14.521678 -0500,
,"[-0.3, 0]",space,,,,,,,,,0,36,36,36,2148.112380999839,,,,,,,,,,,,,,,,,,,,,,,,,,,,,,,,,,,,,,,,,,,,,,,,,,,,,,,,,,,,,,,,2148.0967280999757,2148.112380999839,2148.112380999839,2148.5956019998994,2148.61227110005,2151.0955554998945,2151.0957684998866,None,0,,,,,,nback74,001,2024-01-30_10h21.03.132,untitled,2023.2.3,59.94082641218299,2024-01-30 10h45.14.521678 -0500,
,"[0, -0.2]",None,,,,,,,,,0,37,37,37,2151.1121350999456,,,,,,,,,,,,,,,,,,,,,,,,,,,,,,,,,,,,,,,,,,,,,,,,,,,,,,,,,,,,,,,,2151.096632799832,2151.1121350999456,2151.1121350999456,2151.5952253998257,2151.612039499916,2154.095373699907,2154.095529299928,None,1,,,,,,nback74,001,2024-01-30_10h21.03.132,untitled,2023.2.3,59.94082641218299,2024-01-30 10h45.14.521678 -0500,
,"[0.3, 0]",None,,,,,,,,,0,38,38,38,2154.112131099915,,,,,,,,,,,,,,,,,,,,,,,,,,,,,,,,,,,,,,,,,,,,,,,,,,,,,,,,,,,,,,,,2154.0961104000453,2154.112131099915,2154.112131099915,2154.595342800021,2154.612163200043,2157.0953370998614,2157.0955165999476,None,1,,,,,,nback74,001,2024-01-30_10h21.03.132,untitled,2023.2.3,59.94082641218299,2024-01-30 10h45.14.521678 -0500,
,"[0.2, 0.1]",None,,,,,,,,,0,39,39,39,2157.112022300018,,,,,,,,,,,,,,,,,,,,,,,,,,,,,,,,,,,,,,,,,,,,,,,,,,,,,,,,,,,,,,,,2157.096246500034,2157.112022300018,2157.112022300018,2157.5953237998765,2157.6119174999185,2160.0954875999596,2160.095698799938,None,1,,,,,,nback74,001,2024-01-30_10h21.03.132,untitled,2023.2.3,59.94082641218299,2024-01-30 10h45.14.521678 -0500,
,,,,,,,,,,,,,,,,,,,,,,,,,,,,,,,,,,,,,,,,,,,,,,,,,,,,,,,,,,,,,,,,,,,,,,,,,,,,,,,,,,,,,,,,,,2160.09628920001,2160.1120549000334,2163.0956619000062,,,,,,,,
