square,location,corrAns,trials_0.thisRepN,trials_0.thisTrialN,trials_0.thisN,trials_0.thisIndex,trials_1.thisRepN,trials_1.thisTrialN,trials_1.thisN,trials_1.thisIndex,trials_2.thisRepN,trials_2.thisTrialN,trials_2.thisN,trials_2.thisIndex,thisRow.t,notes,Instructions.started,instructions.started,key_resp.started,inst_sq11.started,Instructions.stopped,key_resp.keys,key_resp.rt,key_resp.duration,All.started,sq_1.started,sq_2.started,sq_3.started,sq_4.started,sq_5.started,sq_6.started,sq_7.started,sq_8.started,sq_9.started,sq_10.started,sq_11.started,sq_12.started,All.stopped,Fixation.started,fixation_3.started,fixation_3.stopped,Fixation.stopped,N_back_0_Trial.started,target_square_0.started,response_0.started,fixation_0.started,target_square_0.stopped,fixation_0.stopped,N_back_0_Trial.stopped,response_0.keys,response_0.corr,response_0.rt,response_0.duration,Instructions_1.started,instructions_1.started,key_resp_1.started,Instructions_1.stopped,key_resp_1.keys,key_resp_1.rt,key_resp_1.duration,N_back_1_Trial.started,target_square_1.started,response_1.started,target_square_1.stopped,fixation_1.started,fixation_1.stopped,response_1.stopped,N_back_1_Trial.stopped,response_1.keys,response_1.corr,response_1.rt,response_1.duration,Instructions_2.started,instructions_2.started,key_resp_2.started,Instructions_2.stopped,key_resp_2.keys,key_resp_2.rt,key_resp_2.duration,N_back_2_trials.started,target_square_2.started,response_2.started,fixation_2.started,target_square_2.stopped,fixation_2.stopped,response_2.stopped,N_back_2_trials.stopped,response_2.keys,response_2.corr,response_2.rt,response_2.duration,End.started,thank_you.started,thank_you.stopped,End.stopped,participant,session,date,expName,psychopyVersion,frameRate,expStart,Unnamed: 103
,,,,,,,,,,,,,,,,,0.001560500008054,0.0040828000055626,0.0040828000055626,0.0040828000055626,2021.087983400008,space,2021.0763447000063,None,,,,,,,,,,,,,,,,,,,,,,,,,,,,,,,,,,,,,,,,,,,,,,,,,,,,,,,,,,,,,,,,,,,,,,,,nback48,1.0,2024-01-11_12h56.39.558,untitled,2023.2.3,59.96717396684593,2024-01-11 13h16.28.324850 -0500,
6.0,"[-0.3, 0]",None,0.0,0.0,0.0,0.0,,,,,,,,,2023.1075170000115,,,,,,,,,,2021.0880061000064,2021.1038654000004,2021.1038654000004,2021.1038654000004,2021.1038654000004,2021.1038654000004,2021.1038654000004,2021.1038654000004,2021.1038654000004,2021.1038654000004,2021.1038654000004,2021.1038654000004,2021.1038654000004,2022.086962100002,2022.086974300008,2022.1035375000065,2023.1075170000115,2023.0876473000096,2023.1056086000024,2023.1075170000115,2023.1075170000115,2023.586850000007,2023.620033600004,2026.0866291999992,2026.1034092000043,None,1.0,,,,,,,,,,,,,,,,,,,,,,,,,,,,,,,,,,,,,,,,,,,,,nback48,1.0,2024-01-11_12h56.39.558,untitled,2023.2.3,59.96717396684593,2024-01-11 13h16.28.324850 -0500,
10.0,"[0, -0.2]",None,0.0,1.0,1.0,1.0,,,,,,,,,2026.1199919000064,,,,,,,,,,,,,,,,,,,,,,,,,,,,2026.1039001000024,2026.1199919000064,2026.1199919000064,2026.5867308000013,2026.6200690000117,2029.086541900004,2029.103195100004,None,1.0,,,,,,,,,,,,,,,,,,,,,,,,,,,,,,,,,,,,,,,,,,,,,nback48,1.0,2024-01-11_12h56.39.558,untitled,2023.2.3,59.96717396684593,2024-01-11 13h16.28.324850 -0500,
11.0,"[-0.64, -0.4]",space,0.0,2.0,2.0,2.0,,,,,,,,,2029.119885100008,,,,,,,,,,,,,,,,,,,,,,,,,,,,2029.103540100012,2029.119885100008,2029.119885100008,2029.5864871000083,2029.6199036000037,2032.0865476000035,2032.1032226000095,space,1.0,0.5732626999961212,None,,,,,,,,,,,,,,,,,,,,,,,,,,,,,,,,,,,,,,,,,,,nback48,1.0,2024-01-11_12h56.39.558,untitled,2023.2.3,59.96717396684593,2024-01-11 13h16.28.324850 -0500,
12.0,"[0.64, -0.4]",None,0.0,3.0,3.0,3.0,,,,,,,,,2032.1198120000045,,,,,,,,,,,,,,,,,,,,,,,,,,,,2032.10373480001,2032.1198120000045,2032.1198120000045,2032.586421,2032.61978980001,2035.086332900013,2035.1033445000064,None,1.0,,,,,,,,,,,,,,,,,,,,,,,,,,,,,,,,,,,,,,,,,,,,,nback48,1.0,2024-01-11_12h56.39.558,untitled,2023.2.3,59.96717396684593,2024-01-11 13h16.28.324850 -0500,
1.0,"[-0.64, 0.4]",None,0.0,4.0,4.0,4.0,,,,,,,,,2035.119804800008,,,,,,,,,,,,,,,,,,,,,,,,,,,,2035.1038387000008,2035.119804800008,2035.119804800008,2035.586530200002,2035.619846600006,2038.0864631000004,2038.1031315,None,1.0,,,,,,,,,,,,,,,,,,,,,,,,,,,,,,,,,,,,,,,,,,,,,nback48,1.0,2024-01-11_12h56.39.558,untitled,2023.2.3,59.96717396684593,2024-01-11 13h16.28.324850 -0500,
1.0,"[-0.64, 0.4]",None,0.0,5.0,5.0,5.0,,,,,,,,,2038.11970570001,,,,,,,,,,,,,,,,,,,,,,,,,,,,2038.10359910001,2038.11970570001,2038.11970570001,2038.5864644000103,2038.619824600013,2041.086117400002,2041.1031340000045,None,1.0,,,,,,,,,,,,,,,,,,,,,,,,,,,,,,,,,,,,,,,,,,,,,nback48,1.0,2024-01-11_12h56.39.558,untitled,2023.2.3,59.96717396684593,2024-01-11 13h16.28.324850 -0500,
4.0,"[-0.2, 0.1]",None,0.0,6.0,6.0,6.0,,,,,,,,,2041.1196643000003,,,,,,,,,,,,,,,,,,,,,,,,,,,,2041.1035640000048,2041.1196643000003,2041.1196643000003,2041.5861461000025,2041.6197010000035,2044.0864727000007,2044.103205700012,None,1.0,,,,,,,,,,,,,,,,,,,,,,,,,,,,,,,,,,,,,,,,,,,,,nback48,1.0,2024-01-11_12h56.39.558,untitled,2023.2.3,59.96717396684593,2024-01-11 13h16.28.324850 -0500,
5.0,"[0.2, 0.1]",None,0.0,7.0,7.0,7.0,,,,,,,,,2044.120207500004,,,,,,,,,,,,,,,,,,,,,,,,,,,,2044.103547000006,2044.120207500004,2044.120207500004,2044.586443600012,2044.6198329000035,2047.0863420000096,2047.103271800006,None,1.0,,,,,,,,,,,,,,,,,,,,,,,,,,,,,,,,,,,,,,,,,,,,,nback48,1.0,2024-01-11_12h56.39.558,untitled,2023.2.3,59.96717396684593,2024-01-11 13h16.28.324850 -0500,
11.0,"[-0.64, -0.4]",space,0.0,8.0,8.0,8.0,,,,,,,,,2047.119454300002,,,,,,,,,,,,,,,,,,,,,,,,,,,,2047.104021900013,2047.119454300002,2047.119454300002,2047.586581200012,2047.619446200013,2050.0860817000066,2050.103459900012,space,1.0,0.4430034000106388,None,,,,,,,,,,,,,,,,,,,,,,,,,,,,,,,,,,,,,,,,,,,nback48,1.0,2024-01-11_12h56.39.558,untitled,2023.2.3,59.96717396684593,2024-01-11 13h16.28.324850 -0500,
9.0,"[0.2, -0.1]",None,0.0,9.0,9.0,9.0,,,,,,,,,2050.1199941000086,,,,,,,,,,,,,,,,,,,,,,,,,,,,2050.1038698000048,2050.1199941000086,2050.1199941000086,2050.586001200005,2050.619646800013,2053.0862375,2053.103169000009,None,1.0,,,,,,,,,,,,,,,,,,,,,,,,,,,,,,,,,,,,,,,,,,,,,nback48,1.0,2024-01-11_12h56.39.558,untitled,2023.2.3,59.96717396684593,2024-01-11 13h16.28.324850 -0500,
8.0,"[-0.2, -0.1]",None,0.0,10.0,10.0,10.0,,,,,,,,,2053.1197975000105,,,,,,,,,,,,,,,,,,,,,,,,,,,,2053.1040176000097,2053.1197975000105,2053.1197975000105,2053.5864022000023,2053.6196524000115,2056.086284600009,2056.1031074000057,None,1.0,,,,,,,,,,,,,,,,,,,,,,,,,,,,,,,,,,,,,,,,,,,,,nback48,1.0,2024-01-11_12h56.39.558,untitled,2023.2.3,59.96717396684593,2024-01-11 13h16.28.324850 -0500,
9.0,"[0.2, -0.1]",None,0.0,11.0,11.0,11.0,,,,,,,,,2056.1195354000083,,,,,,,,,,,,,,,,,,,,,,,,,,,,2056.1038819000096,2056.1195354000083,2056.1195354000083,2056.586417300001,2056.619724500008,2059.086129100004,2059.1031395000027,None,1.0,,,,,,,,,,,,,,,,,,,,,,,,,,,,,,,,,,,,,,,,,,,,,nback48,1.0,2024-01-11_12h56.39.558,untitled,2023.2.3,59.96717396684593,2024-01-11 13h16.28.324850 -0500,
6.0,"[-0.3, 0]",None,0.0,12.0,12.0,12.0,,,,,,,,,2059.1194773000025,,,,,,,,,,,,,,,,,,,,,,,,,,,,2059.103993200013,2059.1194773000025,2059.1194773000025,2059.586158300008,2059.6195437000133,2062.0861233000032,2062.103041200011,None,1.0,,,,,,,,,,,,,,,,,,,,,,,,,,,,,,,,,,,,,,,,,,,,,nback48,1.0,2024-01-11_12h56.39.558,untitled,2023.2.3,59.96717396684593,2024-01-11 13h16.28.324850 -0500,
9.0,"[0.2, -0.1]",None,0.0,13.0,13.0,13.0,,,,,,,,,2062.11940760001,,,,,,,,,,,,,,,,,,,,,,,,,,,,2062.103949600001,2062.11940760001,2062.11940760001,2062.585957300005,2062.619357300005,2065.0861726000003,2065.103037500012,None,1.0,,,,,,,,,,,,,,,,,,,,,,,,,,,,,,,,,,,,,,,,,,,,,nback48,1.0,2024-01-11_12h56.39.558,untitled,2023.2.3,59.96717396684593,2024-01-11 13h16.28.324850 -0500,
7.0,"[0.3, 0]",None,0.0,14.0,14.0,14.0,,,,,,,,,2065.119379300013,,,,,,,,,,,,,,,,,,,,,,,,,,,,2065.1039099000045,2065.119379300013,2065.119379300013,2065.586056500004,2065.619498800006,2068.0862078000064,2068.1028517000086,None,1.0,,,,,,,,,,,,,,,,,,,,,,,,,,,,,,,,,,,,,,,,,,,,,nback48,1.0,2024-01-11_12h56.39.558,untitled,2023.2.3,59.96717396684593,2024-01-11 13h16.28.324850 -0500,
2.0,"[0.64, 0.4]",None,0.0,15.0,15.0,15.0,,,,,,,,,2068.119344200008,,,,,,,,,,,,,,,,,,,,,,,,,,,,2068.103606500008,2068.119344200008,2068.119344200008,2068.6025129000045,2068.6193760000024,2071.102728700004,2071.102940200013,None,1.0,,,,,,,,,,,,,,,,,,,,,,,,,,,,,,,,,,,,,,,,,,,,,nback48,1.0,2024-01-11_12h56.39.558,untitled,2023.2.3,59.96717396684593,2024-01-11 13h16.28.324850 -0500,
2.0,"[0.64, 0.4]",None,0.0,16.0,16.0,16.0,,,,,,,,,2071.1194838000083,,,,,,,,,,,,,,,,,,,,,,,,,,,,2071.1037858000054,2071.1194838000083,2071.1194838000083,2071.585829100004,2071.619323200008,2074.085953700007,2074.1026817000093,None,1.0,,,,,,,,,,,,,,,,,,,,,,,,,,,,,,,,,,,,,,,,,,,,,nback48,1.0,2024-01-11_12h56.39.558,untitled,2023.2.3,59.96717396684593,2024-01-11 13h16.28.324850 -0500,
11.0,"[-0.64, -0.4]",space,0.0,17.0,17.0,17.0,,,,,,,,,2074.119255800004,,,,,,,,,,,,,,,,,,,,,,,,,,,,2074.10337170001,2074.119255800004,2074.119255800004,2074.602438800008,2074.61915150001,2077.102483200011,2077.102641800011,space,1.0,0.4771232000057352,None,,,,,,,,,,,,,,,,,,,,,,,,,,,,,,,,,,,,,,,,,,,nback48,1.0,2024-01-11_12h56.39.558,untitled,2023.2.3,59.96717396684593,2024-01-11 13h16.28.324850 -0500,
11.0,"[-0.64, -0.4]",space,0.0,18.0,18.0,18.0,,,,,,,,,2077.1191936000105,,,,,,,,,,,,,,,,,,,,,,,,,,,,2077.1033748000045,2077.1191936000105,2077.1191936000105,2077.6023174,2077.6192003000037,2080.1025104,2080.102685200007,space,1.0,0.5803462000039872,None,,,,,,,,,,,,,,,,,,,,,,,,,,,,,,,,,,,,,,,,,,,nback48,1.0,2024-01-11_12h56.39.558,untitled,2023.2.3,59.96717396684593,2024-01-11 13h16.28.324850 -0500,
7.0,"[0.3, 0]",None,0.0,19.0,19.0,19.0,,,,,,,,,2080.1192476,,,,,,,,,,,,,,,,,,,,,,,,,,,,2080.1035027000034,2080.1192476,2080.1192476,2080.602442500007,2080.6192224000115,2083.1023659000057,2083.102517900013,None,1.0,,,,,,,,,,,,,,,,,,,,,,,,,,,,,,,,,,,,,,,,,,,,,nback48,1.0,2024-01-11_12h56.39.558,untitled,2023.2.3,59.96717396684593,2024-01-11 13h16.28.324850 -0500,
3.0,"[0, 0.2]",None,0.0,20.0,20.0,20.0,,,,,,,,,2083.1192040000024,,,,,,,,,,,,,,,,,,,,,,,,,,,,2083.1030949000124,2083.1192040000024,2083.1192040000024,2083.602372900001,2083.6190184000006,2086.1024067000108,2086.1025948000024,None,1.0,,,,,,,,,,,,,,,,,,,,,,,,,,,,,,,,,,,,,,,,,,,,,nback48,1.0,2024-01-11_12h56.39.558,untitled,2023.2.3,59.96717396684593,2024-01-11 13h16.28.324850 -0500,
10.0,"[0, -0.2]",None,0.0,21.0,21.0,21.0,,,,,,,,,2086.1190975000063,,,,,,,,,,,,,,,,,,,,,,,,,,,,2086.1033432000118,2086.1190975000063,2086.1190975000063,2086.602208700002,2086.618942000001,2089.102452200008,2089.102662100005,None,1.0,,,,,,,,,,,,,,,,,,,,,,,,,,,,,,,,,,,,,,,,,,,,,nback48,1.0,2024-01-11_12h56.39.558,untitled,2023.2.3,59.96717396684593,2024-01-11 13h16.28.324850 -0500,
1.0,"[-0.64, 0.4]",None,0.0,22.0,22.0,22.0,,,,,,,,,2089.1189774000086,,,,,,,,,,,,,,,,,,,,,,,,,,,,2089.103520000004,2089.1189774000086,2089.1189774000086,2089.602411,2089.6188421000115,2092.1021791000094,2092.102330900001,None,1.0,,,,,,,,,,,,,,,,,,,,,,,,,,,,,,,,,,,,,,,,,,,,,nback48,1.0,2024-01-11_12h56.39.558,untitled,2023.2.3,59.96717396684593,2024-01-11 13h16.28.324850 -0500,
2.0,"[0.64, 0.4]",None,0.0,23.0,23.0,23.0,,,,,,,,,2092.119071100009,,,,,,,,,,,,,,,,,,,,,,,,,,,,2092.102914000003,2092.119071100009,2092.119071100009,2092.6023380000115,2092.6188188000087,2095.1023055000114,2095.1025156000105,None,1.0,,,,,,,,,,,,,,,,,,,,,,,,,,,,,,,,,,,,,,,,,,,,,nback48,1.0,2024-01-11_12h56.39.558,untitled,2023.2.3,59.96717396684593,2024-01-11 13h16.28.324850 -0500,
6.0,"[-0.3, 0]",None,0.0,24.0,24.0,24.0,,,,,,,,,2095.1188423999997,,,,,,,,,,,,,,,,,,,,,,,,,,,,2095.1032261000078,2095.1188423999997,2095.1188423999997,2095.6022512000054,2095.6192071000114,2098.102181200011,2098.102354900009,None,1.0,,,,,,,,,,,,,,,,,,,,,,,,,,,,,,,,,,,,,,,,,,,,,nback48,1.0,2024-01-11_12h56.39.558,untitled,2023.2.3,59.96717396684593,2024-01-11 13h16.28.324850 -0500,
3.0,"[0, 0.2]",None,0.0,25.0,25.0,25.0,,,,,,,,,2098.1187412,,,,,,,,,,,,,,,,,,,,,,,,,,,,2098.103034500004,2098.1187412,2098.1187412,2098.60218110001,2098.619011600007,2101.1021626,2101.1023477000126,None,1.0,,,,,,,,,,,,,,,,,,,,,,,,,,,,,,,,,,,,,,,,,,,,,nback48,1.0,2024-01-11_12h56.39.558,untitled,2023.2.3,59.96717396684593,2024-01-11 13h16.28.324850 -0500,
11.0,"[-0.64, -0.4]",space,0.0,26.0,26.0,26.0,,,,,,,,,2101.1187763000053,,,,,,,,,,,,,,,,,,,,,,,,,,,,2101.103113400008,2101.1187763000053,2101.1187763000053,2101.602056500007,2101.6187082000106,2104.1021683,2104.1023544000054,space,1.0,0.50364609999815,None,,,,,,,,,,,,,,,,,,,,,,,,,,,,,,,,,,,,,,,,,,,nback48,1.0,2024-01-11_12h56.39.558,untitled,2023.2.3,59.96717396684593,2024-01-11 13h16.28.324850 -0500,
1.0,"[-0.64, 0.4]",None,0.0,27.0,27.0,27.0,,,,,,,,,2104.1187482000096,,,,,,,,,,,,,,,,,,,,,,,,,,,,2104.103254200003,2104.1187482000096,2104.1187482000096,2104.602157400004,2104.6186004000047,2107.1019827000127,2107.102158100009,None,1.0,,,,,,,,,,,,,,,,,,,,,,,,,,,,,,,,,,,,,,,,,,,,,nback48,1.0,2024-01-11_12h56.39.558,untitled,2023.2.3,59.96717396684593,2024-01-11 13h16.28.324850 -0500,
3.0,"[0, 0.2]",None,0.0,28.0,28.0,28.0,,,,,,,,,2107.118666200011,,,,,,,,,,,,,,,,,,,,,,,,,,,,2107.1028819000057,2107.118666200011,2107.118666200011,2107.60202250001,2107.618679600011,2110.102045000007,2110.1022228000074,None,1.0,,,,,,,,,,,,,,,,,,,,,,,,,,,,,,,,,,,,,,,,,,,,,nback48,1.0,2024-01-11_12h56.39.558,untitled,2023.2.3,59.96717396684593,2024-01-11 13h16.28.324850 -0500,
9.0,"[0.2, -0.1]",None,0.0,29.0,29.0,29.0,,,,,,,,,2110.118557300011,,,,,,,,,,,,,,,,,,,,,,,,,,,,2110.102924400009,2110.118557300011,2110.118557300011,2110.6020321000105,2110.6187162000133,2113.10191930001,2113.102130600004,None,1.0,,,,,,,,,,,,,,,,,,,,,,,,,,,,,,,,,,,,,,,,,,,,,nback48,1.0,2024-01-11_12h56.39.558,untitled,2023.2.3,59.96717396684593,2024-01-11 13h16.28.324850 -0500,
8.0,"[-0.2, -0.1]",None,0.0,30.0,30.0,30.0,,,,,,,,,2113.118514300004,,,,,,,,,,,,,,,,,,,,,,,,,,,,2113.102958100004,2113.118514300004,2113.118514300004,2113.60173580001,2113.618459400008,2116.1019239000016,2116.102134200002,None,1.0,,,,,,,,,,,,,,,,,,,,,,,,,,,,,,,,,,,,,,,,,,,,,nback48,1.0,2024-01-11_12h56.39.558,untitled,2023.2.3,59.96717396684593,2024-01-11 13h16.28.324850 -0500,
12.0,"[0.64, -0.4]",None,0.0,31.0,31.0,31.0,,,,,,,,,2116.118700700012,,,,,,,,,,,,,,,,,,,,,,,,,,,,2116.1029680000065,2116.118700700012,2116.118700700012,2116.601922300004,2116.618650000004,2119.101723700005,2119.101884800009,None,1.0,,,,,,,,,,,,,,,,,,,,,,,,,,,,,,,,,,,,,,,,,,,,,nback48,1.0,2024-01-11_12h56.39.558,untitled,2023.2.3,59.96717396684593,2024-01-11 13h16.28.324850 -0500,
9.0,"[0.2, -0.1]",None,0.0,32.0,32.0,32.0,,,,,,,,,2119.1184517000074,,,,,,,,,,,,,,,,,,,,,,,,,,,,2119.102573600001,2119.1184517000074,2119.1184517000074,2119.601806000006,2119.618503900012,2122.1018708000047,2122.102046900007,None,1.0,,,,,,,,,,,,,,,,,,,,,,,,,,,,,,,,,,,,,,,,,,,,,nback48,1.0,2024-01-11_12h56.39.558,untitled,2023.2.3,59.96717396684593,2024-01-11 13h16.28.324850 -0500,
11.0,"[-0.64, -0.4]",space,0.0,33.0,33.0,33.0,,,,,,,,,2122.1184068,,,,,,,,,,,,,,,,,,,,,,,,,,,,2122.1027445000072,2122.1184068,2122.1184068,2122.6016272000124,2122.618316600012,2125.101811200002,2125.102016100005,space,1.0,0.4221720000059576,None,,,,,,,,,,,,,,,,,,,,,,,,,,,,,,,,,,,,,,,,,,,nback48,1.0,2024-01-11_12h56.39.558,untitled,2023.2.3,59.96717396684593,2024-01-11 13h16.28.324850 -0500,
7.0,"[0.3, 0]",None,0.0,34.0,34.0,34.0,,,,,,,,,2125.118518400006,,,,,,,,,,,,,,,,,,,,,,,,,,,,2125.1029964000045,2125.118518400006,2125.118518400006,2125.601687200004,2125.6185238000035,2128.1018428000098,2128.1020578000025,None,1.0,,,,,,,,,,,,,,,,,,,,,,,,,,,,,,,,,,,,,,,,,,,,,nback48,1.0,2024-01-11_12h56.39.558,untitled,2023.2.3,59.96717396684593,2024-01-11 13h16.28.324850 -0500,
11.0,"[-0.64, -0.4]",space,0.0,35.0,35.0,35.0,,,,,,,,,2128.1184866000112,,,,,,,,,,,,,,,,,,,,,,,,,,,,2128.102905500011,2128.1184866000112,2128.1184866000112,2128.601601100003,2128.6182528000063,2131.1013986000034,2131.1015580000094,space,1.0,0.6153484000096796,None,,,,,,,,,,,,,,,,,,,,,,,,,,,,,,,,,,,,,,,,,,,nback48,1.0,2024-01-11_12h56.39.558,untitled,2023.2.3,59.96717396684593,2024-01-11 13h16.28.324850 -0500,
4.0,"[-0.2, 0.1]",None,0.0,36.0,36.0,36.0,,,,,,,,,2131.1183983000083,,,,,,,,,,,,,,,,,,,,,,,,,,,,2131.1022819000063,2131.1183983000083,2131.1183983000083,2131.601490400004,2131.6181928000005,2134.101524700003,2134.101703799999,None,1.0,,,,,,,,,,,,,,,,,,,,,,,,,,,,,,,,,,,,,,,,,,,,,nback48,1.0,2024-01-11_12h56.39.558,untitled,2023.2.3,59.96717396684593,2024-01-11 13h16.28.324850 -0500,
5.0,"[0.2, 0.1]",None,0.0,37.0,37.0,37.0,,,,,,,,,2134.118168700006,,,,,,,,,,,,,,,,,,,,,,,,,,,,2134.102408400009,2134.118168700006,2134.118168700006,2134.601526700004,2134.618290300001,2137.101588000005,2137.101759000012,None,1.0,,,,,,,,,,,,,,,,,,,,,,,,,,,,,,,,,,,,,,,,,,,,,nback48,1.0,2024-01-11_12h56.39.558,untitled,2023.2.3,59.96717396684593,2024-01-11 13h16.28.324850 -0500,
6.0,"[-0.3, 0]",None,0.0,38.0,38.0,38.0,,,,,,,,,2137.1181054000044,,,,,,,,,,,,,,,,,,,,,,,,,,,,2137.102460599999,2137.1181054000044,2137.1181054000044,2137.601505700004,2137.618111600008,2140.1016483999992,2140.1018364000047,None,1.0,,,,,,,,,,,,,,,,,,,,,,,,,,,,,,,,,,,,,,,,,,,,,nback48,1.0,2024-01-11_12h56.39.558,untitled,2023.2.3,59.96717396684593,2024-01-11 13h16.28.324850 -0500,
11.0,"[-0.64, -0.4]",space,0.0,39.0,39.0,39.0,,,,,,,,,2140.118251300009,,,,,,,,,,,,,,,,,,,,,,,,,,,,2140.1026327,2140.118251300009,2140.118251300009,2140.601414500008,2140.618096800012,2143.1014571000123,2143.101633700004,space,1.0,0.4921732999937376,None,,,,,,,,,,,,,,,,,,,,,,,,,,,,,,,,,,,,,,,,,,,nback48,1.0,2024-01-11_12h56.39.558,untitled,2023.2.3,59.96717396684593,2024-01-11 13h16.28.324850 -0500,
,,,,,,,,,,,,,,,,,,,,,,,,,,,,,,,,,,,,,,,,,,,,,,,,,,,,,,2143.102298900005,2143.1182657000027,2143.1182657000027,2155.936093700002,space,12.807538900000509,None,,,,,,,,,,,,,,,,,,,,,,,,,,,,,,,,,,,,nback48,1.0,2024-01-11_12h56.39.558,untitled,2023.2.3,59.96717396684593,2024-01-11 13h16.28.324850 -0500,
10.0,"[0, -0.2]",None,,,,,0.0,0.0,0.0,0.0,,,,,2156.951136600008,,,,,,,,,,,,,,,,,,,,,,,,2155.936132700008,2155.9511661,2156.951136600008,2156.9352818000043,,,,,,,,,,,,,,,,,,,2156.9490812000004,2156.951136600008,2156.951136600008,2157.4513144000084,2157.4513144000084,2159.951151100002,2159.951151100002,2159.935041500008,None,1.0,,,,,,,,,,,,,,,,,,,,,,,,,,nback48,1.0,2024-01-11_12h56.39.558,untitled,2023.2.3,59.96717396684593,2024-01-11 13h16.28.324850 -0500,
5.0,"[0.2, 0.1]",None,,,,,0.0,1.0,1.0,1.0,,,,,2159.951151100002,,,,,,,,,,,,,,,,,,,,,,,,,,,,,,,,,,,,,,,,,,,,,,2159.9356462,2159.951151100002,2159.951151100002,2160.450987000004,2160.450987000004,2162.951095300013,2162.951095300013,2162.935568900008,None,1.0,,,,,,,,,,,,,,,,,,,,,,,,,,nback48,1.0,2024-01-11_12h56.39.558,untitled,2023.2.3,59.96717396684593,2024-01-11 13h16.28.324850 -0500,
6.0,"[-0.3, 0]",None,,,,,0.0,2.0,2.0,2.0,,,,,2162.951095300013,,,,,,,,,,,,,,,,,,,,,,,,,,,,,,,,,,,,,,,,,,,,,,2162.936387000009,2162.951095300013,2162.951095300013,2163.451093399999,2163.451093399999,2165.950832600007,2165.950832600007,2165.934780900003,None,1.0,,,,,,,,,,,,,,,,,,,,,,,,,,nback48,1.0,2024-01-11_12h56.39.558,untitled,2023.2.3,59.96717396684593,2024-01-11 13h16.28.324850 -0500,
6.0,"[-0.3, 0]",space,,,,,0.0,3.0,3.0,3.0,,,,,2165.950832600007,,,,,,,,,,,,,,,,,,,,,,,,,,,,,,,,,,,,,,,,,,,,,,2165.9351301999995,2165.950832600007,2165.950832600007,2166.4511035000032,2166.4511035000032,2168.9509884,2168.9509884,2168.9349990000046,space,1.0,0.5632114999898477,None,,,,,,,,,,,,,,,,,,,,,,,,nback48,1.0,2024-01-11_12h56.39.558,untitled,2023.2.3,59.96717396684593,2024-01-11 13h16.28.324850 -0500,
12.0,"[0.64, -0.4]",None,,,,,0.0,4.0,4.0,4.0,,,,,2168.9509884,,,,,,,,,,,,,,,,,,,,,,,,,,,,,,,,,,,,,,,,,,,,,,2168.935854700001,2168.9509884,2168.9509884,2169.4509690000123,2169.4509690000123,2171.950943200005,2171.950943200005,2171.9351041000045,None,1.0,,,,,,,,,,,,,,,,,,,,,,,,,,nback48,1.0,2024-01-11_12h56.39.558,untitled,2023.2.3,59.96717396684593,2024-01-11 13h16.28.324850 -0500,
10.0,"[0, -0.2]",None,,,,,0.0,5.0,5.0,5.0,,,,,2171.950943200005,,,,,,,,,,,,,,,,,,,,,,,,,,,,,,,,,,,,,,,,,,,,,,2171.9358576000086,2171.950943200005,2171.950943200005,2172.450913400011,2172.450913400011,2174.9508085000125,2174.9508085000125,2174.935158700013,None,1.0,,,,,,,,,,,,,,,,,,,,,,,,,,nback48,1.0,2024-01-11_12h56.39.558,untitled,2023.2.3,59.96717396684593,2024-01-11 13h16.28.324850 -0500,
2.0,"[0.64, 0.4]",None,,,,,0.0,6.0,6.0,6.0,,,,,2174.9508085000125,,,,,,,,,,,,,,,,,,,,,,,,,,,,,,,,,,,,,,,,,,,,,,2174.9359222000057,2174.9508085000125,2174.9508085000125,2175.4508872000006,2175.4508872000006,2177.950732000012,2177.950732000012,2177.934761200013,None,1.0,,,,,,,,,,,,,,,,,,,,,,,,,,nback48,1.0,2024-01-11_12h56.39.558,untitled,2023.2.3,59.96717396684593,2024-01-11 13h16.28.324850 -0500,
9.0,"[0.2, -0.1]",None,,,,,0.0,7.0,7.0,7.0,,,,,2177.950732000012,,,,,,,,,,,,,,,,,,,,,,,,,,,,,,,,,,,,,,,,,,,,,,2177.9353506000043,2177.950732000012,2177.950732000012,2178.4507663000118,2178.4507663000118,2180.9507863000035,2180.9507863000035,2180.9351730000053,None,1.0,,,,,,,,,,,,,,,,,,,,,,,,,,nback48,1.0,2024-01-11_12h56.39.558,untitled,2023.2.3,59.96717396684593,2024-01-11 13h16.28.324850 -0500,
9.0,"[0.2, -0.1]",space,,,,,0.0,8.0,8.0,8.0,,,,,2180.9507863000035,,,,,,,,,,,,,,,,,,,,,,,,,,,,,,,,,,,,,,,,,,,,,,2180.9359444,2180.9507863000035,2180.9507863000035,2181.450640700001,2181.450640700001,2183.950647200006,2183.950647200006,2183.9348720000125,space,1.0,0.6540297000028659,None,,,,,,,,,,,,,,,,,,,,,,,,nback48,1.0,2024-01-11_12h56.39.558,untitled,2023.2.3,59.96717396684593,2024-01-11 13h16.28.324850 -0500,
6.0,"[-0.3, 0]",None,,,,,0.0,9.0,9.0,9.0,,,,,2183.950647200006,,,,,,,,,,,,,,,,,,,,,,,,,,,,,,,,,,,,,,,,,,,,,,2183.935635700007,2183.950647200006,2183.950647200006,2184.450735300008,2184.450735300008,2186.950627099999,2186.950627099999,2186.934852400009,None,1.0,,,,,,,,,,,,,,,,,,,,,,,,,,nback48,1.0,2024-01-11_12h56.39.558,untitled,2023.2.3,59.96717396684593,2024-01-11 13h16.28.324850 -0500,
11.0,"[-0.64, -0.4]",None,,,,,0.0,10.0,10.0,10.0,,,,,2186.950627099999,,,,,,,,,,,,,,,,,,,,,,,,,,,,,,,,,,,,,,,,,,,,,,2186.9354756000102,2186.950627099999,2186.950627099999,2187.450690800004,2187.450690800004,2189.950830300004,2189.950830300004,2189.934681800005,None,1.0,,,,,,,,,,,,,,,,,,,,,,,,,,nback48,1.0,2024-01-11_12h56.39.558,untitled,2023.2.3,59.96717396684593,2024-01-11 13h16.28.324850 -0500,
11.0,"[-0.64, -0.4]",space,,,,,0.0,11.0,11.0,11.0,,,,,2189.950830300004,,,,,,,,,,,,,,,,,,,,,,,,,,,,,,,,,,,,,,,,,,,,,,2189.9353348000004,2189.950830300004,2189.950830300004,2190.450583700004,2190.450583700004,2192.950435900013,2192.950435900013,2192.934415200012,space,1.0,0.6973121999908471,None,,,,,,,,,,,,,,,,,,,,,,,,nback48,1.0,2024-01-11_12h56.39.558,untitled,2023.2.3,59.96717396684593,2024-01-11 13h16.28.324850 -0500,
4.0,"[-0.2, 0.1]",None,,,,,0.0,12.0,12.0,12.0,,,,,2192.950435900013,,,,,,,,,,,,,,,,,,,,,,,,,,,,,,,,,,,,,,,,,,,,,,2192.935094500004,2192.950435900013,2192.950435900013,2193.450634600013,2193.450634600013,2195.9504637000064,2195.9504637000064,2195.9345926000096,None,1.0,,,,,,,,,,,,,,,,,,,,,,,,,,nback48,1.0,2024-01-11_12h56.39.558,untitled,2023.2.3,59.96717396684593,2024-01-11 13h16.28.324850 -0500,
3.0,"[0, 0.2]",None,,,,,0.0,13.0,13.0,13.0,,,,,2195.9504637000064,,,,,,,,,,,,,,,,,,,,,,,,,,,,,,,,,,,,,,,,,,,,,,2195.935206400012,2195.9504637000064,2195.9504637000064,2196.4504795000103,2196.4504795000103,2198.950504200009,2198.950504200009,2198.9346644000034,None,1.0,,,,,,,,,,,,,,,,,,,,,,,,,,nback48,1.0,2024-01-11_12h56.39.558,untitled,2023.2.3,59.96717396684593,2024-01-11 13h16.28.324850 -0500,
3.0,"[0, 0.2]",space,,,,,0.0,14.0,14.0,14.0,,,,,2198.950504200009,,,,,,,,,,,,,,,,,,,,,,,,,,,,,,,,,,,,,,,,,,,,,,2198.9353322000097,2198.950504200009,2198.950504200009,2199.450383500007,2199.450383500007,2201.950346800004,2201.950346800004,2201.9344631999998,space,1.0,0.661737100002938,None,,,,,,,,,,,,,,,,,,,,,,,,nback48,1.0,2024-01-11_12h56.39.558,untitled,2023.2.3,59.96717396684593,2024-01-11 13h16.28.324850 -0500,
8.0,"[-0.2, -0.1]",None,,,,,0.0,15.0,15.0,15.0,,,,,2201.950346800004,,,,,,,,,,,,,,,,,,,,,,,,,,,,,,,,,,,,,,,,,,,,,,2201.9352542000124,2201.950346800004,2201.950346800004,2202.450482900007,2202.450482900007,2204.950239900005,2204.950239900005,2204.9342747000046,None,1.0,,,,,,,,,,,,,,,,,,,,,,,,,,nback48,1.0,2024-01-11_12h56.39.558,untitled,2023.2.3,59.96717396684593,2024-01-11 13h16.28.324850 -0500,
1.0,"[-0.64, 0.4]",None,,,,,0.0,16.0,16.0,16.0,,,,,2204.950239900005,,,,,,,,,,,,,,,,,,,,,,,,,,,,,,,,,,,,,,,,,,,,,,2204.934863200004,2204.950239900005,2204.950239900005,2205.450154200007,2205.450154200007,2207.9505291000096,2207.9505291000096,2207.934633000012,None,1.0,,,,,,,,,,,,,,,,,,,,,,,,,,nback48,1.0,2024-01-11_12h56.39.558,untitled,2023.2.3,59.96717396684593,2024-01-11 13h16.28.324850 -0500,
2.0,"[0.64, 0.4]",None,,,,,0.0,17.0,17.0,17.0,,,,,2207.9505291000096,,,,,,,,,,,,,,,,,,,,,,,,,,,,,,,,,,,,,,,,,,,,,,2207.935299500008,2207.9505291000096,2207.9505291000096,2208.450240200007,2208.450240200007,2210.9502936000063,2210.9502936000063,2210.934297700005,None,1.0,,,,,,,,,,,,,,,,,,,,,,,,,,nback48,1.0,2024-01-11_12h56.39.558,untitled,2023.2.3,59.96717396684593,2024-01-11 13h16.28.324850 -0500,
4.0,"[-0.2, 0.1]",None,,,,,0.0,18.0,18.0,18.0,,,,,2210.9502936000063,,,,,,,,,,,,,,,,,,,,,,,,,,,,,,,,,,,,,,,,,,,,,,2210.934914100013,2210.9502936000063,2210.9502936000063,2211.4502014000027,2211.4502014000027,2213.9500076000118,2213.9500076000118,2213.9340452000038,None,1.0,,,,,,,,,,,,,,,,,,,,,,,,,,nback48,1.0,2024-01-11_12h56.39.558,untitled,2023.2.3,59.96717396684593,2024-01-11 13h16.28.324850 -0500,
4.0,"[-0.2, 0.1]",space,,,,,0.0,19.0,19.0,19.0,,,,,2213.9500076000118,,,,,,,,,,,,,,,,,,,,,,,,,,,,,,,,,,,,,,,,,,,,,,2213.93465760001,2213.9500076000118,2213.9500076000118,2214.4500698000047,2214.4500698000047,2216.950135600011,2216.950135600011,2216.9343185000034,space,1.0,0.487472799999523,None,,,,,,,,,,,,,,,,,,,,,,,,nback48,1.0,2024-01-11_12h56.39.558,untitled,2023.2.3,59.96717396684593,2024-01-11 13h16.28.324850 -0500,
8.0,"[-0.2, -0.1]",None,,,,,0.0,20.0,20.0,20.0,,,,,2216.950135600011,,,,,,,,,,,,,,,,,,,,,,,,,,,,,,,,,,,,,,,,,,,,,,2216.935023400001,2216.950135600011,2216.950135600011,2217.450190100004,2217.450190100004,2219.950406600008,2219.950406600008,2219.934174400012,None,1.0,,,,,,,,,,,,,,,,,,,,,,,,,,nback48,1.0,2024-01-11_12h56.39.558,untitled,2023.2.3,59.96717396684593,2024-01-11 13h16.28.324850 -0500,
5.0,"[0.2, 0.1]",None,,,,,0.0,21.0,21.0,21.0,,,,,2219.950406600008,,,,,,,,,,,,,,,,,,,,,,,,,,,,,,,,,,,,,,,,,,,,,,2219.934792400003,2219.950406600008,2219.950406600008,2220.4502390000125,2220.4502390000125,2222.950030600012,2222.950030600012,2222.9339795000124,None,1.0,,,,,,,,,,,,,,,,,,,,,,,,,,nback48,1.0,2024-01-11_12h56.39.558,untitled,2023.2.3,59.96717396684593,2024-01-11 13h16.28.324850 -0500,
5.0,"[0.2, 0.1]",space,,,,,0.0,22.0,22.0,22.0,,,,,2222.950030600012,,,,,,,,,,,,,,,,,,,,,,,,,,,,,,,,,,,,,,,,,,,,,,2222.934633500001,2222.950030600012,2222.950030600012,2223.449999100005,2223.449999100005,2225.9499196000106,2225.9499196000106,2225.933879700009,space,1.0,0.6497844999976223,None,,,,,,,,,,,,,,,,,,,,,,,,nback48,1.0,2024-01-11_12h56.39.558,untitled,2023.2.3,59.96717396684593,2024-01-11 13h16.28.324850 -0500,
1.0,"[-0.64, 0.4]",None,,,,,0.0,23.0,23.0,23.0,,,,,2225.9499196000106,,,,,,,,,,,,,,,,,,,,,,,,,,,,,,,,,,,,,,,,,,,,,,2225.934611600009,2225.9499196000106,2225.9499196000106,2226.449883100009,2226.449883100009,2228.9502516000066,2228.9502516000066,2228.9341649000125,None,1.0,,,,,,,,,,,,,,,,,,,,,,,,,,nback48,1.0,2024-01-11_12h56.39.558,untitled,2023.2.3,59.96717396684593,2024-01-11 13h16.28.324850 -0500,
3.0,"[0, 0.2]",None,,,,,0.0,24.0,24.0,24.0,,,,,2228.9502516000066,,,,,,,,,,,,,,,,,,,,,,,,,,,,,,,,,,,,,,,,,,,,,,2228.9349105,2228.9502516000066,2228.9502516000066,2229.4499560000118,2229.4499560000118,2231.949869200005,2231.949869200005,2231.934069400013,None,1.0,,,,,,,,,,,,,,,,,,,,,,,,,,nback48,1.0,2024-01-11_12h56.39.558,untitled,2023.2.3,59.96717396684593,2024-01-11 13h16.28.324850 -0500,
6.0,"[-0.3, 0]",None,,,,,0.0,25.0,25.0,25.0,,,,,2231.949869200005,,,,,,,,,,,,,,,,,,,,,,,,,,,,,,,,,,,,,,,,,,,,,,2231.9347169000102,2231.949869200005,2231.949869200005,2232.4499712000106,2232.4499712000106,2234.9498410000087,2234.9498410000087,2234.933713200008,None,1.0,,,,,,,,,,,,,,,,,,,,,,,,,,nback48,1.0,2024-01-11_12h56.39.558,untitled,2023.2.3,59.96717396684593,2024-01-11 13h16.28.324850 -0500,
1.0,"[-0.64, 0.4]",None,,,,,0.0,26.0,26.0,26.0,,,,,2234.9498410000087,,,,,,,,,,,,,,,,,,,,,,,,,,,,,,,,,,,,,,,,,,,,,,2234.9343192000088,2234.9498410000087,2234.9498410000087,2235.4498269000032,2235.4498269000032,2237.9498054,2237.9498054,2237.9337876000063,None,1.0,,,,,,,,,,,,,,,,,,,,,,,,,,nback48,1.0,2024-01-11_12h56.39.558,untitled,2023.2.3,59.96717396684593,2024-01-11 13h16.28.324850 -0500,
1.0,"[-0.64, 0.4]",space,,,,,0.0,27.0,27.0,27.0,,,,,2237.9498054,,,,,,,,,,,,,,,,,,,,,,,,,,,,,,,,,,,,,,,,,,,,,,2237.934400700004,2237.9498054,2237.9498054,2238.449690900001,2238.449690900001,2240.9497753000032,2240.9497753000032,2240.9338438000123,space,1.0,0.6158924000046682,None,,,,,,,,,,,,,,,,,,,,,,,,nback48,1.0,2024-01-11_12h56.39.558,untitled,2023.2.3,59.96717396684593,2024-01-11 13h16.28.324850 -0500,
1.0,"[-0.64, 0.4]",space,,,,,0.0,28.0,28.0,28.0,,,,,2240.9497753000032,,,,,,,,,,,,,,,,,,,,,,,,,,,,,,,,,,,,,,,,,,,,,,2240.9346057000075,2240.9497753000032,2240.9497753000032,2241.4497580000025,2241.4497580000025,2243.949665500011,2243.949665500011,2243.9336778,None,0.0,,,,,,,,,,,,,,,,,,,,,,,,,,nback48,1.0,2024-01-11_12h56.39.558,untitled,2023.2.3,59.96717396684593,2024-01-11 13h16.28.324850 -0500,
3.0,"[0, 0.2]",None,,,,,0.0,29.0,29.0,29.0,,,,,2243.949665500011,,,,,,,,,,,,,,,,,,,,,,,,,,,,,,,,,,,,,,,,,,,,,,2243.934273000006,2243.949665500011,2243.949665500011,2244.4496563,2244.4496563,2246.9495797000127,2246.9495797000127,2246.933722600006,None,1.0,,,,,,,,,,,,,,,,,,,,,,,,,,nback48,1.0,2024-01-11_12h56.39.558,untitled,2023.2.3,59.96717396684593,2024-01-11 13h16.28.324850 -0500,
12.0,"[0.64, -0.4]",None,,,,,0.0,30.0,30.0,30.0,,,,,2246.9495797000127,,,,,,,,,,,,,,,,,,,,,,,,,,,,,,,,,,,,,,,,,,,,,,2246.934418900011,2246.9495797000127,2246.9495797000127,2247.4496305000066,2247.4496305000066,2249.949552700011,2249.949552700011,2249.9337161000003,None,1.0,,,,,,,,,,,,,,,,,,,,,,,,,,nback48,1.0,2024-01-11_12h56.39.558,untitled,2023.2.3,59.96717396684593,2024-01-11 13h16.28.324850 -0500,
12.0,"[0.64, -0.4]",space,,,,,0.0,31.0,31.0,31.0,,,,,2249.949552700011,,,,,,,,,,,,,,,,,,,,,,,,,,,,,,,,,,,,,,,,,,,,,,2249.93433850001,2249.949552700011,2249.949552700011,2250.449461900004,2250.449461900004,2252.949469700005,2252.949469700005,2252.9335974999995,space,1.0,0.6840917999943485,None,,,,,,,,,,,,,,,,,,,,,,,,nback48,1.0,2024-01-11_12h56.39.558,untitled,2023.2.3,59.96717396684593,2024-01-11 13h16.28.324850 -0500,
2.0,"[0.64, 0.4]",None,,,,,0.0,32.0,32.0,32.0,,,,,2252.949469700005,,,,,,,,,,,,,,,,,,,,,,,,,,,,,,,,,,,,,,,,,,,,,,2252.934338900013,2252.949469700005,2252.949469700005,2253.4494437000103,2253.4494437000103,2255.949441400008,2255.949441400008,2255.9336577000067,None,1.0,,,,,,,,,,,,,,,,,,,,,,,,,,nback48,1.0,2024-01-11_12h56.39.558,untitled,2023.2.3,59.96717396684593,2024-01-11 13h16.28.324850 -0500,
1.0,"[-0.64, 0.4]",None,,,,,0.0,33.0,33.0,33.0,,,,,2255.949441400008,,,,,,,,,,,,,,,,,,,,,,,,,,,,,,,,,,,,,,,,,,,,,,2255.934278300003,2255.949441400008,2255.949441400008,2256.449345900008,2256.449345900008,2258.949407500011,2258.949407500011,2258.9334653000114,None,1.0,,,,,,,,,,,,,,,,,,,,,,,,,,nback48,1.0,2024-01-11_12h56.39.558,untitled,2023.2.3,59.96717396684593,2024-01-11 13h16.28.324850 -0500,
7.0,"[0.3, 0]",None,,,,,0.0,34.0,34.0,34.0,,,,,2258.949407500011,,,,,,,,,,,,,,,,,,,,,,,,,,,,,,,,,,,,,,,,,,,,,,2258.934131700007,2258.949407500011,2258.949407500011,2259.4493776000018,2259.4493776000018,2261.949508000005,2261.949508000005,2261.9338592999998,None,1.0,,,,,,,,,,,,,,,,,,,,,,,,,,nback48,1.0,2024-01-11_12h56.39.558,untitled,2023.2.3,59.96717396684593,2024-01-11 13h16.28.324850 -0500,
7.0,"[0.3, 0]",space,,,,,0.0,35.0,35.0,35.0,,,,,2261.949508000005,,,,,,,,,,,,,,,,,,,,,,,,,,,,,,,,,,,,,,,,,,,,,,2261.9346370999992,2261.949508000005,2261.949508000005,2262.449453500012,2262.449453500012,2264.9492660000105,2264.9492660000105,2264.933500500003,space,1.0,0.7693081000033999,None,,,,,,,,,,,,,,,,,,,,,,,,nback48,1.0,2024-01-11_12h56.39.558,untitled,2023.2.3,59.96717396684593,2024-01-11 13h16.28.324850 -0500,
11.0,"[-0.64, -0.4]",None,,,,,0.0,36.0,36.0,36.0,,,,,2264.9492660000105,,,,,,,,,,,,,,,,,,,,,,,,,,,,,,,,,,,,,,,,,,,,,,2264.9343727000087,2264.9492660000105,2264.9492660000105,2265.449276800005,2265.449276800005,2267.949217000001,2267.949217000001,2267.9334499000106,None,1.0,,,,,,,,,,,,,,,,,,,,,,,,,,nback48,1.0,2024-01-11_12h56.39.558,untitled,2023.2.3,59.96717396684593,2024-01-11 13h16.28.324850 -0500,
2.0,"[0.64, 0.4]",None,,,,,0.0,37.0,37.0,37.0,,,,,2267.949217000001,,,,,,,,,,,,,,,,,,,,,,,,,,,,,,,,,,,,,,,,,,,,,,2267.9341226000106,2267.949217000001,2267.949217000001,2268.4492963000084,2268.4492963000084,2270.9491254000022,2270.9491254000022,2270.9336814000126,None,1.0,,,,,,,,,,,,,,,,,,,,,,,,,,nback48,1.0,2024-01-11_12h56.39.558,untitled,2023.2.3,59.96717396684593,2024-01-11 13h16.28.324850 -0500,
6.0,"[-0.3, 0]",None,,,,,0.0,38.0,38.0,38.0,,,,,2270.9491254000022,,,,,,,,,,,,,,,,,,,,,,,,,,,,,,,,,,,,,,,,,,,,,,2270.934665200009,2270.9491254000022,2270.9491254000022,2271.449476600013,2271.449476600013,2273.9492260000115,2273.9492260000115,2273.933261900005,None,1.0,,,,,,,,,,,,,,,,,,,,,,,,,,nback48,1.0,2024-01-11_12h56.39.558,untitled,2023.2.3,59.96717396684593,2024-01-11 13h16.28.324850 -0500,
10.0,"[0, -0.2]",None,,,,,0.0,39.0,39.0,39.0,,,,,2273.9492260000115,,,,,,,,,,,,,,,,,,,,,,,,,,,,,,,,,,,,,,,,,,,,,,2273.934022100002,2273.9492260000115,2273.9492260000115,2274.449181300006,2274.449181300006,2276.949249800004,2276.949249800004,2276.933142600013,None,1.0,,,,,,,,,,,,,,,,,,,,,,,,,,nback48,1.0,2024-01-11_12h56.39.558,untitled,2023.2.3,59.96717396684593,2024-01-11 13h16.28.324850 -0500,
,,,,,,,,,,,,,,,,,,,,,,,,,,,,,,,,,,,,,,,,,,,,,,,,,,,,,,,,,,,,,,,,,,,,,,,,,2276.93360270001,2276.949249800004,2276.949249800004,2289.3502731000044,space,12.387156900003902,None,,,,,,,,,,,,,,,,,nback48,1.0,2024-01-11_12h56.39.558,untitled,2023.2.3,59.96717396684593,2024-01-11 13h16.28.324850 -0500,
,"[0.2, 0.1]",None,,,,,,,,,0.0,0.0,0.0,0.0,2290.366534300003,,,,,,,,,,,,,,,,,,,,,,,,2289.3503173000063,2289.36551280001,2290.366534300003,2290.349771699999,,,,,,,,,,,,,,,,,,,,,,,,,,,,,,,,,,,,,,2290.364550600003,2290.366534300003,2290.366534300003,2290.865554000004,2290.882152200007,2293.3654890000034,2293.3654890000034,2293.349531300002,None,1.0,,,,,,,nback48,1.0,2024-01-11_12h56.39.558,untitled,2023.2.3,59.96717396684593,2024-01-11 13h16.28.324850 -0500,
,"[0.64, 0.4]",None,,,,,,,,,0.0,1.0,1.0,1.0,2293.3654890000034,,,,,,,,,,,,,,,,,,,,,,,,,,,,,,,,,,,,,,,,,,,,,,,,,,,,,,,,,,,,,,,,,2293.350187700009,2293.3654890000034,2293.3654890000034,2293.8654695000005,2293.8654695000005,2296.3654513000074,2296.3654513000074,2296.349451300004,None,1.0,,,,,,,nback48,1.0,2024-01-11_12h56.39.558,untitled,2023.2.3,59.96717396684593,2024-01-11 13h16.28.324850 -0500,
,"[-0.3, 0]",None,,,,,,,,,0.0,2.0,2.0,2.0,2296.3654513000074,,,,,,,,,,,,,,,,,,,,,,,,,,,,,,,,,,,,,,,,,,,,,,,,,,,,,,,,,,,,,,,,,2296.350078600008,2296.3654513000074,2296.3654513000074,2296.86552810001,2296.86552810001,2299.365441300004,2299.365441300004,2299.34953040001,None,1.0,,,,,,,nback48,1.0,2024-01-11_12h56.39.558,untitled,2023.2.3,59.96717396684593,2024-01-11 13h16.28.324850 -0500,
,"[0.2, -0.1]",None,,,,,,,,,0.0,3.0,3.0,3.0,2299.365441300004,,,,,,,,,,,,,,,,,,,,,,,,,,,,,,,,,,,,,,,,,,,,,,,,,,,,,,,,,,,,,,,,,2299.35016110001,2299.365441300004,2299.365441300004,2299.8654345000105,2299.8654345000105,2302.3654255,2302.3654255,2302.349692100004,None,1.0,,,,,,,nback48,1.0,2024-01-11_12h56.39.558,untitled,2023.2.3,59.96717396684593,2024-01-11 13h16.28.324850 -0500,
,"[0, 0.2]",None,,,,,,,,,0.0,4.0,4.0,4.0,2302.3654255,,,,,,,,,,,,,,,,,,,,,,,,,,,,,,,,,,,,,,,,,,,,,,,,,,,,,,,,,,,,,,,,,2302.350541000007,2302.3654255,2302.3654255,2302.8653949,2302.8653949,2305.365208700008,2305.365208700008,2305.3493823000026,None,1.0,,,,,,,nback48,1.0,2024-01-11_12h56.39.558,untitled,2023.2.3,59.96717396684593,2024-01-11 13h16.28.324850 -0500,
,"[0.2, -0.1]",space,,,,,,,,,0.0,5.0,5.0,5.0,2305.365208700008,,,,,,,,,,,,,,,,,,,,,,,,,,,,,,,,,,,,,,,,,,,,,,,,,,,,,,,,,,,,,,,,,2305.350079700001,2305.365208700008,2305.365208700008,2305.865209900003,2305.865209900003,2308.365330300003,2308.365330300003,2308.3496674000053,space,1.0,0.5943661999917822,None,,,,,nback48,1.0,2024-01-11_12h56.39.558,untitled,2023.2.3,59.96717396684593,2024-01-11 13h16.28.324850 -0500,
,"[0, -0.2]",None,,,,,,,,,0.0,6.0,6.0,6.0,2308.365330300003,,,,,,,,,,,,,,,,,,,,,,,,,,,,,,,,,,,,,,,,,,,,,,,,,,,,,,,,,,,,,,,,,2308.3509025000094,2308.365330300003,2308.365330300003,2308.865417500012,2308.865417500012,2311.3650949000003,2311.3650949000003,2311.3493120000057,None,1.0,,,,,,,nback48,1.0,2024-01-11_12h56.39.558,untitled,2023.2.3,59.96717396684593,2024-01-11 13h16.28.324850 -0500,
,"[0.64, -0.4]",None,,,,,,,,,0.0,7.0,7.0,7.0,2311.3650949000003,,,,,,,,,,,,,,,,,,,,,,,,,,,,,,,,,,,,,,,,,,,,,,,,,,,,,,,,,,,,,,,,,2311.349904400005,2311.3650949000003,2311.3650949000003,2311.8649898000003,2311.8649898000003,2314.3652063000045,2314.3652063000045,2314.349333200007,None,1.0,,,,,,,nback48,1.0,2024-01-11_12h56.39.558,untitled,2023.2.3,59.96717396684593,2024-01-11 13h16.28.324850 -0500,
,"[0.3, 0]",None,,,,,,,,,0.0,8.0,8.0,8.0,2314.3652063000045,,,,,,,,,,,,,,,,,,,,,,,,,,,,,,,,,,,,,,,,,,,,,,,,,,,,,,,,,,,,,,,,,2314.3500048000133,2314.3652063000045,2314.3652063000045,2314.8651453000057,2314.8651453000057,2317.365101600008,2317.365101600008,2317.349187500004,None,1.0,,,,,,,nback48,1.0,2024-01-11_12h56.39.558,untitled,2023.2.3,59.96717396684593,2024-01-11 13h16.28.324850 -0500,
,"[0.64, -0.4]",space,,,,,,,,,0.0,9.0,9.0,9.0,2317.365101600008,,,,,,,,,,,,,,,,,,,,,,,,,,,,,,,,,,,,,,,,,,,,,,,,,,,,,,,,,,,,,,,,,2317.349774800008,2317.365101600008,2317.365101600008,2317.865104100012,2317.865104100012,2320.364988900008,2320.364988900008,2320.349202600002,space,1.0,0.5815042000031099,None,,,,,nback48,1.0,2024-01-11_12h56.39.558,untitled,2023.2.3,59.96717396684593,2024-01-11 13h16.28.324850 -0500,
,"[-0.64, 0.4]",None,,,,,,,,,0.0,10.0,10.0,10.0,2320.364988900008,,,,,,,,,,,,,,,,,,,,,,,,,,,,,,,,,,,,,,,,,,,,,,,,,,,,,,,,,,,,,,,,,2320.3500568000018,2320.364988900008,2320.364988900008,2320.864999500001,2320.864999500001,2323.3649553,2323.3649553,2323.349077900013,None,1.0,,,,,,,nback48,1.0,2024-01-11_12h56.39.558,untitled,2023.2.3,59.96717396684593,2024-01-11 13h16.28.324850 -0500,
,"[0.2, 0.1]",None,,,,,,,,,0.0,11.0,11.0,11.0,2323.3649553,,,,,,,,,,,,,,,,,,,,,,,,,,,,,,,,,,,,,,,,,,,,,,,,,,,,,,,,,,,,,,,,,2323.349655400001,2323.3649553,2323.3649553,2323.8648906000017,2323.8648906000017,2326.3650941000087,2326.3650941000087,2326.349221299999,None,1.0,,,,,,,nback48,1.0,2024-01-11_12h56.39.558,untitled,2023.2.3,59.96717396684593,2024-01-11 13h16.28.324850 -0500,
,"[0.3, 0]",None,,,,,,,,,0.0,12.0,12.0,12.0,2326.3650941000087,,,,,,,,,,,,,,,,,,,,,,,,,,,,,,,,,,,,,,,,,,,,,,,,,,,,,,,,,,,,,,,,,2326.3499053000123,2326.3650941000087,2326.3650941000087,2326.864910500008,2326.864910500008,2329.3647996000072,2329.3647996000072,2329.349046800009,None,1.0,,,,,,,nback48,1.0,2024-01-11_12h56.39.558,untitled,2023.2.3,59.96717396684593,2024-01-11 13h16.28.324850 -0500,
,"[0.2, 0.1]",space,,,,,,,,,0.0,13.0,13.0,13.0,2329.3647996000072,,,,,,,,,,,,,,,,,,,,,,,,,,,,,,,,,,,,,,,,,,,,,,,,,,,,,,,,,,,,,,,,,2329.349720000013,2329.3647996000072,2329.3647996000072,2329.864967900008,2329.864967900008,2332.364738700009,2332.364738700009,2332.349046600008,space,1.0,0.6868508000043221,None,,,,,nback48,1.0,2024-01-11_12h56.39.558,untitled,2023.2.3,59.96717396684593,2024-01-11 13h16.28.324850 -0500,
,"[-0.3, 0]",None,,,,,,,,,0.0,14.0,14.0,14.0,2332.364738700009,,,,,,,,,,,,,,,,,,,,,,,,,,,,,,,,,,,,,,,,,,,,,,,,,,,,,,,,,,,,,,,,,2332.349820000003,2332.364738700009,2332.364738700009,2332.8647414000006,2332.8647414000006,2335.364675200006,2335.364675200006,2335.3488076000067,None,1.0,,,,,,,nback48,1.0,2024-01-11_12h56.39.558,untitled,2023.2.3,59.96717396684593,2024-01-11 13h16.28.324850 -0500,
,"[0, 0.2]",None,,,,,,,,,0.0,15.0,15.0,15.0,2335.364675200006,,,,,,,,,,,,,,,,,,,,,,,,,,,,,,,,,,,,,,,,,,,,,,,,,,,,,,,,,,,,,,,,,2335.349593100007,2335.364675200006,2335.364675200006,2335.865003400002,2335.865003400002,2338.3647534000047,2338.3647534000047,2338.349294700005,None,1.0,,,,,,,nback48,1.0,2024-01-11_12h56.39.558,untitled,2023.2.3,59.96717396684593,2024-01-11 13h16.28.324850 -0500,
,"[-0.3, 0]",space,,,,,,,,,0.0,16.0,16.0,16.0,2338.3647534000047,,,,,,,,,,,,,,,,,,,,,,,,,,,,,,,,,,,,,,,,,,,,,,,,,,,,,,,,,,,,,,,,,2338.350097700008,2338.3647534000047,2338.3647534000047,2338.864641200009,2338.864641200009,2341.364760299999,2341.364760299999,2341.348964200006,space,1.0,0.4446886999940034,None,,,,,nback48,1.0,2024-01-11_12h56.39.558,untitled,2023.2.3,59.96717396684593,2024-01-11 13h16.28.324850 -0500,
,"[-0.64, -0.4]",None,,,,,,,,,0.0,17.0,17.0,17.0,2341.364760299999,,,,,,,,,,,,,,,,,,,,,,,,,,,,,,,,,,,,,,,,,,,,,,,,,,,,,,,,,,,,,,,,,2341.349837300004,2341.364760299999,2341.364760299999,2341.864678400001,2341.864678400001,2344.3646394000098,2344.3646394000098,2344.348472700003,None,1.0,,,,,,,nback48,1.0,2024-01-11_12h56.39.558,untitled,2023.2.3,59.96717396684593,2024-01-11 13h16.28.324850 -0500,
,"[-0.2, -0.1]",None,,,,,,,,,0.0,18.0,18.0,18.0,2344.3646394000098,,,,,,,,,,,,,,,,,,,,,,,,,,,,,,,,,,,,,,,,,,,,,,,,,,,,,,,,,,,,,,,,,2344.349032500002,2344.3646394000098,2344.3646394000098,2344.864614200007,2344.864614200007,2347.364482200006,2347.364482200006,2347.348846500012,None,1.0,,,,,,,nback48,1.0,2024-01-11_12h56.39.558,untitled,2023.2.3,59.96717396684593,2024-01-11 13h16.28.324850 -0500,
,"[0.2, -0.1]",None,,,,,,,,,0.0,19.0,19.0,19.0,2347.364482200006,,,,,,,,,,,,,,,,,,,,,,,,,,,,,,,,,,,,,,,,,,,,,,,,,,,,,,,,,,,,,,,,,2347.349630900004,2347.364482200006,2347.364482200006,2347.864579800007,2347.864579800007,2350.3643955000007,2350.3643955000007,2350.348589100002,None,1.0,,,,,,,nback48,1.0,2024-01-11_12h56.39.558,untitled,2023.2.3,59.96717396684593,2024-01-11 13h16.28.324850 -0500,
,"[0.2, -0.1]",None,,,,,,,,,0.0,20.0,20.0,20.0,2350.3643955000007,,,,,,,,,,,,,,,,,,,,,,,,,,,,,,,,,,,,,,,,,,,,,,,,,,,,,,,,,,,,,,,,,2350.349171900001,2350.3643955000007,2350.3643955000007,2350.8646731000044,2350.8646731000044,2353.364449700006,2353.364449700006,2353.348100800009,None,1.0,,,,,,,nback48,1.0,2024-01-11_12h56.39.558,untitled,2023.2.3,59.96717396684593,2024-01-11 13h16.28.324850 -0500,
,"[-0.64, 0.4]",None,,,,,,,,,0.0,21.0,21.0,21.0,2353.364449700006,,,,,,,,,,,,,,,,,,,,,,,,,,,,,,,,,,,,,,,,,,,,,,,,,,,,,,,,,,,,,,,,,2353.3484326000034,2353.364449700006,2353.364449700006,2353.8644876000035,2353.8644876000035,2356.3645579000004,2356.3645579000004,2356.348483000009,None,1.0,,,,,,,nback48,1.0,2024-01-11_12h56.39.558,untitled,2023.2.3,59.96717396684593,2024-01-11 13h16.28.324850 -0500,
,"[0, 0.2]",None,,,,,,,,,0.0,22.0,22.0,22.0,2356.3645579000004,,,,,,,,,,,,,,,,,,,,,,,,,,,,,,,,,,,,,,,,,,,,,,,,,,,,,,,,,,,,,,,,,2356.349167600012,2356.3645579000004,2356.3645579000004,2356.8645219000027,2356.8645219000027,2359.364323300004,2359.364323300004,2359.348379300005,None,1.0,,,,,,,nback48,1.0,2024-01-11_12h56.39.558,untitled,2023.2.3,59.96717396684593,2024-01-11 13h16.28.324850 -0500,
,"[0.64, -0.4]",None,,,,,,,,,0.0,23.0,23.0,23.0,2359.364323300004,,,,,,,,,,,,,,,,,,,,,,,,,,,,,,,,,,,,,,,,,,,,,,,,,,,,,,,,,,,,,,,,,2359.3489684000087,2359.364323300004,2359.364323300004,2359.864342300003,2359.864342300003,2362.364377500009,2362.364377500009,2362.3484801000013,None,1.0,,,,,,,nback48,1.0,2024-01-11_12h56.39.558,untitled,2023.2.3,59.96717396684593,2024-01-11 13h16.28.324850 -0500,
,"[0, 0.2]",space,,,,,,,,,0.0,24.0,24.0,24.0,2362.364377500009,,,,,,,,,,,,,,,,,,,,,,,,,,,,,,,,,,,,,,,,,,,,,,,,,,,,,,,,,,,,,,,,,2362.34907940001,2362.364377500009,2362.364377500009,2362.8644087,2362.8644087,2365.3643561000063,2365.3643561000063,2365.348413700005,space,1.0,0.7218072999967262,None,,,,,nback48,1.0,2024-01-11_12h56.39.558,untitled,2023.2.3,59.96717396684593,2024-01-11 13h16.28.324850 -0500,
,"[-0.2, 0.1]",None,,,,,,,,,0.0,25.0,25.0,25.0,2365.3643561000063,,,,,,,,,,,,,,,,,,,,,,,,,,,,,,,,,,,,,,,,,,,,,,,,,,,,,,,,,,,,,,,,,2365.3493903000053,2365.3643561000063,2365.3643561000063,2365.864380900006,2365.864380900006,2368.364183800004,2368.364183800004,2368.3482030000014,None,1.0,,,,,,,nback48,1.0,2024-01-11_12h56.39.558,untitled,2023.2.3,59.96717396684593,2024-01-11 13h16.28.324850 -0500,
,"[0.3, 0]",None,,,,,,,,,0.0,26.0,26.0,26.0,2368.364183800004,,,,,,,,,,,,,,,,,,,,,,,,,,,,,,,,,,,,,,,,,,,,,,,,,,,,,,,,,,,,,,,,,2368.3487625000125,2368.364183800004,2368.364183800004,2368.8642081,2368.8642081,2371.3641911000013,2371.3641911000013,2371.3483442,None,1.0,,,,,,,nback48,1.0,2024-01-11_12h56.39.558,untitled,2023.2.3,59.96717396684593,2024-01-11 13h16.28.324850 -0500,
,"[-0.2, 0.1]",space,,,,,,,,,0.0,27.0,27.0,27.0,2371.3641911000013,,,,,,,,,,,,,,,,,,,,,,,,,,,,,,,,,,,,,,,,,,,,,,,,,,,,,,,,,,,,,,,,,2371.3489672,2371.3641911000013,2371.3641911000013,2371.8639799000084,2371.8639799000084,2374.364201900011,2374.364201900011,2374.348252200012,space,1.0,0.7341011999960756,None,,,,,nback48,1.0,2024-01-11_12h56.39.558,untitled,2023.2.3,59.96717396684593,2024-01-11 13h16.28.324850 -0500,
,"[-0.2, 0.1]",None,,,,,,,,,0.0,28.0,28.0,28.0,2374.364201900011,,,,,,,,,,,,,,,,,,,,,,,,,,,,,,,,,,,,,,,,,,,,,,,,,,,,,,,,,,,,,,,,,2374.348999000009,2374.364201900011,2374.364201900011,2374.8641164,2374.8641164,2377.3639656000014,2377.3639656000014,2377.3485135000083,None,1.0,,,,,,,nback48,1.0,2024-01-11_12h56.39.558,untitled,2023.2.3,59.96717396684593,2024-01-11 13h16.28.324850 -0500,
,"[0.2, 0.1]",None,,,,,,,,,0.0,29.0,29.0,29.0,2377.3639656000014,,,,,,,,,,,,,,,,,,,,,,,,,,,,,,,,,,,,,,,,,,,,,,,,,,,,,,,,,,,,,,,,,2377.349260700008,2377.3639656000014,2377.3639656000014,2377.863992700004,2377.863992700004,2380.3639692,2380.3639692,2380.3481117000047,None,1.0,,,,,,,nback48,1.0,2024-01-11_12h56.39.558,untitled,2023.2.3,59.96717396684593,2024-01-11 13h16.28.324850 -0500,
,"[-0.64, -0.4]",None,,,,,,,,,0.0,30.0,30.0,30.0,2380.3639692,,,,,,,,,,,,,,,,,,,,,,,,,,,,,,,,,,,,,,,,,,,,,,,,,,,,,,,,,,,,,,,,,2380.3487147000124,2380.3639692,2380.3639692,2380.863967000012,2380.863967000012,2383.363950600004,2383.363950600004,2383.348299400008,None,1.0,,,,,,,nback48,1.0,2024-01-11_12h56.39.558,untitled,2023.2.3,59.96717396684593,2024-01-11 13h16.28.324850 -0500,
,"[0, -0.2]",None,,,,,,,,,0.0,31.0,31.0,31.0,2383.363950600004,,,,,,,,,,,,,,,,,,,,,,,,,,,,,,,,,,,,,,,,,,,,,,,,,,,,,,,,,,,,,,,,,2383.349075800012,2383.363950600004,2383.363950600004,2383.864018700013,2383.864018700013,2386.36382340001,2386.36382340001,2386.348033000002,None,1.0,,,,,,,nback48,1.0,2024-01-11_12h56.39.558,untitled,2023.2.3,59.96717396684593,2024-01-11 13h16.28.324850 -0500,
,"[-0.64, -0.4]",space,,,,,,,,,0.0,32.0,32.0,32.0,2386.36382340001,,,,,,,,,,,,,,,,,,,,,,,,,,,,,,,,,,,,,,,,,,,,,,,,,,,,,,,,,,,,,,,,,2386.3486746000126,2386.36382340001,2386.36382340001,2386.863875100011,2386.863875100011,2389.3638326000078,2389.3638326000078,2389.3479978000105,space,1.0,0.9272893000015756,None,,,,,nback48,1.0,2024-01-11_12h56.39.558,untitled,2023.2.3,59.96717396684593,2024-01-11 13h16.28.324850 -0500,
,"[0.64, 0.4]",None,,,,,,,,,0.0,33.0,33.0,33.0,2389.3638326000078,,,,,,,,,,,,,,,,,,,,,,,,,,,,,,,,,,,,,,,,,,,,,,,,,,,,,,,,,,,,,,,,,2389.348847400004,2389.3638326000078,2389.3638326000078,2389.863960600007,2389.863960600007,2392.363826200002,2392.363826200002,2392.3483413000067,None,1.0,,,,,,,nback48,1.0,2024-01-11_12h56.39.558,untitled,2023.2.3,59.96717396684593,2024-01-11 13h16.28.324850 -0500,
,"[-0.3, 0]",None,,,,,,,,,0.0,34.0,34.0,34.0,2392.363826200002,,,,,,,,,,,,,,,,,,,,,,,,,,,,,,,,,,,,,,,,,,,,,,,,,,,,,,,,,,,,,,,,,2392.349211200009,2392.363826200002,2392.363826200002,2392.8639213000133,2392.8639213000133,2395.363710300008,2395.363710300008,2395.3481440000032,None,1.0,,,,,,,nback48,1.0,2024-01-11_12h56.39.558,untitled,2023.2.3,59.96717396684593,2024-01-11 13h16.28.324850 -0500,
,"[0.3, 0]",None,,,,,,,,,0.0,35.0,35.0,35.0,2395.363710300008,,,,,,,,,,,,,,,,,,,,,,,,,,,,,,,,,,,,,,,,,,,,,,,,,,,,,,,,,,,,,,,,,2395.348871000009,2395.363710300008,2395.363710300008,2395.8638060000085,2395.8638060000085,2398.363616700008,2398.363616700008,2398.3477686000115,None,1.0,,,,,,,nback48,1.0,2024-01-11_12h56.39.558,untitled,2023.2.3,59.96717396684593,2024-01-11 13h16.28.324850 -0500,
,"[-0.3, 0]",space,,,,,,,,,0.0,36.0,36.0,36.0,2398.363616700008,,,,,,,,,,,,,,,,,,,,,,,,,,,,,,,,,,,,,,,,,,,,,,,,,,,,,,,,,,,,,,,,,2398.348337100004,2398.363616700008,2398.363616700008,2398.8637080000044,2398.8637080000044,2401.363742500005,2401.363742500005,2401.34777030001,space,1.0,0.4320411999942735,None,,,,,nback48,1.0,2024-01-11_12h56.39.558,untitled,2023.2.3,59.96717396684593,2024-01-11 13h16.28.324850 -0500,
,"[0, -0.2]",None,,,,,,,,,0.0,37.0,37.0,37.0,2401.363742500005,,,,,,,,,,,,,,,,,,,,,,,,,,,,,,,,,,,,,,,,,,,,,,,,,,,,,,,,,,,,,,,,,2401.348508200012,2401.363742500005,2401.363742500005,2401.863726200012,2401.863726200012,2404.363559900012,2404.363559900012,2404.347568600002,None,1.0,,,,,,,nback48,1.0,2024-01-11_12h56.39.558,untitled,2023.2.3,59.96717396684593,2024-01-11 13h16.28.324850 -0500,
,"[0.3, 0]",None,,,,,,,,,0.0,38.0,38.0,38.0,2404.363559900012,,,,,,,,,,,,,,,,,,,,,,,,,,,,,,,,,,,,,,,,,,,,,,,,,,,,,,,,,,,,,,,,,2404.348210700002,2404.363559900012,2404.363559900012,2404.863698900008,2404.863698900008,2407.3634723,2407.3634723,2407.3479933000053,space,0.0,1.2069372999976622,None,,,,,nback48,1.0,2024-01-11_12h56.39.558,untitled,2023.2.3,59.96717396684593,2024-01-11 13h16.28.324850 -0500,
,"[0.2, 0.1]",None,,,,,,,,,0.0,39.0,39.0,39.0,2407.3634723,,,,,,,,,,,,,,,,,,,,,,,,,,,,,,,,,,,,,,,,,,,,,,,,,,,,,,,,,,,,,,,,,2407.349014300009,2407.3634723,2407.3634723,2407.8636250000127,2407.8636250000127,2410.363524400004,2410.363524400004,2410.3476077000087,None,1.0,,,,,,,nback48,1.0,2024-01-11_12h56.39.558,untitled,2023.2.3,59.96717396684593,2024-01-11 13h16.28.324850 -0500,
,,,,,,,,,,,,,,,,,,,,,,,,,,,,,,,,,,,,,,,,,,,,,,,,,,,,,,,,,,,,,,,,,,,,,,,,,,,,,,,,,,,,,,,,,,,,2410.348023600003,2410.363524400004,2413.363449299999,2413.3474581000046,,,,,,,,
