square,location,corrAns,trials_0.thisRepN,trials_0.thisTrialN,trials_0.thisN,trials_0.thisIndex,trials_1.thisRepN,trials_1.thisTrialN,trials_1.thisN,trials_1.thisIndex,trials_2.thisRepN,trials_2.thisTrialN,trials_2.thisN,trials_2.thisIndex,thisRow.t,notes,Instructions.started,instructions.started,key_resp.started,inst_sq11.started,Instructions.stopped,key_resp.keys,key_resp.rt,key_resp.duration,All.started,sq_1.started,sq_2.started,sq_3.started,sq_4.started,sq_5.started,sq_6.started,sq_7.started,sq_8.started,sq_9.started,sq_10.started,sq_11.started,sq_12.started,All.stopped,Fixation.started,fixation_3.started,fixation_3.stopped,Fixation.stopped,N_back_0_Trial.started,target_square_0.started,response_0.started,fixation_0.started,target_square_0.stopped,fixation_0.stopped,response_0.stopped,N_back_0_Trial.stopped,response_0.keys,response_0.corr,response_0.rt,response_0.duration,Instructions_1.started,instructions_1.started,key_resp_1.started,Instructions_1.stopped,key_resp_1.keys,key_resp_1.rt,key_resp_1.duration,N_back_1_Trial.started,target_square_1.started,response_1.started,fixation_1.started,target_square_1.stopped,fixation_1.stopped,response_1.stopped,N_back_1_Trial.stopped,response_1.keys,response_1.corr,response_1.rt,response_1.duration,Instructions_2.started,instructions_2.started,key_resp_2.started,Instructions_2.stopped,key_resp_2.keys,key_resp_2.rt,key_resp_2.duration,N_back_2_trials.started,target_square_2.started,response_2.started,target_square_2.stopped,fixation_2.started,fixation_2.stopped,response_2.stopped,N_back_2_trials.stopped,response_2.keys,response_2.corr,response_2.rt,response_2.duration,End.started,thank_you.started,thank_you.stopped,End.stopped,participant,session,date,expName,psychopyVersion,frameRate,expStart,Unnamed: 104
,,,,,,,,,,,,,,,,,0.0015058999997563,0.0042883999994955,0.0042883999994955,0.0042883999994955,1652.834876199995,space,1652.8289675999986,None,,,,,,,,,,,,,,,,,,,,,,,,,,,,,,,,,,,,,,,,,,,,,,,,,,,,,,,,,,,,,,,,,,,,,,,,,nback80,1.0,2024-02-02_12h51.56.838,untitled,2023.2.3,60.127771512658455,2024-02-02 13h13.19.386916 -0500,
6.0,"[-0.3, 0]",None,0.0,0.0,0.0,0.0,,,,,,,,,1654.850362199999,,,,,,,,,,1652.8349025999923,1652.8504622000037,1652.8504622000037,1652.8504622000037,1652.8504622000037,1652.8504622000037,1652.8504622000037,1652.8504622000037,1652.8504622000037,1652.8504622000037,1652.8504622000037,1652.8504622000037,1652.8504622000037,1653.8343169,1653.8343316999965,1653.8505901000026,1654.850362199999,1654.8343419000012,1654.8452135999978,1654.850362199999,1654.850362199999,1655.3337861000036,1655.350510300006,1657.8337596000056,1657.8505762999994,1657.8342836999946,space,0.0,0.0087965999991865,None,,,,,,,,,,,,,,,,,,,,,,,,,,,,,,,,,,,,,,,,,,,nback80,1.0,2024-02-02_12h51.56.838,untitled,2023.2.3,60.127771512658455,2024-02-02 13h13.19.386916 -0500,
10.0,"[0, -0.2]",None,0.0,1.0,1.0,1.0,,,,,,,,,1657.8505762999994,,,,,,,,,,,,,,,,,,,,,,,,,,,,1657.834908299992,1657.8505762999994,1657.8505762999994,1658.3337917000026,1658.3503241,1660.8337002000044,1660.8503225000022,1660.8341497999936,None,1.0,,,,,,,,,,,,,,,,,,,,,,,,,,,,,,,,,,,,,,,,,,,,,nback80,1.0,2024-02-02_12h51.56.838,untitled,2023.2.3,60.127771512658455,2024-02-02 13h13.19.386916 -0500,
11.0,"[-0.64, -0.4]",space,0.0,2.0,2.0,2.0,,,,,,,,,1660.8503225000022,,,,,,,,,,,,,,,,,,,,,,,,,,,,1660.8344992000057,1660.8503225000022,1660.8503225000022,1661.3336741999956,1661.350470499994,1663.8336712000018,1663.8504084000017,1663.8343176000053,space,1.0,1.84773629999836,None,,,,,,,,,,,,,,,,,,,,,,,,,,,,,,,,,,,,,,,,,,,nback80,1.0,2024-02-02_12h51.56.838,untitled,2023.2.3,60.127771512658455,2024-02-02 13h13.19.386916 -0500,
12.0,"[0.64, -0.4]",None,0.0,3.0,3.0,3.0,,,,,,,,,1663.8504084000017,,,,,,,,,,,,,,,,,,,,,,,,,,,,1663.8347656999977,1663.8504084000017,1663.8504084000017,1664.3335942999984,1664.3502657999925,1666.8337076000023,1666.8501200000028,1666.8341585000016,None,1.0,,,,,,,,,,,,,,,,,,,,,,,,,,,,,,,,,,,,,,,,,,,,,nback80,1.0,2024-02-02_12h51.56.838,untitled,2023.2.3,60.127771512658455,2024-02-02 13h13.19.386916 -0500,
1.0,"[-0.64, 0.4]",None,0.0,4.0,4.0,4.0,,,,,,,,,1666.8501200000028,,,,,,,,,,,,,,,,,,,,,,,,,,,,1666.8344872000016,1666.8501200000028,1666.8501200000028,1667.3336834999936,1667.350225599992,1669.8335820999928,1669.850082799996,1669.8339452999935,None,1.0,,,,,,,,,,,,,,,,,,,,,,,,,,,,,,,,,,,,,,,,,,,,,nback80,1.0,2024-02-02_12h51.56.838,untitled,2023.2.3,60.127771512658455,2024-02-02 13h13.19.386916 -0500,
1.0,"[-0.64, 0.4]",None,0.0,5.0,5.0,5.0,,,,,,,,,1669.850082799996,,,,,,,,,,,,,,,,,,,,,,,,,,,,1669.8342959,1669.850082799996,1669.850082799996,1670.3335361000063,1670.3501908000037,1672.833526699993,1672.8502529999969,1672.8339261999936,None,1.0,,,,,,,,,,,,,,,,,,,,,,,,,,,,,,,,,,,,,,,,,,,,,nback80,1.0,2024-02-02_12h51.56.838,untitled,2023.2.3,60.127771512658455,2024-02-02 13h13.19.386916 -0500,
4.0,"[-0.2, 0.1]",None,0.0,6.0,6.0,6.0,,,,,,,,,1672.8502529999969,,,,,,,,,,,,,,,,,,,,,,,,,,,,1672.8342935999972,1672.8502529999969,1672.8502529999969,1673.3335287999944,1673.3502236000058,1675.833445800003,1675.8500792999985,1675.8338564000005,None,1.0,,,,,,,,,,,,,,,,,,,,,,,,,,,,,,,,,,,,,,,,,,,,,nback80,1.0,2024-02-02_12h51.56.838,untitled,2023.2.3,60.127771512658455,2024-02-02 13h13.19.386916 -0500,
5.0,"[0.2, 0.1]",None,0.0,7.0,7.0,7.0,,,,,,,,,1675.8500792999985,,,,,,,,,,,,,,,,,,,,,,,,,,,,1675.8342125000054,1675.8500792999985,1675.8500792999985,1676.333410399995,1676.3500272999954,1678.8334183999978,1678.849974900004,1678.8338590000058,None,1.0,,,,,,,,,,,,,,,,,,,,,,,,,,,,,,,,,,,,,,,,,,,,,nback80,1.0,2024-02-02_12h51.56.838,untitled,2023.2.3,60.127771512658455,2024-02-02 13h13.19.386916 -0500,
11.0,"[-0.64, -0.4]",space,0.0,8.0,8.0,8.0,,,,,,,,,1678.849974900004,,,,,,,,,,,,,,,,,,,,,,,,,,,,1678.834264499994,1678.849974900004,1678.849974900004,1679.3334328000055,1679.350138499998,1681.833264300003,1681.8499699999957,1681.833641899997,space,1.0,1.8976489000051515,None,,,,,,,,,,,,,,,,,,,,,,,,,,,,,,,,,,,,,,,,,,,nback80,1.0,2024-02-02_12h51.56.838,untitled,2023.2.3,60.127771512658455,2024-02-02 13h13.19.386916 -0500,
9.0,"[0.2, -0.1]",None,0.0,9.0,9.0,9.0,,,,,,,,,1681.8499699999957,,,,,,,,,,,,,,,,,,,,,,,,,,,,1681.8340792999952,1681.8499699999957,1681.8499699999957,1682.333423499993,1682.3501588999934,1684.8333089999942,1684.8498074999952,1684.833714399996,None,1.0,,,,,,,,,,,,,,,,,,,,,,,,,,,,,,,,,,,,,,,,,,,,,nback80,1.0,2024-02-02_12h51.56.838,untitled,2023.2.3,60.127771512658455,2024-02-02 13h13.19.386916 -0500,
8.0,"[-0.2, -0.1]",None,0.0,10.0,10.0,10.0,,,,,,,,,1684.8498074999952,,,,,,,,,,,,,,,,,,,,,,,,,,,,1684.8340375999978,1684.8498074999952,1684.8498074999952,1685.3333870999925,1685.349917200001,1687.8332031000027,1687.849815499998,1687.8335656999989,None,1.0,,,,,,,,,,,,,,,,,,,,,,,,,,,,,,,,,,,,,,,,,,,,,nback80,1.0,2024-02-02_12h51.56.838,untitled,2023.2.3,60.127771512658455,2024-02-02 13h13.19.386916 -0500,
9.0,"[0.2, -0.1]",None,0.0,11.0,11.0,11.0,,,,,,,,,1687.849815499998,,,,,,,,,,,,,,,,,,,,,,,,,,,,1687.8339227999968,1687.849815499998,1687.849815499998,1688.3332423999964,1688.349774599992,1690.833203400005,1690.8498959999995,1690.8337509999983,None,1.0,,,,,,,,,,,,,,,,,,,,,,,,,,,,,,,,,,,,,,,,,,,,,nback80,1.0,2024-02-02_12h51.56.838,untitled,2023.2.3,60.127771512658455,2024-02-02 13h13.19.386916 -0500,
6.0,"[-0.3, 0]",None,0.0,12.0,12.0,12.0,,,,,,,,,1690.8498959999995,,,,,,,,,,,,,,,,,,,,,,,,,,,,1690.8341287999938,1690.8498959999995,1690.8498959999995,1691.3497762000045,1691.3497762000045,1693.8497385999945,1693.8497385999945,1693.833720399998,None,1.0,,,,,,,,,,,,,,,,,,,,,,,,,,,,,,,,,,,,,,,,,,,,,nback80,1.0,2024-02-02_12h51.56.838,untitled,2023.2.3,60.127771512658455,2024-02-02 13h13.19.386916 -0500,
9.0,"[0.2, -0.1]",None,0.0,13.0,13.0,13.0,,,,,,,,,1693.8497385999945,,,,,,,,,,,,,,,,,,,,,,,,,,,,1693.8340796999985,1693.8497385999945,1693.8497385999945,1694.349801000004,1694.349801000004,1696.850533200006,1696.850533200006,1696.833579099999,None,1.0,,,,,,,,,,,,,,,,,,,,,,,,,,,,,,,,,,,,,,,,,,,,,nback80,1.0,2024-02-02_12h51.56.838,untitled,2023.2.3,60.127771512658455,2024-02-02 13h13.19.386916 -0500,
7.0,"[0.3, 0]",None,0.0,14.0,14.0,14.0,,,,,,,,,1696.850533200006,,,,,,,,,,,,,,,,,,,,,,,,,,,,1696.8339080000003,1696.850533200006,1696.850533200006,1697.3495827000006,1697.3495827000006,1699.849689499999,1699.849689499999,1699.8336034999957,None,1.0,,,,,,,,,,,,,,,,,,,,,,,,,,,,,,,,,,,,,,,,,,,,,nback80,1.0,2024-02-02_12h51.56.838,untitled,2023.2.3,60.127771512658455,2024-02-02 13h13.19.386916 -0500,
2.0,"[0.64, 0.4]",None,0.0,15.0,15.0,15.0,,,,,,,,,1699.849689499999,,,,,,,,,,,,,,,,,,,,,,,,,,,,1699.833937000003,1699.849689499999,1699.849689499999,1700.349734000003,1700.349734000003,1702.8495567999926,1702.8495567999926,1702.8335920999962,None,1.0,,,,,,,,,,,,,,,,,,,,,,,,,,,,,,,,,,,,,,,,,,,,,nback80,1.0,2024-02-02_12h51.56.838,untitled,2023.2.3,60.127771512658455,2024-02-02 13h13.19.386916 -0500,
2.0,"[0.64, 0.4]",None,0.0,16.0,16.0,16.0,,,,,,,,,1702.8495567999926,,,,,,,,,,,,,,,,,,,,,,,,,,,,1702.8340864999918,1702.8495567999926,1702.8495567999926,1703.349728400004,1703.349728400004,1705.8497100999955,1705.8497100999955,1705.8333577000012,None,1.0,,,,,,,,,,,,,,,,,,,,,,,,,,,,,,,,,,,,,,,,,,,,,nback80,1.0,2024-02-02_12h51.56.838,untitled,2023.2.3,60.127771512658455,2024-02-02 13h13.19.386916 -0500,
11.0,"[-0.64, -0.4]",space,0.0,17.0,17.0,17.0,,,,,,,,,1705.8497100999955,,,,,,,,,,,,,,,,,,,,,,,,,,,,1705.8336712000018,1705.8497100999955,1705.8497100999955,1706.3495149999944,1706.3495149999944,1708.8495650999976,1708.8495650999976,1708.8333495999975,space,1.0,0.3654563000018243,None,,,,,,,,,,,,,,,,,,,,,,,,,,,,,,,,,,,,,,,,,,,nback80,1.0,2024-02-02_12h51.56.838,untitled,2023.2.3,60.127771512658455,2024-02-02 13h13.19.386916 -0500,
11.0,"[-0.64, -0.4]",space,0.0,18.0,18.0,18.0,,,,,,,,,1708.8495650999976,,,,,,,,,,,,,,,,,,,,,,,,,,,,1708.8338033000036,1708.8495650999976,1708.8495650999976,1709.3495245999948,1709.3495245999948,1711.8493996000034,1711.8493996000034,1711.8332089000032,space,1.0,0.43859550000343,None,,,,,,,,,,,,,,,,,,,,,,,,,,,,,,,,,,,,,,,,,,,nback80,1.0,2024-02-02_12h51.56.838,untitled,2023.2.3,60.127771512658455,2024-02-02 13h13.19.386916 -0500,
7.0,"[0.3, 0]",None,0.0,19.0,19.0,19.0,,,,,,,,,1711.8493996000034,,,,,,,,,,,,,,,,,,,,,,,,,,,,1711.8335858999926,1711.8493996000034,1711.8493996000034,1712.3495163000043,1712.3495163000043,1714.849434100004,1714.849434100004,1714.833484200004,None,1.0,,,,,,,,,,,,,,,,,,,,,,,,,,,,,,,,,,,,,,,,,,,,,nback80,1.0,2024-02-02_12h51.56.838,untitled,2023.2.3,60.127771512658455,2024-02-02 13h13.19.386916 -0500,
3.0,"[0, 0.2]",None,0.0,20.0,20.0,20.0,,,,,,,,,1714.849434100004,,,,,,,,,,,,,,,,,,,,,,,,,,,,1714.8338758000027,1714.849434100004,1714.849434100004,1715.349352499994,1715.349352499994,1717.849333399994,1717.849333399994,1717.8332124000008,None,1.0,,,,,,,,,,,,,,,,,,,,,,,,,,,,,,,,,,,,,,,,,,,,,nback80,1.0,2024-02-02_12h51.56.838,untitled,2023.2.3,60.127771512658455,2024-02-02 13h13.19.386916 -0500,
10.0,"[0, -0.2]",None,0.0,21.0,21.0,21.0,,,,,,,,,1717.849333399994,,,,,,,,,,,,,,,,,,,,,,,,,,,,1717.833553999997,1717.849333399994,1717.849333399994,1718.3492992999963,1718.3492992999963,1720.8494018000056,1720.8494018000056,1720.833251899996,None,1.0,,,,,,,,,,,,,,,,,,,,,,,,,,,,,,,,,,,,,,,,,,,,,nback80,1.0,2024-02-02_12h51.56.838,untitled,2023.2.3,60.127771512658455,2024-02-02 13h13.19.386916 -0500,
1.0,"[-0.64, 0.4]",None,0.0,22.0,22.0,22.0,,,,,,,,,1720.8494018000056,,,,,,,,,,,,,,,,,,,,,,,,,,,,1720.8336076999983,1720.8494018000056,1720.8494018000056,1721.3493508999964,1721.3493508999964,1723.8492962000018,1723.8492962000018,1723.832984599998,None,1.0,,,,,,,,,,,,,,,,,,,,,,,,,,,,,,,,,,,,,,,,,,,,,nback80,1.0,2024-02-02_12h51.56.838,untitled,2023.2.3,60.127771512658455,2024-02-02 13h13.19.386916 -0500,
2.0,"[0.64, 0.4]",None,0.0,23.0,23.0,23.0,,,,,,,,,1723.8492962000018,,,,,,,,,,,,,,,,,,,,,,,,,,,,1723.8333459999994,1723.8492962000018,1723.8492962000018,1724.349374700003,1724.349374700003,1726.8493913999991,1726.8493913999991,1726.832976699996,None,1.0,,,,,,,,,,,,,,,,,,,,,,,,,,,,,,,,,,,,,,,,,,,,,nback80,1.0,2024-02-02_12h51.56.838,untitled,2023.2.3,60.127771512658455,2024-02-02 13h13.19.386916 -0500,
6.0,"[-0.3, 0]",None,0.0,24.0,24.0,24.0,,,,,,,,,1726.8493913999991,,,,,,,,,,,,,,,,,,,,,,,,,,,,1726.8332972999924,1726.8493913999991,1726.8493913999991,1727.3492946000042,1727.3492946000042,1729.849159499994,1729.849159499994,1729.8329574999952,None,1.0,,,,,,,,,,,,,,,,,,,,,,,,,,,,,,,,,,,,,,,,,,,,,nback80,1.0,2024-02-02_12h51.56.838,untitled,2023.2.3,60.127771512658455,2024-02-02 13h13.19.386916 -0500,
3.0,"[0, 0.2]",None,0.0,25.0,25.0,25.0,,,,,,,,,1729.849159499994,,,,,,,,,,,,,,,,,,,,,,,,,,,,1729.8332744999934,1729.849159499994,1729.849159499994,1730.349136299992,1730.349136299992,1732.849048499993,1732.849048499993,1732.832889600002,None,1.0,,,,,,,,,,,,,,,,,,,,,,,,,,,,,,,,,,,,,,,,,,,,,nback80,1.0,2024-02-02_12h51.56.838,untitled,2023.2.3,60.127771512658455,2024-02-02 13h13.19.386916 -0500,
11.0,"[-0.64, -0.4]",space,0.0,26.0,26.0,26.0,,,,,,,,,1732.849048499993,,,,,,,,,,,,,,,,,,,,,,,,,,,,1732.833218800006,1732.849048499993,1732.849048499993,1733.3491323000053,1733.3491323000053,1735.8491219999996,1735.8491219999996,1735.832976699996,space,1.0,0.3594070999970427,None,,,,,,,,,,,,,,,,,,,,,,,,,,,,,,,,,,,,,,,,,,,nback80,1.0,2024-02-02_12h51.56.838,untitled,2023.2.3,60.127771512658455,2024-02-02 13h13.19.386916 -0500,
1.0,"[-0.64, 0.4]",None,0.0,27.0,27.0,27.0,,,,,,,,,1735.8491219999996,,,,,,,,,,,,,,,,,,,,,,,,,,,,1735.833353199996,1735.8491219999996,1735.8491219999996,1736.3491744000055,1736.3491744000055,1738.8489495999966,1738.8489495999966,1738.8329126000026,None,1.0,,,,,,,,,,,,,,,,,,,,,,,,,,,,,,,,,,,,,,,,,,,,,nback80,1.0,2024-02-02_12h51.56.838,untitled,2023.2.3,60.127771512658455,2024-02-02 13h13.19.386916 -0500,
3.0,"[0, 0.2]",None,0.0,28.0,28.0,28.0,,,,,,,,,1738.8489495999966,,,,,,,,,,,,,,,,,,,,,,,,,,,,1738.833413500004,1738.8489495999966,1738.8489495999966,1739.3491891000012,1739.3491891000012,1741.848937799994,1741.848937799994,1741.8327433999948,None,1.0,,,,,,,,,,,,,,,,,,,,,,,,,,,,,,,,,,,,,,,,,,,,,nback80,1.0,2024-02-02_12h51.56.838,untitled,2023.2.3,60.127771512658455,2024-02-02 13h13.19.386916 -0500,
9.0,"[0.2, -0.1]",None,0.0,29.0,29.0,29.0,,,,,,,,,1741.848937799994,,,,,,,,,,,,,,,,,,,,,,,,,,,,1741.8330827000027,1741.848937799994,1741.848937799994,1742.348948999992,1742.348948999992,1744.848952500004,1744.848952500004,1744.8327280999947,None,1.0,,,,,,,,,,,,,,,,,,,,,,,,,,,,,,,,,,,,,,,,,,,,,nback80,1.0,2024-02-02_12h51.56.838,untitled,2023.2.3,60.127771512658455,2024-02-02 13h13.19.386916 -0500,
8.0,"[-0.2, -0.1]",None,0.0,30.0,30.0,30.0,,,,,,,,,1744.848952500004,,,,,,,,,,,,,,,,,,,,,,,,,,,,1744.833074299997,1744.848952500004,1744.848952500004,1745.349031100006,1745.349031100006,1747.8488146000018,1747.8488146000018,1747.8327416999964,None,1.0,,,,,,,,,,,,,,,,,,,,,,,,,,,,,,,,,,,,,,,,,,,,,nback80,1.0,2024-02-02_12h51.56.838,untitled,2023.2.3,60.127771512658455,2024-02-02 13h13.19.386916 -0500,
12.0,"[0.64, -0.4]",None,0.0,31.0,31.0,31.0,,,,,,,,,1747.8488146000018,,,,,,,,,,,,,,,,,,,,,,,,,,,,1747.833102699995,1747.8488146000018,1747.8488146000018,1748.3489046000032,1748.3489046000032,1750.848774900005,1750.848774900005,1750.8326480999967,None,1.0,,,,,,,,,,,,,,,,,,,,,,,,,,,,,,,,,,,,,,,,,,,,,nback80,1.0,2024-02-02_12h51.56.838,untitled,2023.2.3,60.127771512658455,2024-02-02 13h13.19.386916 -0500,
9.0,"[0.2, -0.1]",None,0.0,32.0,32.0,32.0,,,,,,,,,1750.848774900005,,,,,,,,,,,,,,,,,,,,,,,,,,,,1750.8330004000018,1750.848774900005,1750.848774900005,1751.3488343000065,1751.3488343000065,1753.8488929000014,1753.8488929000014,1753.832466699998,None,1.0,,,,,,,,,,,,,,,,,,,,,,,,,,,,,,,,,,,,,,,,,,,,,nback80,1.0,2024-02-02_12h51.56.838,untitled,2023.2.3,60.127771512658455,2024-02-02 13h13.19.386916 -0500,
11.0,"[-0.64, -0.4]",space,0.0,33.0,33.0,33.0,,,,,,,,,1753.8488929000014,,,,,,,,,,,,,,,,,,,,,,,,,,,,1753.8328160999954,1753.8488929000014,1753.8488929000014,1754.3486780999956,1754.3486780999956,1756.848831299998,1756.848831299998,1756.832456499993,space,1.0,0.3495532999950228,None,,,,,,,,,,,,,,,,,,,,,,,,,,,,,,,,,,,,,,,,,,,nback80,1.0,2024-02-02_12h51.56.838,untitled,2023.2.3,60.127771512658455,2024-02-02 13h13.19.386916 -0500,
7.0,"[0.3, 0]",None,0.0,34.0,34.0,34.0,,,,,,,,,1756.848831299998,,,,,,,,,,,,,,,,,,,,,,,,,,,,1756.8328582999966,1756.848831299998,1756.848831299998,1757.3486785999994,1757.3486785999994,1759.8486600000033,1759.8486600000033,1759.832548099992,None,1.0,,,,,,,,,,,,,,,,,,,,,,,,,,,,,,,,,,,,,,,,,,,,,nback80,1.0,2024-02-02_12h51.56.838,untitled,2023.2.3,60.127771512658455,2024-02-02 13h13.19.386916 -0500,
11.0,"[-0.64, -0.4]",space,0.0,35.0,35.0,35.0,,,,,,,,,1759.8486600000033,,,,,,,,,,,,,,,,,,,,,,,,,,,,1759.8328750999935,1759.8486600000033,1759.8486600000033,1760.3485976999946,1760.3485976999946,1762.8485419000062,1762.8485419000062,1762.8325167000005,space,1.0,0.4502953000046545,None,,,,,,,,,,,,,,,,,,,,,,,,,,,,,,,,,,,,,,,,,,,nback80,1.0,2024-02-02_12h51.56.838,untitled,2023.2.3,60.127771512658455,2024-02-02 13h13.19.386916 -0500,
4.0,"[-0.2, 0.1]",None,0.0,36.0,36.0,36.0,,,,,,,,,1762.8485419000062,,,,,,,,,,,,,,,,,,,,,,,,,,,,1762.8328951000003,1762.8485419000062,1762.8485419000062,1763.3484345000031,1763.3484345000031,1765.8485470000014,1765.8485470000014,1765.832443399995,None,1.0,,,,,,,,,,,,,,,,,,,,,,,,,,,,,,,,,,,,,,,,,,,,,nback80,1.0,2024-02-02_12h51.56.838,untitled,2023.2.3,60.127771512658455,2024-02-02 13h13.19.386916 -0500,
5.0,"[0.2, 0.1]",None,0.0,37.0,37.0,37.0,,,,,,,,,1765.8485470000014,,,,,,,,,,,,,,,,,,,,,,,,,,,,1765.8327870999929,1765.8485470000014,1765.8485470000014,1766.348484999995,1766.348484999995,1768.848643499994,1768.848643499994,1768.832488800006,None,1.0,,,,,,,,,,,,,,,,,,,,,,,,,,,,,,,,,,,,,,,,,,,,,nback80,1.0,2024-02-02_12h51.56.838,untitled,2023.2.3,60.127771512658455,2024-02-02 13h13.19.386916 -0500,
6.0,"[-0.3, 0]",None,0.0,38.0,38.0,38.0,,,,,,,,,1768.848643499994,,,,,,,,,,,,,,,,,,,,,,,,,,,,1768.8330280999944,1768.848643499994,1768.848643499994,1769.3486483000015,1769.3486483000015,1771.8485553999926,1771.8485553999926,1771.8322797,None,1.0,,,,,,,,,,,,,,,,,,,,,,,,,,,,,,,,,,,,,,,,,,,,,nback80,1.0,2024-02-02_12h51.56.838,untitled,2023.2.3,60.127771512658455,2024-02-02 13h13.19.386916 -0500,
11.0,"[-0.64, -0.4]",space,0.0,39.0,39.0,39.0,,,,,,,,,1771.8485553999926,,,,,,,,,,,,,,,,,,,,,,,,,,,,1771.8326199000005,1771.8485553999926,1771.8485553999926,1772.3484954000014,1772.3484954000014,1774.8485404999956,1774.8485404999956,1774.832313699997,space,1.0,0.3937224999972386,None,,,,,,,,,,,,,,,,,,,,,,,,,,,,,,,,,,,,,,,,,,,nback80,1.0,2024-02-02_12h51.56.838,untitled,2023.2.3,60.127771512658455,2024-02-02 13h13.19.386916 -0500,
,,,,,,,,,,,,,,,,,,,,,,,,,,,,,,,,,,,,,,,,,,,,,,,,,,,,,,,1774.832638199994,1774.8485404999956,1774.8485404999956,1811.0486311999996,space,36.19514739999431,None,,,,,,,,,,,,,,,,,,,,,,,,,,,,,,,,,,,,nback80,1.0,2024-02-02_12h51.56.838,untitled,2023.2.3,60.127771512658455,2024-02-02 13h13.19.386916 -0500,
10.0,"[0, -0.2]",None,,,,,0.0,0.0,0.0,0.0,,,,,1812.0644848999943,,,,,,,,,,,,,,,,,,,,,,,,1811.0486510000048,1811.0645054000047,1812.0644848999943,1812.0483295000013,,,,,,,,,,,,,,,,,,,,1812.0553196999967,1812.0644848999943,1812.0644848999943,1812.5477474999932,1812.5645225000044,1815.0479597999947,1815.0645303000056,1815.0484036999987,None,1.0,,,,,,,,,,,,,,,,,,,,,,,,,,nback80,1.0,2024-02-02_12h51.56.838,untitled,2023.2.3,60.127771512658455,2024-02-02 13h13.19.386916 -0500,
5.0,"[0.2, 0.1]",None,,,,,0.0,1.0,1.0,1.0,,,,,1815.0645303000056,,,,,,,,,,,,,,,,,,,,,,,,,,,,,,,,,,,,,,,,,,,,,,,1815.048890399994,1815.0645303000056,1815.0645303000056,1815.547656099996,1815.5644439000023,1818.047851299998,1818.0643756000063,1818.0483097999968,None,1.0,,,,,,,,,,,,,,,,,,,,,,,,,,nback80,1.0,2024-02-02_12h51.56.838,untitled,2023.2.3,60.127771512658455,2024-02-02 13h13.19.386916 -0500,
6.0,"[-0.3, 0]",None,,,,,0.0,2.0,2.0,2.0,,,,,1818.0643756000063,,,,,,,,,,,,,,,,,,,,,,,,,,,,,,,,,,,,,,,,,,,,,,,1818.0486769999989,1818.0643756000063,1818.0643756000063,1818.5476065999972,1818.564318100005,1821.0476449999987,1821.0643545000055,1821.0481383000008,None,1.0,,,,,,,,,,,,,,,,,,,,,,,,,,nback80,1.0,2024-02-02_12h51.56.838,untitled,2023.2.3,60.127771512658455,2024-02-02 13h13.19.386916 -0500,
6.0,"[-0.3, 0]",space,,,,,0.0,3.0,3.0,3.0,,,,,1821.0643545000055,,,,,,,,,,,,,,,,,,,,,,,,,,,,,,,,,,,,,,,,,,,,,,,1821.048459800004,1821.0643545000055,1821.0643545000055,1821.5477195999997,1821.5644455,1824.0474522000004,1824.0643731000016,1824.0478507999944,space,1.0,0.4624402999907033,None,,,,,,,,,,,,,,,,,,,,,,,,nback80,1.0,2024-02-02_12h51.56.838,untitled,2023.2.3,60.127771512658455,2024-02-02 13h13.19.386916 -0500,
12.0,"[0.64, -0.4]",None,,,,,0.0,4.0,4.0,4.0,,,,,1824.0643731000016,,,,,,,,,,,,,,,,,,,,,,,,,,,,,,,,,,,,,,,,,,,,,,,1824.0487192,1824.0643731000016,1824.0643731000016,1824.5478311000045,1824.5643143000048,1827.0475875999985,1827.0642460999952,1827.047961499993,None,1.0,,,,,,,,,,,,,,,,,,,,,,,,,,nback80,1.0,2024-02-02_12h51.56.838,untitled,2023.2.3,60.127771512658455,2024-02-02 13h13.19.386916 -0500,
10.0,"[0, -0.2]",None,,,,,0.0,5.0,5.0,5.0,,,,,1827.0642460999952,,,,,,,,,,,,,,,,,,,,,,,,,,,,,,,,,,,,,,,,,,,,,,,1827.0483028000017,1827.0642460999952,1827.0642460999952,1827.5643421999996,1827.5643421999996,1830.0642353000003,1830.0642353000003,1830.047922800004,None,1.0,,,,,,,,,,,,,,,,,,,,,,,,,,nback80,1.0,2024-02-02_12h51.56.838,untitled,2023.2.3,60.127771512658455,2024-02-02 13h13.19.386916 -0500,
2.0,"[0.64, 0.4]",None,,,,,0.0,6.0,6.0,6.0,,,,,1830.0642353000003,,,,,,,,,,,,,,,,,,,,,,,,,,,,,,,,,,,,,,,,,,,,,,,1830.048244599995,1830.0642353000003,1830.0642353000003,1830.5642291999973,1830.5642291999973,1833.0641738999984,1833.0641738999984,1833.047867400004,None,1.0,,,,,,,,,,,,,,,,,,,,,,,,,,nback80,1.0,2024-02-02_12h51.56.838,untitled,2023.2.3,60.127771512658455,2024-02-02 13h13.19.386916 -0500,
9.0,"[0.2, -0.1]",None,,,,,0.0,7.0,7.0,7.0,,,,,1833.0641738999984,,,,,,,,,,,,,,,,,,,,,,,,,,,,,,,,,,,,,,,,,,,,,,,1833.048192599992,1833.0641738999984,1833.0641738999984,1833.5641901000051,1833.5641901000051,1836.064168099998,1836.064168099998,1836.047834500001,None,1.0,,,,,,,,,,,,,,,,,,,,,,,,,,nback80,1.0,2024-02-02_12h51.56.838,untitled,2023.2.3,60.127771512658455,2024-02-02 13h13.19.386916 -0500,
9.0,"[0.2, -0.1]",space,,,,,0.0,8.0,8.0,8.0,,,,,1836.064168099998,,,,,,,,,,,,,,,,,,,,,,,,,,,,,,,,,,,,,,,,,,,,,,,1836.0481647999984,1836.064168099998,1836.064168099998,1836.5641106999972,1836.5641106999972,1839.064060699995,1839.064060699995,1839.0479138999945,space,1.0,0.6472345999936806,None,,,,,,,,,,,,,,,,,,,,,,,,nback80,1.0,2024-02-02_12h51.56.838,untitled,2023.2.3,60.127771512658455,2024-02-02 13h13.19.386916 -0500,
6.0,"[-0.3, 0]",None,,,,,0.0,9.0,9.0,9.0,,,,,1839.064060699995,,,,,,,,,,,,,,,,,,,,,,,,,,,,,,,,,,,,,,,,,,,,,,,1839.0483053000064,1839.064060699995,1839.064060699995,1839.564054500006,1839.564054500006,1842.0639771999995,1842.0639771999995,1842.047698099996,None,1.0,,,,,,,,,,,,,,,,,,,,,,,,,,nback80,1.0,2024-02-02_12h51.56.838,untitled,2023.2.3,60.127771512658455,2024-02-02 13h13.19.386916 -0500,
11.0,"[-0.64, -0.4]",None,,,,,0.0,10.0,10.0,10.0,,,,,1842.0639771999995,,,,,,,,,,,,,,,,,,,,,,,,,,,,,,,,,,,,,,,,,,,,,,,1842.0480610999948,1842.0639771999995,1842.0639771999995,1842.5641771999944,1842.5641771999944,1845.064071400004,1845.064071400004,1845.0475582999932,None,1.0,,,,,,,,,,,,,,,,,,,,,,,,,,nback80,1.0,2024-02-02_12h51.56.838,untitled,2023.2.3,60.127771512658455,2024-02-02 13h13.19.386916 -0500,
11.0,"[-0.64, -0.4]",space,,,,,0.0,11.0,11.0,11.0,,,,,1845.064071400004,,,,,,,,,,,,,,,,,,,,,,,,,,,,,,,,,,,,,,,,,,,,,,,1845.047944100006,1845.064071400004,1845.064071400004,1845.5639898999943,1845.5639898999943,1848.0639836000048,1848.0639836000048,1848.0477116999973,space,1.0,0.4112137000047369,None,,,,,,,,,,,,,,,,,,,,,,,,nback80,1.0,2024-02-02_12h51.56.838,untitled,2023.2.3,60.127771512658455,2024-02-02 13h13.19.386916 -0500,
4.0,"[-0.2, 0.1]",None,,,,,0.0,12.0,12.0,12.0,,,,,1848.0639836000048,,,,,,,,,,,,,,,,,,,,,,,,,,,,,,,,,,,,,,,,,,,,,,,1848.0481085999927,1848.0639836000048,1848.0639836000048,1848.563888699995,1848.563888699995,1851.0638347000056,1851.0638347000056,1851.047815900005,None,1.0,,,,,,,,,,,,,,,,,,,,,,,,,,nback80,1.0,2024-02-02_12h51.56.838,untitled,2023.2.3,60.127771512658455,2024-02-02 13h13.19.386916 -0500,
3.0,"[0, 0.2]",None,,,,,0.0,13.0,13.0,13.0,,,,,1851.0638347000056,,,,,,,,,,,,,,,,,,,,,,,,,,,,,,,,,,,,,,,,,,,,,,,1851.0481470999948,1851.0638347000056,1851.0638347000056,1851.5638431999976,1851.5638431999976,1854.0638439000031,1854.0638439000031,1854.047533399993,None,1.0,,,,,,,,,,,,,,,,,,,,,,,,,,nback80,1.0,2024-02-02_12h51.56.838,untitled,2023.2.3,60.127771512658455,2024-02-02 13h13.19.386916 -0500,
3.0,"[0, 0.2]",space,,,,,0.0,14.0,14.0,14.0,,,,,1854.0638439000031,,,,,,,,,,,,,,,,,,,,,,,,,,,,,,,,,,,,,,,,,,,,,,,1854.047916800002,1854.0638439000031,1854.0638439000031,1854.563785099992,1854.563785099992,1857.0637581000049,1857.0637581000049,1857.0474541000003,space,1.0,0.4697239000088302,None,,,,,,,,,,,,,,,,,,,,,,,,nback80,1.0,2024-02-02_12h51.56.838,untitled,2023.2.3,60.127771512658455,2024-02-02 13h13.19.386916 -0500,
8.0,"[-0.2, -0.1]",None,,,,,0.0,15.0,15.0,15.0,,,,,1857.0637581000049,,,,,,,,,,,,,,,,,,,,,,,,,,,,,,,,,,,,,,,,,,,,,,,1857.047888000001,1857.0637581000049,1857.0637581000049,1857.5637690000003,1857.5637690000003,1860.0637680999932,1860.0637680999932,1860.047338599994,None,1.0,,,,,,,,,,,,,,,,,,,,,,,,,,nback80,1.0,2024-02-02_12h51.56.838,untitled,2023.2.3,60.127771512658455,2024-02-02 13h13.19.386916 -0500,
1.0,"[-0.64, 0.4]",None,,,,,0.0,16.0,16.0,16.0,,,,,1860.0637680999932,,,,,,,,,,,,,,,,,,,,,,,,,,,,,,,,,,,,,,,,,,,,,,,1860.0476612000057,1860.0637680999932,1860.0637680999932,1860.563767899992,1860.563767899992,1863.063806399994,1863.063806399994,1863.047456100001,None,1.0,,,,,,,,,,,,,,,,,,,,,,,,,,nback80,1.0,2024-02-02_12h51.56.838,untitled,2023.2.3,60.127771512658455,2024-02-02 13h13.19.386916 -0500,
2.0,"[0.64, 0.4]",None,,,,,0.0,17.0,17.0,17.0,,,,,1863.063806399994,,,,,,,,,,,,,,,,,,,,,,,,,,,,,,,,,,,,,,,,,,,,,,,1863.047786199997,1863.063806399994,1863.063806399994,1863.5637515999988,1863.5637515999988,1866.0635621999968,1866.0635621999968,1866.0474055999948,None,1.0,,,,,,,,,,,,,,,,,,,,,,,,,,nback80,1.0,2024-02-02_12h51.56.838,untitled,2023.2.3,60.127771512658455,2024-02-02 13h13.19.386916 -0500,
4.0,"[-0.2, 0.1]",None,,,,,0.0,18.0,18.0,18.0,,,,,1866.0635621999968,,,,,,,,,,,,,,,,,,,,,,,,,,,,,,,,,,,,,,,,,,,,,,,1866.0477333000017,1866.0635621999968,1866.0635621999968,1866.563708300004,1866.563708300004,1869.0635397000003,1869.0635397000003,1869.047314299998,None,1.0,,,,,,,,,,,,,,,,,,,,,,,,,,nback80,1.0,2024-02-02_12h51.56.838,untitled,2023.2.3,60.127771512658455,2024-02-02 13h13.19.386916 -0500,
4.0,"[-0.2, 0.1]",space,,,,,0.0,19.0,19.0,19.0,,,,,1869.0635397000003,,,,,,,,,,,,,,,,,,,,,,,,,,,,,,,,,,,,,,,,,,,,,,,1869.047684799996,1869.0635397000003,1869.0635397000003,1869.563527499995,1869.563527499995,1872.063595300002,1872.063595300002,1872.0471939999989,space,1.0,0.3847807999991346,None,,,,,,,,,,,,,,,,,,,,,,,,nback80,1.0,2024-02-02_12h51.56.838,untitled,2023.2.3,60.127771512658455,2024-02-02 13h13.19.386916 -0500,
8.0,"[-0.2, -0.1]",None,,,,,0.0,20.0,20.0,20.0,,,,,1872.063595300002,,,,,,,,,,,,,,,,,,,,,,,,,,,,,,,,,,,,,,,,,,,,,,,1872.047569000002,1872.063595300002,1872.063595300002,1872.5635727000044,1872.5635727000044,1875.063793399997,1875.063793399997,1875.047376200004,None,1.0,,,,,,,,,,,,,,,,,,,,,,,,,,nback80,1.0,2024-02-02_12h51.56.838,untitled,2023.2.3,60.127771512658455,2024-02-02 13h13.19.386916 -0500,
5.0,"[0.2, 0.1]",None,,,,,0.0,21.0,21.0,21.0,,,,,1875.063793399997,,,,,,,,,,,,,,,,,,,,,,,,,,,,,,,,,,,,,,,,,,,,,,,1875.0477022999985,1875.063793399997,1875.063793399997,1875.563387599992,1875.563387599992,1878.0634044000035,1878.0634044000035,1878.047204200004,None,1.0,,,,,,,,,,,,,,,,,,,,,,,,,,nback80,1.0,2024-02-02_12h51.56.838,untitled,2023.2.3,60.127771512658455,2024-02-02 13h13.19.386916 -0500,
5.0,"[0.2, 0.1]",space,,,,,0.0,22.0,22.0,22.0,,,,,1878.0634044000035,,,,,,,,,,,,,,,,,,,,,,,,,,,,,,,,,,,,,,,,,,,,,,,1878.047555199999,1878.0634044000035,1878.0634044000035,1878.5633797000048,1878.5633797000048,1881.063344299997,1881.063344299997,1881.046990499992,space,1.0,0.4568119000032311,None,,,,,,,,,,,,,,,,,,,,,,,,nback80,1.0,2024-02-02_12h51.56.838,untitled,2023.2.3,60.127771512658455,2024-02-02 13h13.19.386916 -0500,
1.0,"[-0.64, 0.4]",None,,,,,0.0,23.0,23.0,23.0,,,,,1881.063344299997,,,,,,,,,,,,,,,,,,,,,,,,,,,,,,,,,,,,,,,,,,,,,,,1881.0473586000007,1881.063344299997,1881.063344299997,1881.563429400005,1881.563429400005,1884.0633903999988,1884.0633903999988,1884.0469561999928,None,1.0,,,,,,,,,,,,,,,,,,,,,,,,,,nback80,1.0,2024-02-02_12h51.56.838,untitled,2023.2.3,60.127771512658455,2024-02-02 13h13.19.386916 -0500,
3.0,"[0, 0.2]",None,,,,,0.0,24.0,24.0,24.0,,,,,1884.0633903999988,,,,,,,,,,,,,,,,,,,,,,,,,,,,,,,,,,,,,,,,,,,,,,,1884.0472849999933,1884.0633903999988,1884.0633903999988,1884.5633134999955,1884.5633134999955,1887.0632207000017,1887.0632207000017,1887.046998299993,None,1.0,,,,,,,,,,,,,,,,,,,,,,,,,,nback80,1.0,2024-02-02_12h51.56.838,untitled,2023.2.3,60.127771512658455,2024-02-02 13h13.19.386916 -0500,
6.0,"[-0.3, 0]",None,,,,,0.0,25.0,25.0,25.0,,,,,1887.0632207000017,,,,,,,,,,,,,,,,,,,,,,,,,,,,,,,,,,,,,,,,,,,,,,,1887.0473309999943,1887.0632207000017,1887.0632207000017,1887.5631918,1887.5631918,1890.0631594000008,1890.0631594000008,1890.046743400002,None,1.0,,,,,,,,,,,,,,,,,,,,,,,,,,nback80,1.0,2024-02-02_12h51.56.838,untitled,2023.2.3,60.127771512658455,2024-02-02 13h13.19.386916 -0500,
1.0,"[-0.64, 0.4]",None,,,,,0.0,26.0,26.0,26.0,,,,,1890.0631594000008,,,,,,,,,,,,,,,,,,,,,,,,,,,,,,,,,,,,,,,,,,,,,,,1890.047076999996,1890.0631594000008,1890.0631594000008,1890.563201099998,1890.563201099998,1893.063236799993,1893.063236799993,1893.0469903000048,None,1.0,,,,,,,,,,,,,,,,,,,,,,,,,,nback80,1.0,2024-02-02_12h51.56.838,untitled,2023.2.3,60.127771512658455,2024-02-02 13h13.19.386916 -0500,
1.0,"[-0.64, 0.4]",space,,,,,0.0,27.0,27.0,27.0,,,,,1893.063236799993,,,,,,,,,,,,,,,,,,,,,,,,,,,,,,,,,,,,,,,,,,,,,,,1893.047326899992,1893.063236799993,1893.063236799993,1893.563085799993,1893.563085799993,1896.0631106999936,1896.0631106999936,1896.0470295999985,space,1.0,0.4893991999997524,None,,,,,,,,,,,,,,,,,,,,,,,,nback80,1.0,2024-02-02_12h51.56.838,untitled,2023.2.3,60.127771512658455,2024-02-02 13h13.19.386916 -0500,
1.0,"[-0.64, 0.4]",space,,,,,0.0,28.0,28.0,28.0,,,,,1896.0631106999936,,,,,,,,,,,,,,,,,,,,,,,,,,,,,,,,,,,,,,,,,,,,,,,1896.0474363999965,1896.0631106999936,1896.0631106999936,1896.563154699994,1896.563154699994,1899.0630179,1899.0630179,1899.0469843000028,space,1.0,0.5603040999994846,None,,,,,,,,,,,,,,,,,,,,,,,,nback80,1.0,2024-02-02_12h51.56.838,untitled,2023.2.3,60.127771512658455,2024-02-02 13h13.19.386916 -0500,
3.0,"[0, 0.2]",None,,,,,0.0,29.0,29.0,29.0,,,,,1899.0630179,,,,,,,,,,,,,,,,,,,,,,,,,,,,,,,,,,,,,,,,,,,,,,,1899.047374300004,1899.0630179,1899.0630179,1899.5630728999968,1899.5630728999968,1902.062965799996,1902.062965799996,1902.0466273000056,None,1.0,,,,,,,,,,,,,,,,,,,,,,,,,,nback80,1.0,2024-02-02_12h51.56.838,untitled,2023.2.3,60.127771512658455,2024-02-02 13h13.19.386916 -0500,
12.0,"[0.64, -0.4]",None,,,,,0.0,30.0,30.0,30.0,,,,,1902.062965799996,,,,,,,,,,,,,,,,,,,,,,,,,,,,,,,,,,,,,,,,,,,,,,,1902.046946699993,1902.062965799996,1902.062965799996,1902.562966800004,1902.562966800004,1905.062931499997,1905.062931499997,1905.0465352000028,None,1.0,,,,,,,,,,,,,,,,,,,,,,,,,,nback80,1.0,2024-02-02_12h51.56.838,untitled,2023.2.3,60.127771512658455,2024-02-02 13h13.19.386916 -0500,
12.0,"[0.64, -0.4]",space,,,,,0.0,31.0,31.0,31.0,,,,,1905.062931499997,,,,,,,,,,,,,,,,,,,,,,,,,,,,,,,,,,,,,,,,,,,,,,,1905.0468961000008,1905.062931499997,1905.062931499997,1905.5628913999967,1905.5628913999967,1908.0629061999932,1908.0629061999932,1908.046487400003,space,1.0,0.5195505000010598,None,,,,,,,,,,,,,,,,,,,,,,,,nback80,1.0,2024-02-02_12h51.56.838,untitled,2023.2.3,60.127771512658455,2024-02-02 13h13.19.386916 -0500,
2.0,"[0.64, 0.4]",None,,,,,0.0,32.0,32.0,32.0,,,,,1908.0629061999932,,,,,,,,,,,,,,,,,,,,,,,,,,,,,,,,,,,,,,,,,,,,,,,1908.0470012000003,1908.0629061999932,1908.0629061999932,1908.5629131000023,1908.5629131000023,1911.0628574,1911.0628574,1911.0463973000003,None,1.0,,,,,,,,,,,,,,,,,,,,,,,,,,nback80,1.0,2024-02-02_12h51.56.838,untitled,2023.2.3,60.127771512658455,2024-02-02 13h13.19.386916 -0500,
1.0,"[-0.64, 0.4]",None,,,,,0.0,33.0,33.0,33.0,,,,,1911.0628574,,,,,,,,,,,,,,,,,,,,,,,,,,,,,,,,,,,,,,,,,,,,,,,1911.0467455000037,1911.0628574,1911.0628574,1911.5629696999968,1911.5629696999968,1914.062822799999,1914.062822799999,1914.0466335999956,None,1.0,,,,,,,,,,,,,,,,,,,,,,,,,,nback80,1.0,2024-02-02_12h51.56.838,untitled,2023.2.3,60.127771512658455,2024-02-02 13h13.19.386916 -0500,
7.0,"[0.3, 0]",None,,,,,0.0,34.0,34.0,34.0,,,,,1914.062822799999,,,,,,,,,,,,,,,,,,,,,,,,,,,,,,,,,,,,,,,,,,,,,,,1914.0469608999992,1914.062822799999,1914.062822799999,1914.5627198,1914.5627198,1917.062720899994,1917.062720899994,1917.0463774999955,None,1.0,,,,,,,,,,,,,,,,,,,,,,,,,,nback80,1.0,2024-02-02_12h51.56.838,untitled,2023.2.3,60.127771512658455,2024-02-02 13h13.19.386916 -0500,
7.0,"[0.3, 0]",space,,,,,0.0,35.0,35.0,35.0,,,,,1917.062720899994,,,,,,,,,,,,,,,,,,,,,,,,,,,,,,,,,,,,,,,,,,,,,,,1917.0467202,1917.062720899994,1917.062720899994,1917.562758,1917.562758,1920.0627064,1920.0627064,1920.046605099997,space,1.0,0.5318204000068363,None,,,,,,,,,,,,,,,,,,,,,,,,nback80,1.0,2024-02-02_12h51.56.838,untitled,2023.2.3,60.127771512658455,2024-02-02 13h13.19.386916 -0500,
11.0,"[-0.64, -0.4]",None,,,,,0.0,36.0,36.0,36.0,,,,,1920.0627064,,,,,,,,,,,,,,,,,,,,,,,,,,,,,,,,,,,,,,,,,,,,,,,1920.047013999996,1920.0627064,1920.0627064,1920.5627718000032,1920.5627718000032,1923.0627190999949,1923.0627190999949,1923.0463065999936,None,1.0,,,,,,,,,,,,,,,,,,,,,,,,,,nback80,1.0,2024-02-02_12h51.56.838,untitled,2023.2.3,60.127771512658455,2024-02-02 13h13.19.386916 -0500,
2.0,"[0.64, 0.4]",None,,,,,0.0,37.0,37.0,37.0,,,,,1923.0627190999949,,,,,,,,,,,,,,,,,,,,,,,,,,,,,,,,,,,,,,,,,,,,,,,1923.046641299996,1923.0627190999949,1923.0627190999949,1923.5626202999997,1923.5626202999997,1926.0624858999945,1926.0624858999945,1926.0464402999933,None,1.0,,,,,,,,,,,,,,,,,,,,,,,,,,nback80,1.0,2024-02-02_12h51.56.838,untitled,2023.2.3,60.127771512658455,2024-02-02 13h13.19.386916 -0500,
6.0,"[-0.3, 0]",None,,,,,0.0,38.0,38.0,38.0,,,,,1926.0624858999945,,,,,,,,,,,,,,,,,,,,,,,,,,,,,,,,,,,,,,,,,,,,,,,1926.0467977999945,1926.0624858999945,1926.0624858999945,1926.562474499995,1926.562474499995,1929.0625772000055,1929.0625772000055,1929.0462383999984,None,1.0,,,,,,,,,,,,,,,,,,,,,,,,,,nback80,1.0,2024-02-02_12h51.56.838,untitled,2023.2.3,60.127771512658455,2024-02-02 13h13.19.386916 -0500,
10.0,"[0, -0.2]",None,,,,,0.0,39.0,39.0,39.0,,,,,1929.0625772000055,,,,,,,,,,,,,,,,,,,,,,,,,,,,,,,,,,,,,,,,,,,,,,,1929.046583000003,1929.0625772000055,1929.0625772000055,1929.5625946999933,1929.5625946999933,1932.062744099996,1932.062744099996,1932.0462742999955,None,1.0,,,,,,,,,,,,,,,,,,,,,,,,,,nback80,1.0,2024-02-02_12h51.56.838,untitled,2023.2.3,60.127771512658455,2024-02-02 13h13.19.386916 -0500,
,,,,,,,,,,,,,,,,,,,,,,,,,,,,,,,,,,,,,,,,,,,,,,,,,,,,,,,,,,,,,,,,,,,,,,,,,,1932.0465391000037,1932.062744099996,1932.062744099996,1963.0638725000024,space,30.99270010000328,None,,,,,,,,,,,,,,,,,nback80,1.0,2024-02-02_12h51.56.838,untitled,2023.2.3,60.127771512658455,2024-02-02 13h13.19.386916 -0500,
,"[0.2, 0.1]",None,,,,,,,,,0.0,0.0,0.0,0.0,1964.0786920999965,,,,,,,,,,,,,,,,,,,,,,,,1963.063903599992,1963.078752500005,1964.0786920999965,1964.0625793999932,,,,,,,,,,,,,,,,,,,,,,,,,,,,,,,,,,,,,,,1964.0692203999931,1964.0786920999965,1964.0786920999965,1964.5786361999928,1964.5786361999928,1967.0785854999997,1967.0785854999997,1967.0623487999983,None,1.0,,,,,,,nback80,1.0,2024-02-02_12h51.56.838,untitled,2023.2.3,60.127771512658455,2024-02-02 13h13.19.386916 -0500,
,"[0.64, 0.4]",None,,,,,,,,,0.0,1.0,1.0,1.0,1967.0785854999997,,,,,,,,,,,,,,,,,,,,,,,,,,,,,,,,,,,,,,,,,,,,,,,,,,,,,,,,,,,,,,,,,,1967.062755699997,1967.0785854999997,1967.0785854999997,1967.578614099999,1967.578614099999,1970.078475000002,1970.078475000002,1970.0623769999947,None,1.0,,,,,,,nback80,1.0,2024-02-02_12h51.56.838,untitled,2023.2.3,60.127771512658455,2024-02-02 13h13.19.386916 -0500,
,"[-0.3, 0]",None,,,,,,,,,0.0,2.0,2.0,2.0,1970.078475000002,,,,,,,,,,,,,,,,,,,,,,,,,,,,,,,,,,,,,,,,,,,,,,,,,,,,,,,,,,,,,,,,,,1970.062697500005,1970.078475000002,1970.078475000002,1970.5786258000007,1970.5786258000007,1973.0784292000023,1973.0784292000023,1973.0623858000035,None,1.0,,,,,,,nback80,1.0,2024-02-02_12h51.56.838,untitled,2023.2.3,60.127771512658455,2024-02-02 13h13.19.386916 -0500,
,"[0.2, -0.1]",None,,,,,,,,,0.0,3.0,3.0,3.0,1973.0784292000023,,,,,,,,,,,,,,,,,,,,,,,,,,,,,,,,,,,,,,,,,,,,,,,,,,,,,,,,,,,,,,,,,,1973.0627137999984,1973.0784292000023,1973.0784292000023,1973.578444500003,1973.578444500003,1976.0784743999973,1976.0784743999973,1976.0621447000008,None,1.0,,,,,,,nback80,1.0,2024-02-02_12h51.56.838,untitled,2023.2.3,60.127771512658455,2024-02-02 13h13.19.386916 -0500,
,"[0, 0.2]",None,,,,,,,,,0.0,4.0,4.0,4.0,1976.0784743999973,,,,,,,,,,,,,,,,,,,,,,,,,,,,,,,,,,,,,,,,,,,,,,,,,,,,,,,,,,,,,,,,,,1976.0624904,1976.0784743999973,1976.0784743999973,1976.578431300004,1976.578431300004,1979.0785034,1979.0785034,1979.0620357000007,None,1.0,,,,,,,nback80,1.0,2024-02-02_12h51.56.838,untitled,2023.2.3,60.127771512658455,2024-02-02 13h13.19.386916 -0500,
,"[0.2, -0.1]",space,,,,,,,,,0.0,5.0,5.0,5.0,1979.0785034,,,,,,,,,,,,,,,,,,,,,,,,,,,,,,,,,,,,,,,,,,,,,,,,,,,,,,,,,,,,,,,,,,1979.0623853,1979.0785034,1979.0785034,1979.5784496999984,1979.5784496999984,1982.078290699996,1982.078290699996,1982.061899399996,space,1.0,0.6006113999901572,None,,,,,nback80,1.0,2024-02-02_12h51.56.838,untitled,2023.2.3,60.127771512658455,2024-02-02 13h13.19.386916 -0500,
,"[0, -0.2]",None,,,,,,,,,0.0,6.0,6.0,6.0,1982.078290699996,,,,,,,,,,,,,,,,,,,,,,,,,,,,,,,,,,,,,,,,,,,,,,,,,,,,,,,,,,,,,,,,,,1982.0624326999969,1982.078290699996,1982.078290699996,1982.5783607000049,1982.5783607000049,1985.0783278000015,1985.0783278000015,1985.0622741999975,None,1.0,,,,,,,nback80,1.0,2024-02-02_12h51.56.838,untitled,2023.2.3,60.127771512658455,2024-02-02 13h13.19.386916 -0500,
,"[0.64, -0.4]",None,,,,,,,,,0.0,7.0,7.0,7.0,1985.0783278000015,,,,,,,,,,,,,,,,,,,,,,,,,,,,,,,,,,,,,,,,,,,,,,,,,,,,,,,,,,,,,,,,,,1985.0626316999987,1985.0783278000015,1985.0783278000015,1985.578271099992,1985.578271099992,1988.0783173999955,1988.0783173999955,1988.061826499994,None,1.0,,,,,,,nback80,1.0,2024-02-02_12h51.56.838,untitled,2023.2.3,60.127771512658455,2024-02-02 13h13.19.386916 -0500,
,"[0.3, 0]",None,,,,,,,,,0.0,8.0,8.0,8.0,1988.0783173999955,,,,,,,,,,,,,,,,,,,,,,,,,,,,,,,,,,,,,,,,,,,,,,,,,,,,,,,,,,,,,,,,,,1988.0621501999997,1988.0783173999955,1988.0783173999955,1988.578352800003,1988.578352800003,1991.078145099993,1991.078145099993,1991.0619827000048,None,1.0,,,,,,,nback80,1.0,2024-02-02_12h51.56.838,untitled,2023.2.3,60.127771512658455,2024-02-02 13h13.19.386916 -0500,
,"[0.64, -0.4]",space,,,,,,,,,0.0,9.0,9.0,9.0,1991.078145099993,,,,,,,,,,,,,,,,,,,,,,,,,,,,,,,,,,,,,,,,,,,,,,,,,,,,,,,,,,,,,,,,,,1991.062378699993,1991.078145099993,1991.078145099993,1991.5781869000057,1991.5781869000057,1994.0780908000013,1994.0780908000013,1994.0617918000064,space,1.0,0.7821068000048399,None,,,,,nback80,1.0,2024-02-02_12h51.56.838,untitled,2023.2.3,60.127771512658455,2024-02-02 13h13.19.386916 -0500,
,"[-0.64, 0.4]",None,,,,,,,,,0.0,10.0,10.0,10.0,1994.0780908000013,,,,,,,,,,,,,,,,,,,,,,,,,,,,,,,,,,,,,,,,,,,,,,,,,,,,,,,,,,,,,,,,,,1994.0621888000023,1994.0780908000013,1994.0780908000013,1994.578146800006,1994.578146800006,1997.0779941999936,1997.0779941999936,1997.0617648000043,None,1.0,,,,,,,nback80,1.0,2024-02-02_12h51.56.838,untitled,2023.2.3,60.127771512658455,2024-02-02 13h13.19.386916 -0500,
,"[0.2, 0.1]",None,,,,,,,,,0.0,11.0,11.0,11.0,1997.0779941999936,,,,,,,,,,,,,,,,,,,,,,,,,,,,,,,,,,,,,,,,,,,,,,,,,,,,,,,,,,,,,,,,,,1997.0621002999976,1997.0779941999936,1997.0779941999936,1997.578072000004,1997.578072000004,2000.078109800001,2000.078109800001,2000.0617025999964,None,1.0,,,,,,,nback80,1.0,2024-02-02_12h51.56.838,untitled,2023.2.3,60.127771512658455,2024-02-02 13h13.19.386916 -0500,
,"[0.3, 0]",None,,,,,,,,,0.0,12.0,12.0,12.0,2000.078109800001,,,,,,,,,,,,,,,,,,,,,,,,,,,,,,,,,,,,,,,,,,,,,,,,,,,,,,,,,,,,,,,,,,2000.0620749999944,2000.078109800001,2000.078109800001,2000.578019499997,2000.578019499997,2003.0779735999968,2003.0779735999968,2003.0617083999969,None,1.0,,,,,,,nback80,1.0,2024-02-02_12h51.56.838,untitled,2023.2.3,60.127771512658455,2024-02-02 13h13.19.386916 -0500,
,"[0.2, 0.1]",space,,,,,,,,,0.0,13.0,13.0,13.0,2003.0779735999968,,,,,,,,,,,,,,,,,,,,,,,,,,,,,,,,,,,,,,,,,,,,,,,,,,,,,,,,,,,,,,,,,,2003.0620520999944,2003.0779735999968,2003.0779735999968,2003.578024699993,2003.578024699993,2006.077939499999,2006.077939499999,2006.061650899996,space,1.0,0.7063951000018278,None,,,,,nback80,1.0,2024-02-02_12h51.56.838,untitled,2023.2.3,60.127771512658455,2024-02-02 13h13.19.386916 -0500,
,"[-0.3, 0]",None,,,,,,,,,0.0,14.0,14.0,14.0,2006.077939499999,,,,,,,,,,,,,,,,,,,,,,,,,,,,,,,,,,,,,,,,,,,,,,,,,,,,,,,,,,,,,,,,,,2006.062067699997,2006.077939499999,2006.077939499999,2006.577892500005,2006.577892500005,2009.077909899992,2009.077909899992,2009.0617234999957,None,1.0,,,,,,,nback80,1.0,2024-02-02_12h51.56.838,untitled,2023.2.3,60.127771512658455,2024-02-02 13h13.19.386916 -0500,
,"[0, 0.2]",None,,,,,,,,,0.0,15.0,15.0,15.0,2009.077909899992,,,,,,,,,,,,,,,,,,,,,,,,,,,,,,,,,,,,,,,,,,,,,,,,,,,,,,,,,,,,,,,,,,2009.062104900004,2009.077909899992,2009.077909899992,2009.5782099999924,2009.5782099999924,2012.077791699994,2012.077791699994,2012.061631100005,None,1.0,,,,,,,nback80,1.0,2024-02-02_12h51.56.838,untitled,2023.2.3,60.127771512658455,2024-02-02 13h13.19.386916 -0500,
,"[-0.3, 0]",space,,,,,,,,,0.0,16.0,16.0,16.0,2012.077791699994,,,,,,,,,,,,,,,,,,,,,,,,,,,,,,,,,,,,,,,,,,,,,,,,,,,,,,,,,,,,,,,,,,2012.0619961000048,2012.077791699994,2012.077791699994,2012.5778853999943,2012.5778853999943,2015.0779847999947,2015.0779847999947,2015.0615128000063,space,1.0,0.6646957000048133,None,,,,,nback80,1.0,2024-02-02_12h51.56.838,untitled,2023.2.3,60.127771512658455,2024-02-02 13h13.19.386916 -0500,
,"[-0.64, -0.4]",None,,,,,,,,,0.0,17.0,17.0,17.0,2015.0779847999947,,,,,,,,,,,,,,,,,,,,,,,,,,,,,,,,,,,,,,,,,,,,,,,,,,,,,,,,,,,,,,,,,,2015.061905800001,2015.0779847999947,2015.0779847999947,2015.577870699999,2015.577870699999,2018.0778183999937,2018.0778183999937,2018.0614841999925,None,1.0,,,,,,,nback80,1.0,2024-02-02_12h51.56.838,untitled,2023.2.3,60.127771512658455,2024-02-02 13h13.19.386916 -0500,
,"[-0.2, -0.1]",None,,,,,,,,,0.0,18.0,18.0,18.0,2018.0778183999937,,,,,,,,,,,,,,,,,,,,,,,,,,,,,,,,,,,,,,,,,,,,,,,,,,,,,,,,,,,,,,,,,,2018.061816699992,2018.0778183999937,2018.0778183999937,2018.577703300005,2018.577703300005,2021.077738699998,2021.077738699998,2021.061517299997,None,1.0,,,,,,,nback80,1.0,2024-02-02_12h51.56.838,untitled,2023.2.3,60.127771512658455,2024-02-02 13h13.19.386916 -0500,
,"[0.2, -0.1]",None,,,,,,,,,0.0,19.0,19.0,19.0,2021.077738699998,,,,,,,,,,,,,,,,,,,,,,,,,,,,,,,,,,,,,,,,,,,,,,,,,,,,,,,,,,,,,,,,,,2021.061835600005,2021.077738699998,2021.077738699998,2021.5776349999944,2021.5776349999944,2024.0775432999944,2024.0775432999944,2024.0614115000064,None,1.0,,,,,,,nback80,1.0,2024-02-02_12h51.56.838,untitled,2023.2.3,60.127771512658455,2024-02-02 13h13.19.386916 -0500,
,"[0.2, -0.1]",None,,,,,,,,,0.0,20.0,20.0,20.0,2024.0775432999944,,,,,,,,,,,,,,,,,,,,,,,,,,,,,,,,,,,,,,,,,,,,,,,,,,,,,,,,,,,,,,,,,,2024.061746899999,2024.0775432999944,2024.0775432999944,2024.577541599996,2024.577541599996,2027.077604799997,2027.077604799997,2027.061348999996,space,0.0,0.5771475999936229,None,,,,,nback80,1.0,2024-02-02_12h51.56.838,untitled,2023.2.3,60.127771512658455,2024-02-02 13h13.19.386916 -0500,
,"[-0.64, 0.4]",None,,,,,,,,,0.0,21.0,21.0,21.0,2027.077604799997,,,,,,,,,,,,,,,,,,,,,,,,,,,,,,,,,,,,,,,,,,,,,,,,,,,,,,,,,,,,,,,,,,2027.0617230999924,2027.077604799997,2027.077604799997,2027.5776218999963,2027.5776218999963,2030.0775720999957,2030.0775720999957,2030.0613894999988,None,1.0,,,,,,,nback80,1.0,2024-02-02_12h51.56.838,untitled,2023.2.3,60.127771512658455,2024-02-02 13h13.19.386916 -0500,
,"[0, 0.2]",None,,,,,,,,,0.0,22.0,22.0,22.0,2030.0775720999957,,,,,,,,,,,,,,,,,,,,,,,,,,,,,,,,,,,,,,,,,,,,,,,,,,,,,,,,,,,,,,,,,,2030.0617411999992,2030.0775720999957,2030.0775720999957,2030.5775479000004,2030.5775479000004,2033.0774485,2033.0774485,2033.061303399998,None,1.0,,,,,,,nback80,1.0,2024-02-02_12h51.56.838,untitled,2023.2.3,60.127771512658455,2024-02-02 13h13.19.386916 -0500,
,"[0.64, -0.4]",None,,,,,,,,,0.0,23.0,23.0,23.0,2033.0774485,,,,,,,,,,,,,,,,,,,,,,,,,,,,,,,,,,,,,,,,,,,,,,,,,,,,,,,,,,,,,,,,,,2033.061629100004,2033.0774485,2033.0774485,2033.5774761999928,2033.5774761999928,2036.077408600002,2036.077408600002,2036.061145,None,1.0,,,,,,,nback80,1.0,2024-02-02_12h51.56.838,untitled,2023.2.3,60.127771512658455,2024-02-02 13h13.19.386916 -0500,
,"[0, 0.2]",space,,,,,,,,,0.0,24.0,24.0,24.0,2036.077408600002,,,,,,,,,,,,,,,,,,,,,,,,,,,,,,,,,,,,,,,,,,,,,,,,,,,,,,,,,,,,,,,,,,2036.0615203000048,2036.077408600002,2036.077408600002,2036.5774502999996,2036.5774502999996,2039.0774400999944,2039.0774400999944,2039.061211799999,space,1.0,0.817653700010851,None,,,,,nback80,1.0,2024-02-02_12h51.56.838,untitled,2023.2.3,60.127771512658455,2024-02-02 13h13.19.386916 -0500,
,"[-0.2, 0.1]",None,,,,,,,,,0.0,25.0,25.0,25.0,2039.0774400999944,,,,,,,,,,,,,,,,,,,,,,,,,,,,,,,,,,,,,,,,,,,,,,,,,,,,,,,,,,,,,,,,,,2039.061640400003,2039.0774400999944,2039.0774400999944,2039.577338300005,2039.577338300005,2042.0772709000007,2042.0772709000007,2042.061267900004,None,1.0,,,,,,,nback80,1.0,2024-02-02_12h51.56.838,untitled,2023.2.3,60.127771512658455,2024-02-02 13h13.19.386916 -0500,
,"[0.3, 0]",None,,,,,,,,,0.0,26.0,26.0,26.0,2042.0772709000007,,,,,,,,,,,,,,,,,,,,,,,,,,,,,,,,,,,,,,,,,,,,,,,,,,,,,,,,,,,,,,,,,,2042.0616597000044,2042.0772709000007,2042.0772709000007,2042.5772679999936,2042.5772679999936,2045.0772434999965,2045.0772434999965,2045.0610795999964,None,1.0,,,,,,,nback80,1.0,2024-02-02_12h51.56.838,untitled,2023.2.3,60.127771512658455,2024-02-02 13h13.19.386916 -0500,
,"[-0.2, 0.1]",space,,,,,,,,,0.0,27.0,27.0,27.0,2045.0772434999965,,,,,,,,,,,,,,,,,,,,,,,,,,,,,,,,,,,,,,,,,,,,,,,,,,,,,,,,,,,,,,,,,,2045.0614229000057,2045.0772434999965,2045.0772434999965,2045.5773716999972,2045.5773716999972,2048.077244400003,2048.077244400003,2048.0613091999985,space,1.0,0.6180230000027223,None,,,,,nback80,1.0,2024-02-02_12h51.56.838,untitled,2023.2.3,60.127771512658455,2024-02-02 13h13.19.386916 -0500,
,"[-0.2, 0.1]",None,,,,,,,,,0.0,28.0,28.0,28.0,2048.077244400003,,,,,,,,,,,,,,,,,,,,,,,,,,,,,,,,,,,,,,,,,,,,,,,,,,,,,,,,,,,,,,,,,,2048.061715100004,2048.077244400003,2048.077244400003,2048.577231999996,2048.577231999996,2051.077147899996,2051.077147899996,2051.0609558,space,0.0,0.7792602000117768,None,,,,,nback80,1.0,2024-02-02_12h51.56.838,untitled,2023.2.3,60.127771512658455,2024-02-02 13h13.19.386916 -0500,
,"[0.2, 0.1]",None,,,,,,,,,0.0,29.0,29.0,29.0,2051.077147899996,,,,,,,,,,,,,,,,,,,,,,,,,,,,,,,,,,,,,,,,,,,,,,,,,,,,,,,,,,,,,,,,,,2051.061332800004,2051.077147899996,2051.077147899996,2051.577156800005,2051.577156800005,2054.0771262000053,2054.0771262000053,2054.060911599998,space,0.0,1.0482859000039753,None,,,,,nback80,1.0,2024-02-02_12h51.56.838,untitled,2023.2.3,60.127771512658455,2024-02-02 13h13.19.386916 -0500,
,"[-0.64, -0.4]",None,,,,,,,,,0.0,30.0,30.0,30.0,2054.0771262000053,,,,,,,,,,,,,,,,,,,,,,,,,,,,,,,,,,,,,,,,,,,,,,,,,,,,,,,,,,,,,,,,,,2054.0613054999994,2054.0771262000053,2054.0771262000053,2054.5771531999926,2054.5771531999926,2057.0770062999945,2057.0770062999945,2057.060788799994,None,1.0,,,,,,,nback80,1.0,2024-02-02_12h51.56.838,untitled,2023.2.3,60.127771512658455,2024-02-02 13h13.19.386916 -0500,
,"[0, -0.2]",None,,,,,,,,,0.0,31.0,31.0,31.0,2057.0770062999945,,,,,,,,,,,,,,,,,,,,,,,,,,,,,,,,,,,,,,,,,,,,,,,,,,,,,,,,,,,,,,,,,,2057.061110900002,2057.0770062999945,2057.0770062999945,2057.577031599998,2057.577031599998,2060.0771316000028,2060.0771316000028,2060.060679599992,None,1.0,,,,,,,nback80,1.0,2024-02-02_12h51.56.838,untitled,2023.2.3,60.127771512658455,2024-02-02 13h13.19.386916 -0500,
,"[-0.64, -0.4]",space,,,,,,,,,0.0,32.0,32.0,32.0,2060.0771316000028,,,,,,,,,,,,,,,,,,,,,,,,,,,,,,,,,,,,,,,,,,,,,,,,,,,,,,,,,,,,,,,,,,2060.061031399993,2060.0771316000028,2060.0771316000028,2060.577238400001,2060.577238400001,2063.0769494999986,2063.0769494999986,2063.060797300001,space,1.0,0.4041810999915469,None,,,,,nback80,1.0,2024-02-02_12h51.56.838,untitled,2023.2.3,60.127771512658455,2024-02-02 13h13.19.386916 -0500,
,"[0.64, 0.4]",None,,,,,,,,,0.0,33.0,33.0,33.0,2063.0769494999986,,,,,,,,,,,,,,,,,,,,,,,,,,,,,,,,,,,,,,,,,,,,,,,,,,,,,,,,,,,,,,,,,,2063.061191400004,2063.0769494999986,2063.0769494999986,2063.576937699996,2063.576937699996,2066.0768895999936,2066.0768895999936,2066.060525299996,None,1.0,,,,,,,nback80,1.0,2024-02-02_12h51.56.838,untitled,2023.2.3,60.127771512658455,2024-02-02 13h13.19.386916 -0500,
,"[-0.3, 0]",None,,,,,,,,,0.0,34.0,34.0,34.0,2066.0768895999936,,,,,,,,,,,,,,,,,,,,,,,,,,,,,,,,,,,,,,,,,,,,,,,,,,,,,,,,,,,,,,,,,,2066.060877099997,2066.0768895999936,2066.0768895999936,2066.576985499996,2066.576985499996,2069.0769478,2069.0769478,2069.0607135000027,None,1.0,,,,,,,nback80,1.0,2024-02-02_12h51.56.838,untitled,2023.2.3,60.127771512658455,2024-02-02 13h13.19.386916 -0500,
,"[0.3, 0]",None,,,,,,,,,0.0,35.0,35.0,35.0,2069.0769478,,,,,,,,,,,,,,,,,,,,,,,,,,,,,,,,,,,,,,,,,,,,,,,,,,,,,,,,,,,,,,,,,,2069.0612530999933,2069.0769478,2069.0769478,2069.5769917,2069.5769917,2072.0768312,2072.0768312,2072.0605123999994,None,1.0,,,,,,,nback80,1.0,2024-02-02_12h51.56.838,untitled,2023.2.3,60.127771512658455,2024-02-02 13h13.19.386916 -0500,
,"[-0.3, 0]",space,,,,,,,,,0.0,36.0,36.0,36.0,2072.0768312,,,,,,,,,,,,,,,,,,,,,,,,,,,,,,,,,,,,,,,,,,,,,,,,,,,,,,,,,,,,,,,,,,2072.060832499992,2072.0768312,2072.0768312,2072.5768255000003,2072.5768255000003,2075.0768318000046,2075.0768318000046,2075.0605710999957,space,1.0,1.5763869999937017,None,,,,,nback80,1.0,2024-02-02_12h51.56.838,untitled,2023.2.3,60.127771512658455,2024-02-02 13h13.19.386916 -0500,
,"[0, -0.2]",None,,,,,,,,,0.0,37.0,37.0,37.0,2075.0768318000046,,,,,,,,,,,,,,,,,,,,,,,,,,,,,,,,,,,,,,,,,,,,,,,,,,,,,,,,,,,,,,,,,,2075.060945999998,2075.0768318000046,2075.0768318000046,2075.576940999992,2075.576940999992,2078.076648000002,2078.076648000002,2078.060488999996,None,1.0,,,,,,,nback80,1.0,2024-02-02_12h51.56.838,untitled,2023.2.3,60.127771512658455,2024-02-02 13h13.19.386916 -0500,
,"[0.3, 0]",None,,,,,,,,,0.0,38.0,38.0,38.0,2078.076648000002,,,,,,,,,,,,,,,,,,,,,,,,,,,,,,,,,,,,,,,,,,,,,,,,,,,,,,,,,,,,,,,,,,2078.060847899993,2078.076648000002,2078.076648000002,2078.576740399993,2078.576740399993,2081.076685399996,2081.076685399996,2081.060566800006,None,1.0,,,,,,,nback80,1.0,2024-02-02_12h51.56.838,untitled,2023.2.3,60.127771512658455,2024-02-02 13h13.19.386916 -0500,
,"[0.2, 0.1]",None,,,,,,,,,0.0,39.0,39.0,39.0,2081.076685399996,,,,,,,,,,,,,,,,,,,,,,,,,,,,,,,,,,,,,,,,,,,,,,,,,,,,,,,,,,,,,,,,,,2081.060905399994,2081.076685399996,2081.076685399996,2081.5767880000058,2081.5767880000058,2084.076786299993,2084.076786299993,2084.060400699993,None,1.0,,,,,,,nback80,1.0,2024-02-02_12h51.56.838,untitled,2023.2.3,60.127771512658455,2024-02-02 13h13.19.386916 -0500,
,,,,,,,,,,,,,,,,,,,,,,,,,,,,,,,,,,,,,,,,,,,,,,,,,,,,,,,,,,,,,,,,,,,,,,,,,,,,,,,,,,,,,,,,,,,,,2084.0606379999954,2084.076786299993,2087.076596999992,2087.0604527999967,,,,,,,,
