square,location,corrAns,trials_0.thisRepN,trials_0.thisTrialN,trials_0.thisN,trials_0.thisIndex,trials_1.thisRepN,trials_1.thisTrialN,trials_1.thisN,trials_1.thisIndex,trials_2.thisRepN,trials_2.thisTrialN,trials_2.thisN,trials_2.thisIndex,thisRow.t,notes,Instructions.started,instructions.started,key_resp.started,inst_sq11.started,Instructions.stopped,key_resp.keys,key_resp.rt,key_resp.duration,All.started,sq_1.started,sq_2.started,sq_3.started,sq_4.started,sq_5.started,sq_6.started,sq_7.started,sq_8.started,sq_9.started,sq_10.started,sq_11.started,sq_12.started,All.stopped,Fixation.started,fixation_3.started,fixation_3.stopped,Fixation.stopped,N_back_0_Trial.started,target_square_0.started,response_0.started,fixation_0.started,target_square_0.stopped,fixation_0.stopped,response_0.stopped,N_back_0_Trial.stopped,response_0.keys,response_0.corr,response_0.rt,response_0.duration,Instructions_1.started,instructions_1.started,key_resp_1.started,Instructions_1.stopped,key_resp_1.keys,key_resp_1.rt,key_resp_1.duration,N_back_1_Trial.started,target_square_1.started,response_1.started,target_square_1.stopped,fixation_1.started,fixation_1.stopped,response_1.stopped,N_back_1_Trial.stopped,response_1.keys,response_1.corr,response_1.rt,response_1.duration,Instructions_2.started,instructions_2.started,key_resp_2.started,Instructions_2.stopped,key_resp_2.keys,key_resp_2.rt,key_resp_2.duration,N_back_2_trials.started,target_square_2.started,response_2.started,target_square_2.stopped,fixation_2.started,fixation_2.stopped,response_2.stopped,N_back_2_trials.stopped,response_2.keys,response_2.corr,response_2.rt,response_2.duration,End.started,thank_you.started,thank_you.stopped,End.stopped,participant,session,date,expName,psychopyVersion,frameRate,expStart,Unnamed: 104
,,,,,,,,,,,,,,,,,0.001382399990689,0.0039926999888848,0.0039926999888848,0.0039926999888848,1188.3631827000063,space,1188.348781699984,None,,,,,,,,,,,,,,,,,,,,,,,,,,,,,,,,,,,,,,,,,,,,,,,,,,,,,,,,,,,,,,,,,,,,,,,,,nback32,1.0,2023-12-18_09h49.59.030,untitled,2023.2.3,60.08860665903411,2023-12-18 10h46.20.667931 -0500,
6.0,"[-0.3, 0]",None,0.0,0.0,0.0,0.0,,,,,,,,,1190.3782082999824,,,,,,,,,,1188.3632216999831,1188.3782728999795,1188.3782728999795,1188.3782728999795,1188.3782728999795,1188.3782728999795,1188.3782728999795,1188.3782728999795,1188.3782728999795,1188.3782728999795,1188.3782728999795,1188.3782728999795,1188.3782728999795,1189.3624044999888,1189.3624298000068,1189.378342799988,1190.3782082999824,1190.3623370999994,1190.3744983999932,1190.3782082999824,1190.3782082999824,1190.8617810999858,1190.878357299982,1193.361660399998,1193.378313199995,1193.362552499981,None,1.0,,,,,,,,,,,,,,,,,,,,,,,,,,,,,,,,,,,,,,,,,,,,,nback32,1.0,2023-12-18_09h49.59.030,untitled,2023.2.3,60.08860665903411,2023-12-18 10h46.20.667931 -0500,
10.0,"[0, -0.2]",None,0.0,1.0,1.0,1.0,,,,,,,,,1193.378313199995,,,,,,,,,,,,,,,,,,,,,,,,,,,,1193.3635832,1193.378313199995,1193.378313199995,1193.8616900999914,1193.8782677999989,1196.3615201000066,1196.378174099984,1196.3622813999827,None,1.0,,,,,,,,,,,,,,,,,,,,,,,,,,,,,,,,,,,,,,,,,,,,,nback32,1.0,2023-12-18_09h49.59.030,untitled,2023.2.3,60.08860665903411,2023-12-18 10h46.20.667931 -0500,
11.0,"[-0.64, -0.4]",space,0.0,2.0,2.0,2.0,,,,,,,,,1196.378174099984,,,,,,,,,,,,,,,,,,,,,,,,,,,,1196.3630010999914,1196.378174099984,1196.378174099984,1196.8615524999914,1196.8781721999983,1199.3616035000014,1199.3782419000054,1199.3625782000015,space,1.0,0.3986608000122942,None,,,,,,,,,,,,,,,,,,,,,,,,,,,,,,,,,,,,,,,,,,,nback32,1.0,2023-12-18_09h49.59.030,untitled,2023.2.3,60.08860665903411,2023-12-18 10h46.20.667931 -0500,
12.0,"[0.64, -0.4]",None,0.0,3.0,3.0,3.0,,,,,,,,,1199.3782419000054,,,,,,,,,,,,,,,,,,,,,,,,,,,,1199.3637778999982,1199.3782419000054,1199.3782419000054,1199.8781345000025,1199.8781345000025,1202.378245400003,1202.378245400003,1202.362369999988,None,1.0,,,,,,,,,,,,,,,,,,,,,,,,,,,,,,,,,,,,,,,,,,,,,nback32,1.0,2023-12-18_09h49.59.030,untitled,2023.2.3,60.08860665903411,2023-12-18 10h46.20.667931 -0500,
1.0,"[-0.64, 0.4]",None,0.0,4.0,4.0,4.0,,,,,,,,,1202.378245400003,,,,,,,,,,,,,,,,,,,,,,,,,,,,1202.3631446999789,1202.378245400003,1202.378245400003,1202.8614372999873,1202.8780176999862,1205.361450299999,1205.3781191000016,1205.362217499991,None,1.0,,,,,,,,,,,,,,,,,,,,,,,,,,,,,,,,,,,,,,,,,,,,,nback32,1.0,2023-12-18_09h49.59.030,untitled,2023.2.3,60.08860665903411,2023-12-18 10h46.20.667931 -0500,
1.0,"[-0.64, 0.4]",None,0.0,5.0,5.0,5.0,,,,,,,,,1205.3781191000016,,,,,,,,,,,,,,,,,,,,,,,,,,,,1205.362974699994,1205.3781191000016,1205.3781191000016,1205.878138400003,1205.878138400003,1208.3781149999995,1208.3781149999995,1208.362521699979,None,1.0,,,,,,,,,,,,,,,,,,,,,,,,,,,,,,,,,,,,,,,,,,,,,nback32,1.0,2023-12-18_09h49.59.030,untitled,2023.2.3,60.08860665903411,2023-12-18 10h46.20.667931 -0500,
4.0,"[-0.2, 0.1]",None,0.0,6.0,6.0,6.0,,,,,,,,,1208.3781149999995,,,,,,,,,,,,,,,,,,,,,,,,,,,,1208.363390899991,1208.3781149999995,1208.3781149999995,1208.8780366999854,1208.8780366999854,1211.3779803999932,1211.3779803999932,1211.3623834000027,None,1.0,,,,,,,,,,,,,,,,,,,,,,,,,,,,,,,,,,,,,,,,,,,,,nback32,1.0,2023-12-18_09h49.59.030,untitled,2023.2.3,60.08860665903411,2023-12-18 10h46.20.667931 -0500,
5.0,"[0.2, 0.1]",None,0.0,7.0,7.0,7.0,,,,,,,,,1211.3779803999932,,,,,,,,,,,,,,,,,,,,,,,,,,,,1211.363221799984,1211.3779803999932,1211.3779803999932,1211.8612605999806,1211.8779532999906,1214.3612817999965,1214.377981199999,1214.362276300002,None,1.0,,,,,,,,,,,,,,,,,,,,,,,,,,,,,,,,,,,,,,,,,,,,,nback32,1.0,2023-12-18_09h49.59.030,untitled,2023.2.3,60.08860665903411,2023-12-18 10h46.20.667931 -0500,
11.0,"[-0.64, -0.4]",space,0.0,8.0,8.0,8.0,,,,,,,,,1214.377981199999,,,,,,,,,,,,,,,,,,,,,,,,,,,,1214.3631195999917,1214.377981199999,1214.377981199999,1214.8780055999814,1214.8780055999814,1217.377851199999,1217.377851199999,1217.361873499991,space,1.0,0.3857720000087283,None,,,,,,,,,,,,,,,,,,,,,,,,,,,,,,,,,,,,,,,,,,,nback32,1.0,2023-12-18_09h49.59.030,untitled,2023.2.3,60.08860665903411,2023-12-18 10h46.20.667931 -0500,
9.0,"[0.2, -0.1]",None,0.0,9.0,9.0,9.0,,,,,,,,,1217.377851199999,,,,,,,,,,,,,,,,,,,,,,,,,,,,1217.362641499989,1217.377851199999,1217.377851199999,1217.8776992000055,1217.8776992000055,1220.377804299991,1220.377804299991,1220.3619552000018,None,1.0,,,,,,,,,,,,,,,,,,,,,,,,,,,,,,,,,,,,,,,,,,,,,nback32,1.0,2023-12-18_09h49.59.030,untitled,2023.2.3,60.08860665903411,2023-12-18 10h46.20.667931 -0500,
8.0,"[-0.2, -0.1]",None,0.0,10.0,10.0,10.0,,,,,,,,,1220.377804299991,,,,,,,,,,,,,,,,,,,,,,,,,,,,1220.362609200005,1220.377804299991,1220.377804299991,1220.8778227999865,1220.8778227999865,1223.377826999989,1223.377826999989,1223.361768200004,None,1.0,,,,,,,,,,,,,,,,,,,,,,,,,,,,,,,,,,,,,,,,,,,,,nback32,1.0,2023-12-18_09h49.59.030,untitled,2023.2.3,60.08860665903411,2023-12-18 10h46.20.667931 -0500,
9.0,"[0.2, -0.1]",None,0.0,11.0,11.0,11.0,,,,,,,,,1223.377826999989,,,,,,,,,,,,,,,,,,,,,,,,,,,,1223.362405199994,1223.377826999989,1223.377826999989,1223.8778037999873,1223.8778037999873,1226.377791199979,1226.377791199979,1226.361783100001,None,1.0,,,,,,,,,,,,,,,,,,,,,,,,,,,,,,,,,,,,,,,,,,,,,nback32,1.0,2023-12-18_09h49.59.030,untitled,2023.2.3,60.08860665903411,2023-12-18 10h46.20.667931 -0500,
6.0,"[-0.3, 0]",None,0.0,12.0,12.0,12.0,,,,,,,,,1226.377791199979,,,,,,,,,,,,,,,,,,,,,,,,,,,,1226.3625298999832,1226.377791199979,1226.377791199979,1226.8776437999911,1226.8776437999911,1229.3774701999791,1229.3774701999791,1229.361562200007,None,1.0,,,,,,,,,,,,,,,,,,,,,,,,,,,,,,,,,,,,,,,,,,,,,nback32,1.0,2023-12-18_09h49.59.030,untitled,2023.2.3,60.08860665903411,2023-12-18 10h46.20.667931 -0500,
9.0,"[0.2, -0.1]",None,0.0,13.0,13.0,13.0,,,,,,,,,1229.3774701999791,,,,,,,,,,,,,,,,,,,,,,,,,,,,1229.3622205999854,1229.3774701999791,1229.3774701999791,1229.877664400003,1229.877664400003,1232.3775276999804,1232.3775276999804,1232.3617670999956,None,1.0,,,,,,,,,,,,,,,,,,,,,,,,,,,,,,,,,,,,,,,,,,,,,nback32,1.0,2023-12-18_09h49.59.030,untitled,2023.2.3,60.08860665903411,2023-12-18 10h46.20.667931 -0500,
7.0,"[0.3, 0]",None,0.0,14.0,14.0,14.0,,,,,,,,,1232.3775276999804,,,,,,,,,,,,,,,,,,,,,,,,,,,,1232.3624559000018,1232.3775276999804,1232.3775276999804,1232.8776304000055,1232.8776304000055,1235.3774439999834,1235.3774439999834,1235.3619280999992,None,1.0,,,,,,,,,,,,,,,,,,,,,,,,,,,,,,,,,,,,,,,,,,,,,nback32,1.0,2023-12-18_09h49.59.030,untitled,2023.2.3,60.08860665903411,2023-12-18 10h46.20.667931 -0500,
2.0,"[0.64, 0.4]",None,0.0,15.0,15.0,15.0,,,,,,,,,1235.3774439999834,,,,,,,,,,,,,,,,,,,,,,,,,,,,1235.362709899986,1235.3774439999834,1235.3774439999834,1235.8775291999918,1235.8775291999918,1238.3772529999842,1238.3772529999842,1238.3612746,None,1.0,,,,,,,,,,,,,,,,,,,,,,,,,,,,,,,,,,,,,,,,,,,,,nback32,1.0,2023-12-18_09h49.59.030,untitled,2023.2.3,60.08860665903411,2023-12-18 10h46.20.667931 -0500,
2.0,"[0.64, 0.4]",None,0.0,16.0,16.0,16.0,,,,,,,,,1238.3772529999842,,,,,,,,,,,,,,,,,,,,,,,,,,,,1238.3620030999882,1238.3772529999842,1238.3772529999842,1238.8775168999855,1238.8775168999855,1241.37729579999,1241.37729579999,1241.3614173999813,None,1.0,,,,,,,,,,,,,,,,,,,,,,,,,,,,,,,,,,,,,,,,,,,,,nback32,1.0,2023-12-18_09h49.59.030,untitled,2023.2.3,60.08860665903411,2023-12-18 10h46.20.667931 -0500,
11.0,"[-0.64, -0.4]",space,0.0,17.0,17.0,17.0,,,,,,,,,1241.37729579999,,,,,,,,,,,,,,,,,,,,,,,,,,,,1241.3618077999854,1241.37729579999,1241.37729579999,1241.8773403999803,1241.8773403999803,1244.377193799999,1244.377193799999,1244.362078899983,space,1.0,0.4468196000088937,None,,,,,,,,,,,,,,,,,,,,,,,,,,,,,,,,,,,,,,,,,,,nback32,1.0,2023-12-18_09h49.59.030,untitled,2023.2.3,60.08860665903411,2023-12-18 10h46.20.667931 -0500,
11.0,"[-0.64, -0.4]",space,0.0,18.0,18.0,18.0,,,,,,,,,1244.377193799999,,,,,,,,,,,,,,,,,,,,,,,,,,,,1244.3628198999795,1244.377193799999,1244.377193799999,1244.877421499987,1244.877421499987,1247.3773266999924,1247.3773266999924,1247.3614287999808,space,1.0,0.4372228999854997,None,,,,,,,,,,,,,,,,,,,,,,,,,,,,,,,,,,,,,,,,,,,nback32,1.0,2023-12-18_09h49.59.030,untitled,2023.2.3,60.08860665903411,2023-12-18 10h46.20.667931 -0500,
7.0,"[0.3, 0]",None,0.0,19.0,19.0,19.0,,,,,,,,,1247.3773266999924,,,,,,,,,,,,,,,,,,,,,,,,,,,,1247.3622793999966,1247.3773266999924,1247.3773266999924,1247.877359999984,1247.877359999984,1250.377298699983,1250.377298699983,1250.361673699983,None,1.0,,,,,,,,,,,,,,,,,,,,,,,,,,,,,,,,,,,,,,,,,,,,,nback32,1.0,2023-12-18_09h49.59.030,untitled,2023.2.3,60.08860665903411,2023-12-18 10h46.20.667931 -0500,
3.0,"[0, 0.2]",None,0.0,20.0,20.0,20.0,,,,,,,,,1250.377298699983,,,,,,,,,,,,,,,,,,,,,,,,,,,,1250.3624841999845,1250.377298699983,1250.377298699983,1250.8772838999869,1250.8772838999869,1253.3773369999835,1253.3773369999835,1253.3617003999825,None,1.0,,,,,,,,,,,,,,,,,,,,,,,,,,,,,,,,,,,,,,,,,,,,,nback32,1.0,2023-12-18_09h49.59.030,untitled,2023.2.3,60.08860665903411,2023-12-18 10h46.20.667931 -0500,
10.0,"[0, -0.2]",None,0.0,21.0,21.0,21.0,,,,,,,,,1253.3773369999835,,,,,,,,,,,,,,,,,,,,,,,,,,,,1253.36249889998,1253.3773369999835,1253.3773369999835,1253.8773762999915,1253.8773762999915,1256.3770361999923,1256.3770361999923,1256.3612379999831,None,1.0,,,,,,,,,,,,,,,,,,,,,,,,,,,,,,,,,,,,,,,,,,,,,nback32,1.0,2023-12-18_09h49.59.030,untitled,2023.2.3,60.08860665903411,2023-12-18 10h46.20.667931 -0500,
1.0,"[-0.64, 0.4]",None,0.0,22.0,22.0,22.0,,,,,,,,,1256.3770361999923,,,,,,,,,,,,,,,,,,,,,,,,,,,,1256.3618550999963,1256.3770361999923,1256.3770361999923,1256.877256399981,1256.877256399981,1259.3769905999943,1259.3769905999943,1259.361204899993,None,1.0,,,,,,,,,,,,,,,,,,,,,,,,,,,,,,,,,,,,,,,,,,,,,nback32,1.0,2023-12-18_09h49.59.030,untitled,2023.2.3,60.08860665903411,2023-12-18 10h46.20.667931 -0500,
2.0,"[0.64, 0.4]",None,0.0,23.0,23.0,23.0,,,,,,,,,1259.3769905999943,,,,,,,,,,,,,,,,,,,,,,,,,,,,1259.3618637000036,1259.3769905999943,1259.3769905999943,1259.8771230999846,1259.8771230999846,1262.3770068000013,1262.3770068000013,1262.3609711999889,None,1.0,,,,,,,,,,,,,,,,,,,,,,,,,,,,,,,,,,,,,,,,,,,,,nback32,1.0,2023-12-18_09h49.59.030,untitled,2023.2.3,60.08860665903411,2023-12-18 10h46.20.667931 -0500,
6.0,"[-0.3, 0]",None,0.0,24.0,24.0,24.0,,,,,,,,,1262.3770068000013,,,,,,,,,,,,,,,,,,,,,,,,,,,,1262.3616239999828,1262.3770068000013,1262.3770068000013,1262.8770600999997,1262.8770600999997,1265.3770278999873,1265.3770278999873,1265.3613175000064,None,1.0,,,,,,,,,,,,,,,,,,,,,,,,,,,,,,,,,,,,,,,,,,,,,nback32,1.0,2023-12-18_09h49.59.030,untitled,2023.2.3,60.08860665903411,2023-12-18 10h46.20.667931 -0500,
3.0,"[0, 0.2]",None,0.0,25.0,25.0,25.0,,,,,,,,,1265.3770278999873,,,,,,,,,,,,,,,,,,,,,,,,,,,,1265.362093999982,1265.3770278999873,1265.3770278999873,1265.8771010999917,1265.8771010999917,1268.376917799993,1268.376917799993,1268.3612053999968,None,1.0,,,,,,,,,,,,,,,,,,,,,,,,,,,,,,,,,,,,,,,,,,,,,nback32,1.0,2023-12-18_09h49.59.030,untitled,2023.2.3,60.08860665903411,2023-12-18 10h46.20.667931 -0500,
11.0,"[-0.64, -0.4]",space,0.0,26.0,26.0,26.0,,,,,,,,,1268.376917799993,,,,,,,,,,,,,,,,,,,,,,,,,,,,1268.3620736000012,1268.376917799993,1268.376917799993,1268.8768897999837,1268.8768897999837,1271.376683199982,1271.376683199982,1271.360319200001,space,1.0,0.3916090999846346,None,,,,,,,,,,,,,,,,,,,,,,,,,,,,,,,,,,,,,,,,,,,nback32,1.0,2023-12-18_09h49.59.030,untitled,2023.2.3,60.08860665903411,2023-12-18 10h46.20.667931 -0500,
1.0,"[-0.64, 0.4]",None,0.0,27.0,27.0,27.0,,,,,,,,,1271.376683199982,,,,,,,,,,,,,,,,,,,,,,,,,,,,1271.3607194999931,1271.376683199982,1271.376683199982,1271.8769365999906,1271.8769365999906,1274.3768672999868,1274.3768672999868,1274.361055699992,None,1.0,,,,,,,,,,,,,,,,,,,,,,,,,,,,,,,,,,,,,,,,,,,,,nback32,1.0,2023-12-18_09h49.59.030,untitled,2023.2.3,60.08860665903411,2023-12-18 10h46.20.667931 -0500,
3.0,"[0, 0.2]",None,0.0,28.0,28.0,28.0,,,,,,,,,1274.3768672999868,,,,,,,,,,,,,,,,,,,,,,,,,,,,1274.3617077999806,1274.3768672999868,1274.3768672999868,1274.8769060999912,1274.8769060999912,1277.376921499992,1277.376921499992,1277.3606964999926,None,1.0,,,,,,,,,,,,,,,,,,,,,,,,,,,,,,,,,,,,,,,,,,,,,nback32,1.0,2023-12-18_09h49.59.030,untitled,2023.2.3,60.08860665903411,2023-12-18 10h46.20.667931 -0500,
9.0,"[0.2, -0.1]",None,0.0,29.0,29.0,29.0,,,,,,,,,1277.376921499992,,,,,,,,,,,,,,,,,,,,,,,,,,,,1277.3612912999815,1277.376921499992,1277.376921499992,1277.876810799993,1277.876810799993,1280.3769058999897,1280.3769058999897,1280.3606778999963,None,1.0,,,,,,,,,,,,,,,,,,,,,,,,,,,,,,,,,,,,,,,,,,,,,nback32,1.0,2023-12-18_09h49.59.030,untitled,2023.2.3,60.08860665903411,2023-12-18 10h46.20.667931 -0500,
8.0,"[-0.2, -0.1]",None,0.0,30.0,30.0,30.0,,,,,,,,,1280.3769058999897,,,,,,,,,,,,,,,,,,,,,,,,,,,,1280.3613672000065,1280.3769058999897,1280.3769058999897,1280.8767920999962,1280.8767920999962,1283.3766302999866,1283.3766302999866,1283.3611068000027,None,1.0,,,,,,,,,,,,,,,,,,,,,,,,,,,,,,,,,,,,,,,,,,,,,nback32,1.0,2023-12-18_09h49.59.030,untitled,2023.2.3,60.08860665903411,2023-12-18 10h46.20.667931 -0500,
12.0,"[0.64, -0.4]",None,0.0,31.0,31.0,31.0,,,,,,,,,1283.3766302999866,,,,,,,,,,,,,,,,,,,,,,,,,,,,1283.3619252000062,1283.3766302999866,1283.3766302999866,1283.8767822999798,1283.8767822999798,1286.376648000005,1286.376648000005,1286.3609312000044,None,1.0,,,,,,,,,,,,,,,,,,,,,,,,,,,,,,,,,,,,,,,,,,,,,nback32,1.0,2023-12-18_09h49.59.030,untitled,2023.2.3,60.08860665903411,2023-12-18 10h46.20.667931 -0500,
9.0,"[0.2, -0.1]",None,0.0,32.0,32.0,32.0,,,,,,,,,1286.376648000005,,,,,,,,,,,,,,,,,,,,,,,,,,,,1286.3616917000036,1286.376648000005,1286.376648000005,1286.8767231999957,1286.8767231999957,1289.3765524000046,1289.3765524000046,1289.3608433000045,None,1.0,,,,,,,,,,,,,,,,,,,,,,,,,,,,,,,,,,,,,,,,,,,,,nback32,1.0,2023-12-18_09h49.59.030,untitled,2023.2.3,60.08860665903411,2023-12-18 10h46.20.667931 -0500,
11.0,"[-0.64, -0.4]",space,0.0,33.0,33.0,33.0,,,,,,,,,1289.3765524000046,,,,,,,,,,,,,,,,,,,,,,,,,,,,1289.3616593999905,1289.3765524000046,1289.3765524000046,1289.8765642999788,1289.8765642999788,1292.3765429999912,1292.3765429999912,1292.3607177999802,space,1.0,0.3806230000045616,None,,,,,,,,,,,,,,,,,,,,,,,,,,,,,,,,,,,,,,,,,,,nback32,1.0,2023-12-18_09h49.59.030,untitled,2023.2.3,60.08860665903411,2023-12-18 10h46.20.667931 -0500,
7.0,"[0.3, 0]",None,0.0,34.0,34.0,34.0,,,,,,,,,1292.3765429999912,,,,,,,,,,,,,,,,,,,,,,,,,,,,1292.361472299992,1292.3765429999912,1292.3765429999912,1292.8767530999903,1292.8767530999903,1295.376462399989,1295.376462399989,1295.3606596000027,None,1.0,,,,,,,,,,,,,,,,,,,,,,,,,,,,,,,,,,,,,,,,,,,,,nback32,1.0,2023-12-18_09h49.59.030,untitled,2023.2.3,60.08860665903411,2023-12-18 10h46.20.667931 -0500,
11.0,"[-0.64, -0.4]",space,0.0,35.0,35.0,35.0,,,,,,,,,1295.376462399989,,,,,,,,,,,,,,,,,,,,,,,,,,,,1295.36131019998,1295.376462399989,1295.376462399989,1295.876679399982,1295.876679399982,1298.3764164999884,1298.3764164999884,1298.360784599994,space,1.0,0.3851190999848768,None,,,,,,,,,,,,,,,,,,,,,,,,,,,,,,,,,,,,,,,,,,,nback32,1.0,2023-12-18_09h49.59.030,untitled,2023.2.3,60.08860665903411,2023-12-18 10h46.20.667931 -0500,
4.0,"[-0.2, 0.1]",None,0.0,36.0,36.0,36.0,,,,,,,,,1298.3764164999884,,,,,,,,,,,,,,,,,,,,,,,,,,,,1298.3617754000006,1298.3764164999884,1298.3764164999884,1298.876504999993,1298.876504999993,1301.3763531000004,1301.3763531000004,1301.3605124999883,None,1.0,,,,,,,,,,,,,,,,,,,,,,,,,,,,,,,,,,,,,,,,,,,,,nback32,1.0,2023-12-18_09h49.59.030,untitled,2023.2.3,60.08860665903411,2023-12-18 10h46.20.667931 -0500,
5.0,"[0.2, 0.1]",None,0.0,37.0,37.0,37.0,,,,,,,,,1301.3763531000004,,,,,,,,,,,,,,,,,,,,,,,,,,,,1301.3611673999983,1301.3763531000004,1301.3763531000004,1301.8764828999992,1301.8764828999992,1304.376372700004,1304.376372700004,1304.3605961999856,None,1.0,,,,,,,,,,,,,,,,,,,,,,,,,,,,,,,,,,,,,,,,,,,,,nback32,1.0,2023-12-18_09h49.59.030,untitled,2023.2.3,60.08860665903411,2023-12-18 10h46.20.667931 -0500,
6.0,"[-0.3, 0]",None,0.0,38.0,38.0,38.0,,,,,,,,,1304.376372700004,,,,,,,,,,,,,,,,,,,,,,,,,,,,1304.3614457999938,1304.376372700004,1304.376372700004,1304.876276199997,1304.876276199997,1307.3761645999912,1307.3761645999912,1307.3603804000013,None,1.0,,,,,,,,,,,,,,,,,,,,,,,,,,,,,,,,,,,,,,,,,,,,,nback32,1.0,2023-12-18_09h49.59.030,untitled,2023.2.3,60.08860665903411,2023-12-18 10h46.20.667931 -0500,
11.0,"[-0.64, -0.4]",space,0.0,39.0,39.0,39.0,,,,,,,,,1307.3761645999912,,,,,,,,,,,,,,,,,,,,,,,,,,,,1307.361060299998,1307.3761645999912,1307.3761645999912,1307.8761558999831,1307.8761558999831,1310.376397199987,1310.376397199987,1310.3603235000046,space,1.0,0.4062690999999176,None,,,,,,,,,,,,,,,,,,,,,,,,,,,,,,,,,,,,,,,,,,,nback32,1.0,2023-12-18_09h49.59.030,untitled,2023.2.3,60.08860665903411,2023-12-18 10h46.20.667931 -0500,
,,,,,,,,,,,,,,,,,,,,,,,,,,,,,,,,,,,,,,,,,,,,,,,,,,,,,,,1310.3608508000034,1310.376397199987,1310.376397199987,1391.99289709999,space,81.60025739998673,None,,,,,,,,,,,,,,,,,,,,,,,,,,,,,,,,,,,,nback32,1.0,2023-12-18_09h49.59.030,untitled,2023.2.3,60.08860665903411,2023-12-18 10h46.20.667931 -0500,
10.0,"[0, -0.2]",None,,,,,0.0,0.0,0.0,0.0,,,,,1393.007972099993,,,,,,,,,,,,,,,,,,,,,,,,1391.9929329000006,1392.0080194000038,1393.007972099993,1392.9923093999969,,,,,,,,,,,,,,,,,,,,1393.001994399994,1393.007972099993,1393.007972099993,1393.5080257999944,1393.5080257999944,1396.0079998,1396.0079998,1395.9923140000028,None,1.0,,,,,,,,,,,,,,,,,,,,,,,,,,nback32,1.0,2023-12-18_09h49.59.030,untitled,2023.2.3,60.08860665903411,2023-12-18 10h46.20.667931 -0500,
5.0,"[0.2, 0.1]",None,,,,,0.0,1.0,1.0,1.0,,,,,1396.0079998,,,,,,,,,,,,,,,,,,,,,,,,,,,,,,,,,,,,,,,,,,,,,,,1395.993141899991,1396.0079998,1396.0079998,1396.5081545999856,1396.5081545999856,1399.0079495999962,1399.0079495999962,1398.9925105999864,None,1.0,,,,,,,,,,,,,,,,,,,,,,,,,,nback32,1.0,2023-12-18_09h49.59.030,untitled,2023.2.3,60.08860665903411,2023-12-18 10h46.20.667931 -0500,
6.0,"[-0.3, 0]",None,,,,,0.0,2.0,2.0,2.0,,,,,1399.0079495999962,,,,,,,,,,,,,,,,,,,,,,,,,,,,,,,,,,,,,,,,,,,,,,,1398.9933840000012,1399.0079495999962,1399.0079495999962,1399.508052499994,1399.508052499994,1402.0080527999962,1402.0080527999962,1401.992143599986,None,1.0,,,,,,,,,,,,,,,,,,,,,,,,,,nback32,1.0,2023-12-18_09h49.59.030,untitled,2023.2.3,60.08860665903411,2023-12-18 10h46.20.667931 -0500,
6.0,"[-0.3, 0]",space,,,,,0.0,3.0,3.0,3.0,,,,,1402.0080527999962,,,,,,,,,,,,,,,,,,,,,,,,,,,,,,,,,,,,,,,,,,,,,,,1401.9930125999963,1402.0080527999962,1402.0080527999962,1402.507956299989,1402.507956299989,1405.0079555999837,1405.0079555999837,1404.9925137999817,space,1.0,0.822483399999328,None,,,,,,,,,,,,,,,,,,,,,,,,nback32,1.0,2023-12-18_09h49.59.030,untitled,2023.2.3,60.08860665903411,2023-12-18 10h46.20.667931 -0500,
12.0,"[0.64, -0.4]",None,,,,,0.0,4.0,4.0,4.0,,,,,1405.0079555999837,,,,,,,,,,,,,,,,,,,,,,,,,,,,,,,,,,,,,,,,,,,,,,,1404.993746399996,1405.0079555999837,1405.0079555999837,1405.5079639999894,1405.5079639999894,1408.0078814000008,1408.0078814000008,1407.9923844999869,None,1.0,,,,,,,,,,,,,,,,,,,,,,,,,,nback32,1.0,2023-12-18_09h49.59.030,untitled,2023.2.3,60.08860665903411,2023-12-18 10h46.20.667931 -0500,
10.0,"[0, -0.2]",None,,,,,0.0,5.0,5.0,5.0,,,,,1408.0078814000008,,,,,,,,,,,,,,,,,,,,,,,,,,,,,,,,,,,,,,,,,,,,,,,1407.9931541999977,1408.0078814000008,1408.0078814000008,1408.5078113999916,1408.5078113999916,1411.0077769999916,1411.0077769999916,1410.992162599985,None,1.0,,,,,,,,,,,,,,,,,,,,,,,,,,nback32,1.0,2023-12-18_09h49.59.030,untitled,2023.2.3,60.08860665903411,2023-12-18 10h46.20.667931 -0500,
2.0,"[0.64, 0.4]",None,,,,,0.0,6.0,6.0,6.0,,,,,1411.0077769999916,,,,,,,,,,,,,,,,,,,,,,,,,,,,,,,,,,,,,,,,,,,,,,,1410.9928956999793,1411.0077769999916,1411.0077769999916,1411.5078237999987,1411.5078237999987,1414.0078263999894,1414.0078263999894,1413.9922687000071,None,1.0,,,,,,,,,,,,,,,,,,,,,,,,,,nback32,1.0,2023-12-18_09h49.59.030,untitled,2023.2.3,60.08860665903411,2023-12-18 10h46.20.667931 -0500,
9.0,"[0.2, -0.1]",None,,,,,0.0,7.0,7.0,7.0,,,,,1414.0078263999894,,,,,,,,,,,,,,,,,,,,,,,,,,,,,,,,,,,,,,,,,,,,,,,1413.9930175000045,1414.0078263999894,1414.0078263999894,1414.5077508999966,1414.5077508999966,1417.0076660999912,1417.0076660999912,1416.9917880999856,None,1.0,,,,,,,,,,,,,,,,,,,,,,,,,,nback32,1.0,2023-12-18_09h49.59.030,untitled,2023.2.3,60.08860665903411,2023-12-18 10h46.20.667931 -0500,
9.0,"[0.2, -0.1]",space,,,,,0.0,8.0,8.0,8.0,,,,,1417.0076660999912,,,,,,,,,,,,,,,,,,,,,,,,,,,,,,,,,,,,,,,,,,,,,,,1416.9924346999906,1417.0076660999912,1417.0076660999912,1417.5077275999938,1417.5077275999938,1420.007712999999,1420.007712999999,1419.9919089000032,space,1.0,0.667957400000887,None,,,,,,,,,,,,,,,,,,,,,,,,nback32,1.0,2023-12-18_09h49.59.030,untitled,2023.2.3,60.08860665903411,2023-12-18 10h46.20.667931 -0500,
6.0,"[-0.3, 0]",None,,,,,0.0,9.0,9.0,9.0,,,,,1420.007712999999,,,,,,,,,,,,,,,,,,,,,,,,,,,,,,,,,,,,,,,,,,,,,,,1419.9926704999816,1420.007712999999,1420.007712999999,1420.5076917999831,1420.5076917999831,1423.007500799984,1423.007500799984,1422.9919228999934,None,1.0,,,,,,,,,,,,,,,,,,,,,,,,,,nback32,1.0,2023-12-18_09h49.59.030,untitled,2023.2.3,60.08860665903411,2023-12-18 10h46.20.667931 -0500,
11.0,"[-0.64, -0.4]",None,,,,,0.0,10.0,10.0,10.0,,,,,1423.007500799984,,,,,,,,,,,,,,,,,,,,,,,,,,,,,,,,,,,,,,,,,,,,,,,1422.9926558999869,1423.007500799984,1423.007500799984,1423.5075840000063,1423.5075840000063,1426.00746719999,1426.00746719999,1425.9914826999884,None,1.0,,,,,,,,,,,,,,,,,,,,,,,,,,nback32,1.0,2023-12-18_09h49.59.030,untitled,2023.2.3,60.08860665903411,2023-12-18 10h46.20.667931 -0500,
11.0,"[-0.64, -0.4]",space,,,,,0.0,11.0,11.0,11.0,,,,,1426.00746719999,,,,,,,,,,,,,,,,,,,,,,,,,,,,,,,,,,,,,,,,,,,,,,,1425.992222700006,1426.00746719999,1426.00746719999,1426.5076411000043,1426.5076411000043,1429.007536899997,1429.007536899997,1428.991817799979,space,1.0,0.6545395999855828,None,,,,,,,,,,,,,,,,,,,,,,,,nback32,1.0,2023-12-18_09h49.59.030,untitled,2023.2.3,60.08860665903411,2023-12-18 10h46.20.667931 -0500,
4.0,"[-0.2, 0.1]",None,,,,,0.0,12.0,12.0,12.0,,,,,1429.007536899997,,,,,,,,,,,,,,,,,,,,,,,,,,,,,,,,,,,,,,,,,,,,,,,1428.992698999995,1429.007536899997,1429.007536899997,1429.5074491999983,1429.5074491999983,1432.007400500006,1432.007400500006,1431.9917749000017,None,1.0,,,,,,,,,,,,,,,,,,,,,,,,,,nback32,1.0,2023-12-18_09h49.59.030,untitled,2023.2.3,60.08860665903411,2023-12-18 10h46.20.667931 -0500,
3.0,"[0, 0.2]",None,,,,,0.0,13.0,13.0,13.0,,,,,1432.007400500006,,,,,,,,,,,,,,,,,,,,,,,,,,,,,,,,,,,,,,,,,,,,,,,1431.9926144999918,1432.007400500006,1432.007400500006,1432.5074179999938,1432.5074179999938,1435.007520299987,1435.007520299987,1434.991984799999,None,1.0,,,,,,,,,,,,,,,,,,,,,,,,,,nback32,1.0,2023-12-18_09h49.59.030,untitled,2023.2.3,60.08860665903411,2023-12-18 10h46.20.667931 -0500,
3.0,"[0, 0.2]",space,,,,,0.0,14.0,14.0,14.0,,,,,1435.007520299987,,,,,,,,,,,,,,,,,,,,,,,,,,,,,,,,,,,,,,,,,,,,,,,1434.9928404999955,1435.007520299987,1435.007520299987,1435.5073118,1435.5073118,1438.0073829999892,1438.0073829999892,1437.9917314999911,space,1.0,0.7813078000035603,None,,,,,,,,,,,,,,,,,,,,,,,,nback32,1.0,2023-12-18_09h49.59.030,untitled,2023.2.3,60.08860665903411,2023-12-18 10h46.20.667931 -0500,
8.0,"[-0.2, -0.1]",None,,,,,0.0,15.0,15.0,15.0,,,,,1438.0073829999892,,,,,,,,,,,,,,,,,,,,,,,,,,,,,,,,,,,,,,,,,,,,,,,1437.992692300002,1438.0073829999892,1438.0073829999892,1438.507408799982,1438.507408799982,1441.0073683999944,1441.0073683999944,1440.9917239999922,None,1.0,,,,,,,,,,,,,,,,,,,,,,,,,,nback32,1.0,2023-12-18_09h49.59.030,untitled,2023.2.3,60.08860665903411,2023-12-18 10h46.20.667931 -0500,
1.0,"[-0.64, 0.4]",None,,,,,0.0,16.0,16.0,16.0,,,,,1441.0073683999944,,,,,,,,,,,,,,,,,,,,,,,,,,,,,,,,,,,,,,,,,,,,,,,1440.9926065999898,1441.0073683999944,1441.0073683999944,1441.5073666999815,1441.5073666999815,1444.007112799998,1444.007112799998,1443.9916015999916,None,1.0,,,,,,,,,,,,,,,,,,,,,,,,,,nback32,1.0,2023-12-18_09h49.59.030,untitled,2023.2.3,60.08860665903411,2023-12-18 10h46.20.667931 -0500,
2.0,"[0.64, 0.4]",None,,,,,0.0,17.0,17.0,17.0,,,,,1444.007112799998,,,,,,,,,,,,,,,,,,,,,,,,,,,,,,,,,,,,,,,,,,,,,,,1443.992387199978,1444.007112799998,1444.007112799998,1444.507167499978,1444.507167499978,1447.0071461999903,1447.0071461999903,1446.9912338999857,None,1.0,,,,,,,,,,,,,,,,,,,,,,,,,,nback32,1.0,2023-12-18_09h49.59.030,untitled,2023.2.3,60.08860665903411,2023-12-18 10h46.20.667931 -0500,
4.0,"[-0.2, 0.1]",None,,,,,0.0,18.0,18.0,18.0,,,,,1447.0071461999903,,,,,,,,,,,,,,,,,,,,,,,,,,,,,,,,,,,,,,,,,,,,,,,1446.9918826999783,1447.0071461999903,1447.0071461999903,1447.5069661999878,1447.5069661999878,1450.0070194999862,1450.0070194999862,1449.991324799979,None,1.0,,,,,,,,,,,,,,,,,,,,,,,,,,nback32,1.0,2023-12-18_09h49.59.030,untitled,2023.2.3,60.08860665903411,2023-12-18 10h46.20.667931 -0500,
4.0,"[-0.2, 0.1]",space,,,,,0.0,19.0,19.0,19.0,,,,,1450.0070194999862,,,,,,,,,,,,,,,,,,,,,,,,,,,,,,,,,,,,,,,,,,,,,,,1449.9919672999822,1450.0070194999862,1450.0070194999862,1450.507110299979,1450.507110299979,1453.0070110999804,1453.0070110999804,1452.9915127999848,space,1.0,0.7336323000199627,None,,,,,,,,,,,,,,,,,,,,,,,,nback32,1.0,2023-12-18_09h49.59.030,untitled,2023.2.3,60.08860665903411,2023-12-18 10h46.20.667931 -0500,
8.0,"[-0.2, -0.1]",None,,,,,0.0,20.0,20.0,20.0,,,,,1453.0070110999804,,,,,,,,,,,,,,,,,,,,,,,,,,,,,,,,,,,,,,,,,,,,,,,1452.992585400003,1453.0070110999804,1453.0070110999804,1453.506859199988,1453.506859199988,1456.007077199989,1456.007077199989,1455.9913168000055,None,1.0,,,,,,,,,,,,,,,,,,,,,,,,,,nback32,1.0,2023-12-18_09h49.59.030,untitled,2023.2.3,60.08860665903411,2023-12-18 10h46.20.667931 -0500,
5.0,"[0.2, 0.1]",None,,,,,0.0,21.0,21.0,21.0,,,,,1456.007077199989,,,,,,,,,,,,,,,,,,,,,,,,,,,,,,,,,,,,,,,,,,,,,,,1455.9920445999887,1456.007077199989,1456.007077199989,1456.5071640999813,1456.5071640999813,1459.00691549998,1459.00691549998,1458.9909778999863,None,1.0,,,,,,,,,,,,,,,,,,,,,,,,,,nback32,1.0,2023-12-18_09h49.59.030,untitled,2023.2.3,60.08860665903411,2023-12-18 10h46.20.667931 -0500,
5.0,"[0.2, 0.1]",space,,,,,0.0,22.0,22.0,22.0,,,,,1459.00691549998,,,,,,,,,,,,,,,,,,,,,,,,,,,,,,,,,,,,,,,,,,,,,,,1458.991625499999,1459.00691549998,1459.00691549998,1459.5067043000015,1459.5067043000015,1462.006749799999,1462.006749799999,1461.991325799987,space,1.0,0.606702499993844,None,,,,,,,,,,,,,,,,,,,,,,,,nback32,1.0,2023-12-18_09h49.59.030,untitled,2023.2.3,60.08860665903411,2023-12-18 10h46.20.667931 -0500,
1.0,"[-0.64, 0.4]",None,,,,,0.0,23.0,23.0,23.0,,,,,1462.006749799999,,,,,,,,,,,,,,,,,,,,,,,,,,,,,,,,,,,,,,,,,,,,,,,1461.992254599987,1462.006749799999,1462.006749799999,1462.506855399988,1462.506855399988,1465.0067623000068,1465.0067623000068,1464.991109299997,None,1.0,,,,,,,,,,,,,,,,,,,,,,,,,,nback32,1.0,2023-12-18_09h49.59.030,untitled,2023.2.3,60.08860665903411,2023-12-18 10h46.20.667931 -0500,
3.0,"[0, 0.2]",None,,,,,0.0,24.0,24.0,24.0,,,,,1465.0067623000068,,,,,,,,,,,,,,,,,,,,,,,,,,,,,,,,,,,,,,,,,,,,,,,1464.9918568999856,1465.0067623000068,1465.0067623000068,1465.5068699999829,1465.5068699999829,1468.0068491999991,1468.0068491999991,1467.9909342000028,None,1.0,,,,,,,,,,,,,,,,,,,,,,,,,,nback32,1.0,2023-12-18_09h49.59.030,untitled,2023.2.3,60.08860665903411,2023-12-18 10h46.20.667931 -0500,
6.0,"[-0.3, 0]",None,,,,,0.0,25.0,25.0,25.0,,,,,1468.0068491999991,,,,,,,,,,,,,,,,,,,,,,,,,,,,,,,,,,,,,,,,,,,,,,,1467.9915270000056,1468.0068491999991,1468.0068491999991,1468.506765500002,1468.506765500002,1471.0068598999933,1471.0068598999933,1470.991195999988,None,1.0,,,,,,,,,,,,,,,,,,,,,,,,,,nback32,1.0,2023-12-18_09h49.59.030,untitled,2023.2.3,60.08860665903411,2023-12-18 10h46.20.667931 -0500,
1.0,"[-0.64, 0.4]",None,,,,,0.0,26.0,26.0,26.0,,,,,1471.0068598999933,,,,,,,,,,,,,,,,,,,,,,,,,,,,,,,,,,,,,,,,,,,,,,,1470.9919787999825,1471.0068598999933,1471.0068598999933,1471.5068481999915,1471.5068481999915,1474.006755099981,1474.006755099981,1473.9911790000042,None,1.0,,,,,,,,,,,,,,,,,,,,,,,,,,nback32,1.0,2023-12-18_09h49.59.030,untitled,2023.2.3,60.08860665903411,2023-12-18 10h46.20.667931 -0500,
1.0,"[-0.64, 0.4]",space,,,,,0.0,27.0,27.0,27.0,,,,,1474.006755099981,,,,,,,,,,,,,,,,,,,,,,,,,,,,,,,,,,,,,,,,,,,,,,,1473.9919622000016,1474.006755099981,1474.006755099981,1474.506666500005,1474.506666500005,1477.0065082999936,1477.0065082999936,1476.990774899983,space,1.0,0.5636303999926895,None,,,,,,,,,,,,,,,,,,,,,,,,nback32,1.0,2023-12-18_09h49.59.030,untitled,2023.2.3,60.08860665903411,2023-12-18 10h46.20.667931 -0500,
1.0,"[-0.64, 0.4]",space,,,,,0.0,28.0,28.0,28.0,,,,,1477.0065082999936,,,,,,,,,,,,,,,,,,,,,,,,,,,,,,,,,,,,,,,,,,,,,,,1476.9915385000058,1477.0065082999936,1477.0065082999936,1477.5065447999805,1477.5065447999805,1480.0065864000062,1480.0065864000062,1479.990784900001,None,0.0,,,,,,,,,,,,,,,,,,,,,,,,,,nback32,1.0,2023-12-18_09h49.59.030,untitled,2023.2.3,60.08860665903411,2023-12-18 10h46.20.667931 -0500,
3.0,"[0, 0.2]",None,,,,,0.0,29.0,29.0,29.0,,,,,1480.0065864000062,,,,,,,,,,,,,,,,,,,,,,,,,,,,,,,,,,,,,,,,,,,,,,,1479.991465200001,1480.0065864000062,1480.0065864000062,1480.5066563999862,1480.5066563999862,1483.0065873999847,1483.0065873999847,1482.9907706999802,None,1.0,,,,,,,,,,,,,,,,,,,,,,,,,,nback32,1.0,2023-12-18_09h49.59.030,untitled,2023.2.3,60.08860665903411,2023-12-18 10h46.20.667931 -0500,
12.0,"[0.64, -0.4]",None,,,,,0.0,30.0,30.0,30.0,,,,,1483.0065873999847,,,,,,,,,,,,,,,,,,,,,,,,,,,,,,,,,,,,,,,,,,,,,,,1482.9915225000004,1483.0065873999847,1483.0065873999847,1483.5064804999856,1483.5064804999856,1486.0064061000012,1486.0064061000012,1485.990728899982,None,1.0,,,,,,,,,,,,,,,,,,,,,,,,,,nback32,1.0,2023-12-18_09h49.59.030,untitled,2023.2.3,60.08860665903411,2023-12-18 10h46.20.667931 -0500,
12.0,"[0.64, -0.4]",space,,,,,0.0,31.0,31.0,31.0,,,,,1486.0064061000012,,,,,,,,,,,,,,,,,,,,,,,,,,,,,,,,,,,,,,,,,,,,,,,1485.991389200004,1486.0064061000012,1486.0064061000012,1486.5064962999895,1486.5064962999895,1489.006322500005,1489.006322500005,1488.9903391999833,space,1.0,0.4332282000104897,None,,,,,,,,,,,,,,,,,,,,,,,,nback32,1.0,2023-12-18_09h49.59.030,untitled,2023.2.3,60.08860665903411,2023-12-18 10h46.20.667931 -0500,
2.0,"[0.64, 0.4]",None,,,,,0.0,32.0,32.0,32.0,,,,,1489.006322500005,,,,,,,,,,,,,,,,,,,,,,,,,,,,,,,,,,,,,,,,,,,,,,,1488.9909561999957,1489.006322500005,1489.006322500005,1489.5064753000042,1489.5064753000042,1492.0062698999827,1492.0062698999827,1491.9907824999827,None,1.0,,,,,,,,,,,,,,,,,,,,,,,,,,nback32,1.0,2023-12-18_09h49.59.030,untitled,2023.2.3,60.08860665903411,2023-12-18 10h46.20.667931 -0500,
1.0,"[-0.64, 0.4]",None,,,,,0.0,33.0,33.0,33.0,,,,,1492.0062698999827,,,,,,,,,,,,,,,,,,,,,,,,,,,,,,,,,,,,,,,,,,,,,,,1491.991615499981,1492.0062698999827,1492.0062698999827,1492.5064067000058,1492.5064067000058,1495.006346599985,1495.006346599985,1494.9908472999814,None,1.0,,,,,,,,,,,,,,,,,,,,,,,,,,nback32,1.0,2023-12-18_09h49.59.030,untitled,2023.2.3,60.08860665903411,2023-12-18 10h46.20.667931 -0500,
7.0,"[0.3, 0]",None,,,,,0.0,34.0,34.0,34.0,,,,,1495.006346599985,,,,,,,,,,,,,,,,,,,,,,,,,,,,,,,,,,,,,,,,,,,,,,,1494.9917438999985,1495.006346599985,1495.006346599985,1495.5064681999793,1495.5064681999793,1498.006334200007,1498.006334200007,1497.9907444999844,None,1.0,,,,,,,,,,,,,,,,,,,,,,,,,,nback32,1.0,2023-12-18_09h49.59.030,untitled,2023.2.3,60.08860665903411,2023-12-18 10h46.20.667931 -0500,
7.0,"[0.3, 0]",space,,,,,0.0,35.0,35.0,35.0,,,,,1498.006334200007,,,,,,,,,,,,,,,,,,,,,,,,,,,,,,,,,,,,,,,,,,,,,,,1497.991514099995,1498.006334200007,1498.006334200007,1498.5063419999788,1498.5063419999788,1501.006300899986,1501.006300899986,1500.9906811999972,space,1.0,0.5973887000000104,None,,,,,,,,,,,,,,,,,,,,,,,,nback32,1.0,2023-12-18_09h49.59.030,untitled,2023.2.3,60.08860665903411,2023-12-18 10h46.20.667931 -0500,
11.0,"[-0.64, -0.4]",None,,,,,0.0,36.0,36.0,36.0,,,,,1501.006300899986,,,,,,,,,,,,,,,,,,,,,,,,,,,,,,,,,,,,,,,,,,,,,,,1500.9916434999905,1501.006300899986,1501.006300899986,1501.5063500999822,1501.5063500999822,1504.0062717999972,1504.0062717999972,1503.9903406999947,None,1.0,,,,,,,,,,,,,,,,,,,,,,,,,,nback32,1.0,2023-12-18_09h49.59.030,untitled,2023.2.3,60.08860665903411,2023-12-18 10h46.20.667931 -0500,
2.0,"[0.64, 0.4]",None,,,,,0.0,37.0,37.0,37.0,,,,,1504.0062717999972,,,,,,,,,,,,,,,,,,,,,,,,,,,,,,,,,,,,,,,,,,,,,,,1503.9909697999828,1504.0062717999972,1504.0062717999972,1504.5060154999956,1504.5060154999956,1507.0060916999937,1507.0060916999937,1506.9905781999987,None,1.0,,,,,,,,,,,,,,,,,,,,,,,,,,nback32,1.0,2023-12-18_09h49.59.030,untitled,2023.2.3,60.08860665903411,2023-12-18 10h46.20.667931 -0500,
6.0,"[-0.3, 0]",None,,,,,0.0,38.0,38.0,38.0,,,,,1507.0060916999937,,,,,,,,,,,,,,,,,,,,,,,,,,,,,,,,,,,,,,,,,,,,,,,1506.9914631999854,1507.0060916999937,1507.0060916999937,1507.5060958999966,1507.5060958999966,1510.0060008,1510.0060008,1509.9908401999855,None,1.0,,,,,,,,,,,,,,,,,,,,,,,,,,nback32,1.0,2023-12-18_09h49.59.030,untitled,2023.2.3,60.08860665903411,2023-12-18 10h46.20.667931 -0500,
10.0,"[0, -0.2]",None,,,,,0.0,39.0,39.0,39.0,,,,,1510.0060008,,,,,,,,,,,,,,,,,,,,,,,,,,,,,,,,,,,,,,,,,,,,,,,1509.991615499981,1510.0060008,1510.0060008,1510.5061208999832,1510.5061208999832,1513.0061204999802,1513.0061204999802,1512.9899938000017,None,1.0,,,,,,,,,,,,,,,,,,,,,,,,,,nback32,1.0,2023-12-18_09h49.59.030,untitled,2023.2.3,60.08860665903411,2023-12-18 10h46.20.667931 -0500,
,,,,,,,,,,,,,,,,,,,,,,,,,,,,,,,,,,,,,,,,,,,,,,,,,,,,,,,,,,,,,,,,,,,,,,,,,,1512.9903887999826,1513.0061204999802,1513.0061204999802,1578.1579978999798,space,65.14958579998347,None,,,,,,,,,,,,,,,,,nback32,1.0,2023-12-18_09h49.59.030,untitled,2023.2.3,60.08860665903411,2023-12-18 10h46.20.667931 -0500,
,"[0.2, 0.1]",None,,,,,,,,,0.0,0.0,0.0,0.0,1579.1714395000015,,,,,,,,,,,,,,,,,,,,,,,,1578.1580563999887,1578.171689699986,1579.1714395000015,1579.1555981999843,,,,,,,,,,,,,,,,,,,,,,,,,,,,,,,,,,,,,,,1579.1644999999844,1579.1714395000015,1579.1714395000015,1579.6715062999865,1579.6715062999865,1582.1713896,1582.1713896,1582.1557933999866,None,1.0,,,,,,,nback32,1.0,2023-12-18_09h49.59.030,untitled,2023.2.3,60.08860665903411,2023-12-18 10h46.20.667931 -0500,
,"[0.64, 0.4]",None,,,,,,,,,0.0,1.0,1.0,1.0,1582.1713896,,,,,,,,,,,,,,,,,,,,,,,,,,,,,,,,,,,,,,,,,,,,,,,,,,,,,,,,,,,,,,,,,,1582.1566329000052,1582.1713896,1582.1713896,1582.6714863999805,1582.6714863999805,1585.171486199979,1585.171486199979,1585.1555447999854,None,1.0,,,,,,,nback32,1.0,2023-12-18_09h49.59.030,untitled,2023.2.3,60.08860665903411,2023-12-18 10h46.20.667931 -0500,
,"[-0.3, 0]",None,,,,,,,,,0.0,2.0,2.0,2.0,1585.171486199979,,,,,,,,,,,,,,,,,,,,,,,,,,,,,,,,,,,,,,,,,,,,,,,,,,,,,,,,,,,,,,,,,,1585.1561911999888,1585.171486199979,1585.171486199979,1585.6714643999876,1585.6714643999876,1588.1713405000046,1588.1713405000046,1588.1551688000036,None,1.0,,,,,,,nback32,1.0,2023-12-18_09h49.59.030,untitled,2023.2.3,60.08860665903411,2023-12-18 10h46.20.667931 -0500,
,"[0.2, -0.1]",None,,,,,,,,,0.0,3.0,3.0,3.0,1588.1713405000046,,,,,,,,,,,,,,,,,,,,,,,,,,,,,,,,,,,,,,,,,,,,,,,,,,,,,,,,,,,,,,,,,,1588.1555474000052,1588.1713405000046,1588.1713405000046,1588.6714826999814,1588.6714826999814,1591.1711675999975,1591.1711675999975,1591.1552842999808,None,1.0,,,,,,,nback32,1.0,2023-12-18_09h49.59.030,untitled,2023.2.3,60.08860665903411,2023-12-18 10h46.20.667931 -0500,
,"[0, 0.2]",None,,,,,,,,,0.0,4.0,4.0,4.0,1591.1711675999975,,,,,,,,,,,,,,,,,,,,,,,,,,,,,,,,,,,,,,,,,,,,,,,,,,,,,,,,,,,,,,,,,,1591.1558509999886,1591.1711675999975,1591.1711675999975,1591.671302600007,1591.671302600007,1594.1712234999868,1594.1712234999868,1594.1553765999852,None,1.0,,,,,,,nback32,1.0,2023-12-18_09h49.59.030,untitled,2023.2.3,60.08860665903411,2023-12-18 10h46.20.667931 -0500,
,"[0.2, -0.1]",space,,,,,,,,,0.0,5.0,5.0,5.0,1594.1712234999868,,,,,,,,,,,,,,,,,,,,,,,,,,,,,,,,,,,,,,,,,,,,,,,,,,,,,,,,,,,,,,,,,,1594.1559708999994,1594.1712234999868,1594.1712234999868,1594.6713845999911,1594.6713845999911,1597.1712105000042,1597.1712105000042,1597.1555260999885,None,0.0,,,,,,,nback32,1.0,2023-12-18_09h49.59.030,untitled,2023.2.3,60.08860665903411,2023-12-18 10h46.20.667931 -0500,
,"[0, -0.2]",None,,,,,,,,,0.0,6.0,6.0,6.0,1597.1712105000042,,,,,,,,,,,,,,,,,,,,,,,,,,,,,,,,,,,,,,,,,,,,,,,,,,,,,,,,,,,,,,,,,,1597.1563744999876,1597.1712105000042,1597.1712105000042,1597.6711684000038,1597.6711684000038,1600.1711811999849,1600.1711811999849,1600.1551671999914,None,1.0,,,,,,,nback32,1.0,2023-12-18_09h49.59.030,untitled,2023.2.3,60.08860665903411,2023-12-18 10h46.20.667931 -0500,
,"[0.64, -0.4]",None,,,,,,,,,0.0,7.0,7.0,7.0,1600.1711811999849,,,,,,,,,,,,,,,,,,,,,,,,,,,,,,,,,,,,,,,,,,,,,,,,,,,,,,,,,,,,,,,,,,1600.1558135999949,1600.1711811999849,1600.1711811999849,1600.6711954000057,1600.6711954000057,1603.171137600002,1603.171137600002,1603.1549354000017,None,1.0,,,,,,,nback32,1.0,2023-12-18_09h49.59.030,untitled,2023.2.3,60.08860665903411,2023-12-18 10h46.20.667931 -0500,
,"[0.3, 0]",None,,,,,,,,,0.0,8.0,8.0,8.0,1603.171137600002,,,,,,,,,,,,,,,,,,,,,,,,,,,,,,,,,,,,,,,,,,,,,,,,,,,,,,,,,,,,,,,,,,1603.1555981999843,1603.171137600002,1603.171137600002,1603.671106499998,1603.671106499998,1606.1710598999923,1606.1710598999923,1606.1554107999837,None,1.0,,,,,,,nback32,1.0,2023-12-18_09h49.59.030,untitled,2023.2.3,60.08860665903411,2023-12-18 10h46.20.667931 -0500,
,"[0.64, -0.4]",space,,,,,,,,,0.0,9.0,9.0,9.0,1606.1710598999923,,,,,,,,,,,,,,,,,,,,,,,,,,,,,,,,,,,,,,,,,,,,,,,,,,,,,,,,,,,,,,,,,,1606.156222599995,1606.1710598999923,1606.1710598999923,1606.6709859999828,1606.6709859999828,1609.170926699997,1609.170926699997,1609.1548277999973,space,1.0,1.5641176000062842,None,,,,,nback32,1.0,2023-12-18_09h49.59.030,untitled,2023.2.3,60.08860665903411,2023-12-18 10h46.20.667931 -0500,
,"[-0.64, 0.4]",None,,,,,,,,,0.0,10.0,10.0,10.0,1609.170926699997,,,,,,,,,,,,,,,,,,,,,,,,,,,,,,,,,,,,,,,,,,,,,,,,,,,,,,,,,,,,,,,,,,1609.1556710999866,1609.170926699997,1609.170926699997,1609.6709596999865,1609.6709596999865,1612.17106719999,1612.17106719999,1612.1550537000005,None,1.0,,,,,,,nback32,1.0,2023-12-18_09h49.59.030,untitled,2023.2.3,60.08860665903411,2023-12-18 10h46.20.667931 -0500,
,"[0.2, 0.1]",None,,,,,,,,,0.0,11.0,11.0,11.0,1612.17106719999,,,,,,,,,,,,,,,,,,,,,,,,,,,,,,,,,,,,,,,,,,,,,,,,,,,,,,,,,,,,,,,,,,1612.1557132999878,1612.17106719999,1612.17106719999,1612.6710822999885,1612.6710822999885,1615.1708956999937,1615.1708956999937,1615.1549649999945,None,1.0,,,,,,,nback32,1.0,2023-12-18_09h49.59.030,untitled,2023.2.3,60.08860665903411,2023-12-18 10h46.20.667931 -0500,
,"[0.3, 0]",None,,,,,,,,,0.0,12.0,12.0,12.0,1615.1708956999937,,,,,,,,,,,,,,,,,,,,,,,,,,,,,,,,,,,,,,,,,,,,,,,,,,,,,,,,,,,,,,,,,,1615.155584399996,1615.1708956999937,1615.1708956999937,1615.6711573999785,1615.6711573999785,1618.1707369999783,1618.1707369999783,1618.1552578999836,None,1.0,,,,,,,nback32,1.0,2023-12-18_09h49.59.030,untitled,2023.2.3,60.08860665903411,2023-12-18 10h46.20.667931 -0500,
,"[0.2, 0.1]",space,,,,,,,,,0.0,13.0,13.0,13.0,1618.1707369999783,,,,,,,,,,,,,,,,,,,,,,,,,,,,,,,,,,,,,,,,,,,,,,,,,,,,,,,,,,,,,,,,,,1618.1560137000051,1618.1707369999783,1618.1707369999783,1618.671040599991,1618.671040599991,1621.170843,1621.170843,1621.155125899997,None,0.0,,,,,,,nback32,1.0,2023-12-18_09h49.59.030,untitled,2023.2.3,60.08860665903411,2023-12-18 10h46.20.667931 -0500,
,"[-0.3, 0]",None,,,,,,,,,0.0,14.0,14.0,14.0,1621.170843,,,,,,,,,,,,,,,,,,,,,,,,,,,,,,,,,,,,,,,,,,,,,,,,,,,,,,,,,,,,,,,,,,1621.1558998999826,1621.170843,1621.170843,1621.6707362000016,1621.6707362000016,1624.1707998999918,1624.1707998999918,1624.1550312000036,None,1.0,,,,,,,nback32,1.0,2023-12-18_09h49.59.030,untitled,2023.2.3,60.08860665903411,2023-12-18 10h46.20.667931 -0500,
,"[0, 0.2]",None,,,,,,,,,0.0,15.0,15.0,15.0,1624.1707998999918,,,,,,,,,,,,,,,,,,,,,,,,,,,,,,,,,,,,,,,,,,,,,,,,,,,,,,,,,,,,,,,,,,1624.1557770999789,1624.1707998999918,1624.1707998999918,1624.6707701999983,1624.6707701999983,1627.170848299982,1627.170848299982,1627.1549968000036,None,1.0,,,,,,,nback32,1.0,2023-12-18_09h49.59.030,untitled,2023.2.3,60.08860665903411,2023-12-18 10h46.20.667931 -0500,
,"[-0.3, 0]",space,,,,,,,,,0.0,16.0,16.0,16.0,1627.170848299982,,,,,,,,,,,,,,,,,,,,,,,,,,,,,,,,,,,,,,,,,,,,,,,,,,,,,,,,,,,,,,,,,,1627.1556917999987,1627.170848299982,1627.170848299982,1627.6708331999837,1627.6708331999837,1630.1708380999917,1630.1708380999917,1630.1548352999962,space,1.0,0.8952172999852337,None,,,,,nback32,1.0,2023-12-18_09h49.59.030,untitled,2023.2.3,60.08860665903411,2023-12-18 10h46.20.667931 -0500,
,"[-0.64, -0.4]",None,,,,,,,,,0.0,17.0,17.0,17.0,1630.1708380999917,,,,,,,,,,,,,,,,,,,,,,,,,,,,,,,,,,,,,,,,,,,,,,,,,,,,,,,,,,,,,,,,,,1630.155680900003,1630.1708380999917,1630.1708380999917,1630.670577199984,1630.670577199984,1633.1704707999888,1633.1704707999888,1633.1546246999933,None,1.0,,,,,,,nback32,1.0,2023-12-18_09h49.59.030,untitled,2023.2.3,60.08860665903411,2023-12-18 10h46.20.667931 -0500,
,"[-0.2, -0.1]",None,,,,,,,,,0.0,18.0,18.0,18.0,1633.1704707999888,,,,,,,,,,,,,,,,,,,,,,,,,,,,,,,,,,,,,,,,,,,,,,,,,,,,,,,,,,,,,,,,,,1633.1552355999884,1633.1704707999888,1633.1704707999888,1633.6706057999982,1633.6706057999982,1636.1705292999975,1636.1705292999975,1636.1546655999846,None,1.0,,,,,,,nback32,1.0,2023-12-18_09h49.59.030,untitled,2023.2.3,60.08860665903411,2023-12-18 10h46.20.667931 -0500,
,"[0.2, -0.1]",None,,,,,,,,,0.0,19.0,19.0,19.0,1636.1705292999975,,,,,,,,,,,,,,,,,,,,,,,,,,,,,,,,,,,,,,,,,,,,,,,,,,,,,,,,,,,,,,,,,,1636.1554316999973,1636.1705292999975,1636.1705292999975,1636.670679200004,1636.670679200004,1639.1705724000058,1639.1705724000058,1639.1546284999931,None,1.0,,,,,,,nback32,1.0,2023-12-18_09h49.59.030,untitled,2023.2.3,60.08860665903411,2023-12-18 10h46.20.667931 -0500,
,"[0.2, -0.1]",None,,,,,,,,,0.0,20.0,20.0,20.0,1639.1705724000058,,,,,,,,,,,,,,,,,,,,,,,,,,,,,,,,,,,,,,,,,,,,,,,,,,,,,,,,,,,,,,,,,,1639.155276399979,1639.1705724000058,1639.1705724000058,1639.6705853999883,1639.6705853999883,1642.1703809000028,1642.1703809000028,1642.1546760000056,space,0.0,1.1632204999914393,None,,,,,nback32,1.0,2023-12-18_09h49.59.030,untitled,2023.2.3,60.08860665903411,2023-12-18 10h46.20.667931 -0500,
,"[-0.64, 0.4]",None,,,,,,,,,0.0,21.0,21.0,21.0,1642.1703809000028,,,,,,,,,,,,,,,,,,,,,,,,,,,,,,,,,,,,,,,,,,,,,,,,,,,,,,,,,,,,,,,,,,1642.155465799995,1642.1703809000028,1642.1703809000028,1642.6705211999945,1642.6705211999945,1645.1703418999969,1645.1703418999969,1645.1545201999834,None,1.0,,,,,,,nback32,1.0,2023-12-18_09h49.59.030,untitled,2023.2.3,60.08860665903411,2023-12-18 10h46.20.667931 -0500,
,"[0, 0.2]",None,,,,,,,,,0.0,22.0,22.0,22.0,1645.1703418999969,,,,,,,,,,,,,,,,,,,,,,,,,,,,,,,,,,,,,,,,,,,,,,,,,,,,,,,,,,,,,,,,,,1645.1551762000015,1645.1703418999969,1645.1703418999969,1645.670429699996,1645.670429699996,1648.1703770000022,1648.1703770000022,1648.1543661000032,None,1.0,,,,,,,nback32,1.0,2023-12-18_09h49.59.030,untitled,2023.2.3,60.08860665903411,2023-12-18 10h46.20.667931 -0500,
,"[0.64, -0.4]",None,,,,,,,,,0.0,23.0,23.0,23.0,1648.1703770000022,,,,,,,,,,,,,,,,,,,,,,,,,,,,,,,,,,,,,,,,,,,,,,,,,,,,,,,,,,,,,,,,,,1648.155046800006,1648.1703770000022,1648.1703770000022,1648.6706417999812,1648.6706417999812,1651.170349699998,1651.170349699998,1651.1548363000038,None,1.0,,,,,,,nback32,1.0,2023-12-18_09h49.59.030,untitled,2023.2.3,60.08860665903411,2023-12-18 10h46.20.667931 -0500,
,"[0, 0.2]",space,,,,,,,,,0.0,24.0,24.0,24.0,1651.170349699998,,,,,,,,,,,,,,,,,,,,,,,,,,,,,,,,,,,,,,,,,,,,,,,,,,,,,,,,,,,,,,,,,,1651.1556719999935,1651.170349699998,1651.170349699998,1651.6703747999854,1651.6703747999854,1654.1702923999983,1654.1702923999983,1654.1544827999896,None,0.0,,,,,,,nback32,1.0,2023-12-18_09h49.59.030,untitled,2023.2.3,60.08860665903411,2023-12-18 10h46.20.667931 -0500,
,"[-0.2, 0.1]",None,,,,,,,,,0.0,25.0,25.0,25.0,1654.1702923999983,,,,,,,,,,,,,,,,,,,,,,,,,,,,,,,,,,,,,,,,,,,,,,,,,,,,,,,,,,,,,,,,,,1654.1552020999952,1654.1702923999983,1654.1702923999983,1654.6701989999856,1654.6701989999856,1657.170113,1657.170113,1657.154624799994,None,1.0,,,,,,,nback32,1.0,2023-12-18_09h49.59.030,untitled,2023.2.3,60.08860665903411,2023-12-18 10h46.20.667931 -0500,
,"[0.3, 0]",None,,,,,,,,,0.0,26.0,26.0,26.0,1657.170113,,,,,,,,,,,,,,,,,,,,,,,,,,,,,,,,,,,,,,,,,,,,,,,,,,,,,,,,,,,,,,,,,,1657.1554268999898,1657.170113,1657.170113,1657.670331100002,1657.670331100002,1660.170332299982,1660.170332299982,1660.1543680999894,None,1.0,,,,,,,nback32,1.0,2023-12-18_09h49.59.030,untitled,2023.2.3,60.08860665903411,2023-12-18 10h46.20.667931 -0500,
,"[-0.2, 0.1]",space,,,,,,,,,0.0,27.0,27.0,27.0,1660.170332299982,,,,,,,,,,,,,,,,,,,,,,,,,,,,,,,,,,,,,,,,,,,,,,,,,,,,,,,,,,,,,,,,,,1660.1551894999866,1660.170332299982,1660.170332299982,1660.66998169999,1660.66998169999,1663.170187599986,1663.170187599986,1663.1543280000042,space,1.0,0.5625327999878209,None,,,,,nback32,1.0,2023-12-18_09h49.59.030,untitled,2023.2.3,60.08860665903411,2023-12-18 10h46.20.667931 -0500,
,"[-0.2, 0.1]",None,,,,,,,,,0.0,28.0,28.0,28.0,1663.170187599986,,,,,,,,,,,,,,,,,,,,,,,,,,,,,,,,,,,,,,,,,,,,,,,,,,,,,,,,,,,,,,,,,,1663.1551313999807,1663.170187599986,1663.170187599986,1663.6701287000033,1663.6701287000033,1666.1701132000017,1666.1701132000017,1666.1539877000032,None,1.0,,,,,,,nback32,1.0,2023-12-18_09h49.59.030,untitled,2023.2.3,60.08860665903411,2023-12-18 10h46.20.667931 -0500,
,"[0.2, 0.1]",None,,,,,,,,,0.0,29.0,29.0,29.0,1666.1701132000017,,,,,,,,,,,,,,,,,,,,,,,,,,,,,,,,,,,,,,,,,,,,,,,,,,,,,,,,,,,,,,,,,,1666.1546122999862,1666.1701132000017,1666.1701132000017,1666.6699825999967,1666.6699825999967,1669.1699703999911,1669.1699703999911,1669.1539145999996,None,1.0,,,,,,,nback32,1.0,2023-12-18_09h49.59.030,untitled,2023.2.3,60.08860665903411,2023-12-18 10h46.20.667931 -0500,
,"[-0.64, -0.4]",None,,,,,,,,,0.0,30.0,30.0,30.0,1669.1699703999911,,,,,,,,,,,,,,,,,,,,,,,,,,,,,,,,,,,,,,,,,,,,,,,,,,,,,,,,,,,,,,,,,,1669.154554799985,1669.1699703999911,1669.1699703999911,1669.6699700999889,1669.6699700999889,1672.1699391999864,1672.1699391999864,1672.1539388999809,None,1.0,,,,,,,nback32,1.0,2023-12-18_09h49.59.030,untitled,2023.2.3,60.08860665903411,2023-12-18 10h46.20.667931 -0500,
,"[0, -0.2]",None,,,,,,,,,0.0,31.0,31.0,31.0,1672.1699391999864,,,,,,,,,,,,,,,,,,,,,,,,,,,,,,,,,,,,,,,,,,,,,,,,,,,,,,,,,,,,,,,,,,1672.1545581999817,1672.1699391999864,1672.1699391999864,1672.6700207999966,1672.6700207999966,1675.1700994999846,1675.1700994999846,1675.1543461999972,None,1.0,,,,,,,nback32,1.0,2023-12-18_09h49.59.030,untitled,2023.2.3,60.08860665903411,2023-12-18 10h46.20.667931 -0500,
,"[-0.64, -0.4]",space,,,,,,,,,0.0,32.0,32.0,32.0,1675.1700994999846,,,,,,,,,,,,,,,,,,,,,,,,,,,,,,,,,,,,,,,,,,,,,,,,,,,,,,,,,,,,,,,,,,1675.1551576000056,1675.1700994999846,1675.1700994999846,1675.6699653999822,1675.6699653999822,1678.169809199986,1678.169809199986,1678.1540058999965,space,1.0,0.4967732999939471,None,,,,,nback32,1.0,2023-12-18_09h49.59.030,untitled,2023.2.3,60.08860665903411,2023-12-18 10h46.20.667931 -0500,
,"[0.64, 0.4]",None,,,,,,,,,0.0,33.0,33.0,33.0,1678.169809199986,,,,,,,,,,,,,,,,,,,,,,,,,,,,,,,,,,,,,,,,,,,,,,,,,,,,,,,,,,,,,,,,,,1678.1548296999829,1678.169809199986,1678.169809199986,1678.669893299986,1678.669893299986,1681.1698973999885,1681.1698973999885,1681.1540907000017,None,1.0,,,,,,,nback32,1.0,2023-12-18_09h49.59.030,untitled,2023.2.3,60.08860665903411,2023-12-18 10h46.20.667931 -0500,
,"[-0.3, 0]",None,,,,,,,,,0.0,34.0,34.0,34.0,1681.1698973999885,,,,,,,,,,,,,,,,,,,,,,,,,,,,,,,,,,,,,,,,,,,,,,,,,,,,,,,,,,,,,,,,,,1681.1548859000031,1681.1698973999885,1681.1698973999885,1681.669766100007,1681.669766100007,1684.1696941999835,1684.1696941999835,1684.153763899987,None,1.0,,,,,,,nback32,1.0,2023-12-18_09h49.59.030,untitled,2023.2.3,60.08860665903411,2023-12-18 10h46.20.667931 -0500,
,"[0.3, 0]",None,,,,,,,,,0.0,35.0,35.0,35.0,1684.1696941999835,,,,,,,,,,,,,,,,,,,,,,,,,,,,,,,,,,,,,,,,,,,,,,,,,,,,,,,,,,,,,,,,,,1684.1543161000009,1684.1696941999835,1684.1696941999835,1684.669788500003,1684.669788500003,1687.1695547999989,1687.1695547999989,1687.1536752999818,None,1.0,,,,,,,nback32,1.0,2023-12-18_09h49.59.030,untitled,2023.2.3,60.08860665903411,2023-12-18 10h46.20.667931 -0500,
,"[-0.3, 0]",space,,,,,,,,,0.0,36.0,36.0,36.0,1687.1695547999989,,,,,,,,,,,,,,,,,,,,,,,,,,,,,,,,,,,,,,,,,,,,,,,,,,,,,,,,,,,,,,,,,,1687.1542997999932,1687.1695547999989,1687.1695547999989,1687.6697336999932,1687.6697336999932,1690.1695517000044,1690.1695517000044,1690.1536406999803,None,0.0,,,,,,,nback32,1.0,2023-12-18_09h49.59.030,untitled,2023.2.3,60.08860665903411,2023-12-18 10h46.20.667931 -0500,
,"[0, -0.2]",None,,,,,,,,,0.0,37.0,37.0,37.0,1690.1695517000044,,,,,,,,,,,,,,,,,,,,,,,,,,,,,,,,,,,,,,,,,,,,,,,,,,,,,,,,,,,,,,,,,,1690.1542523999815,1690.1695517000044,1690.1695517000044,1690.6697734000045,1690.6697734000045,1693.1697290999873,1693.1697290999873,1693.1539389999816,None,1.0,,,,,,,nback32,1.0,2023-12-18_09h49.59.030,untitled,2023.2.3,60.08860665903411,2023-12-18 10h46.20.667931 -0500,
,"[0.3, 0]",None,,,,,,,,,0.0,38.0,38.0,38.0,1693.1697290999873,,,,,,,,,,,,,,,,,,,,,,,,,,,,,,,,,,,,,,,,,,,,,,,,,,,,,,,,,,,,,,,,,,1693.1547136000008,1693.1697290999873,1693.1697290999873,1693.6695889999974,1693.6695889999974,1696.1695692999929,1696.1695692999929,1696.1538308000015,None,1.0,,,,,,,nback32,1.0,2023-12-18_09h49.59.030,untitled,2023.2.3,60.08860665903411,2023-12-18 10h46.20.667931 -0500,
,"[0.2, 0.1]",None,,,,,,,,,0.0,39.0,39.0,39.0,1696.1695692999929,,,,,,,,,,,,,,,,,,,,,,,,,,,,,,,,,,,,,,,,,,,,,,,,,,,,,,,,,,,,,,,,,,1696.1546559999988,1696.1695692999929,1696.1695692999929,1696.6695701999995,1696.6695701999995,1699.1696477999794,1699.1696477999794,1699.1538334999932,None,1.0,,,,,,,nback32,1.0,2023-12-18_09h49.59.030,untitled,2023.2.3,60.08860665903411,2023-12-18 10h46.20.667931 -0500,
,,,,,,,,,,,,,,,,,,,,,,,,,,,,,,,,,,,,,,,,,,,,,,,,,,,,,,,,,,,,,,,,,,,,,,,,,,,,,,,,,,,,,,,,,,,,,1699.154407199996,1699.1696477999794,1702.1694951999816,1702.1536388999957,,,,,,,,
