square,location,corrAns,trials_0.thisRepN,trials_0.thisTrialN,trials_0.thisN,trials_0.thisIndex,trials_1.thisRepN,trials_1.thisTrialN,trials_1.thisN,trials_1.thisIndex,trials_2.thisRepN,trials_2.thisTrialN,trials_2.thisN,trials_2.thisIndex,thisRow.t,notes,Instructions.started,instructions.started,key_resp.started,inst_sq11.started,Instructions.stopped,key_resp.keys,key_resp.rt,key_resp.duration,All.started,sq_1.started,sq_2.started,sq_3.started,sq_4.started,sq_5.started,sq_6.started,sq_7.started,sq_8.started,sq_9.started,sq_10.started,sq_11.started,sq_12.started,All.stopped,Fixation.started,fixation_3.started,fixation_3.stopped,Fixation.stopped,N_back_0_Trial.started,target_square_0.started,response_0.started,fixation_0.started,target_square_0.stopped,fixation_0.stopped,response_0.stopped,N_back_0_Trial.stopped,response_0.keys,response_0.corr,response_0.rt,response_0.duration,Instructions_1.started,instructions_1.started,key_resp_1.started,Instructions_1.stopped,key_resp_1.keys,key_resp_1.rt,key_resp_1.duration,N_back_1_Trial.started,target_square_1.started,response_1.started,target_square_1.stopped,fixation_1.started,fixation_1.stopped,response_1.stopped,N_back_1_Trial.stopped,response_1.keys,response_1.corr,response_1.rt,response_1.duration,Instructions_2.started,instructions_2.started,key_resp_2.started,Instructions_2.stopped,key_resp_2.keys,key_resp_2.rt,key_resp_2.duration,N_back_2_trials.started,target_square_2.started,response_2.started,target_square_2.stopped,fixation_2.started,fixation_2.stopped,response_2.stopped,N_back_2_trials.stopped,response_2.keys,response_2.corr,response_2.rt,response_2.duration,End.started,thank_you.started,thank_you.stopped,End.stopped,participant,session,date,expName,psychopyVersion,frameRate,expStart,
,,,,,,,,,,,,,,,,,0.0013664999860338867,0.003777400008402765,0.003777400008402765,0.003777400008402765,1599.4918404000346,space,1599.4794193000416,None,,,,,,,,,,,,,,,,,,,,,,,,,,,,,,,,,,,,,,,,,,,,,,,,,,,,,,,,,,,,,,,,,,,,,,,,,nback36,001,2023-12-18_18h19.26.486,untitled,2023.2.3,59.90298113221297,2023-12-18 18h34.21.711158 -0500,
6,"[-0.3, 0]",None,0,0,0,0,,,,,,,,,1601.5081757000298,,,,,,,,,,1599.491882000002,1599.5071676999796,1599.5071676999796,1599.5071676999796,1599.5071676999796,1599.5071676999796,1599.5071676999796,1599.5071676999796,1599.5071676999796,1599.5071676999796,1599.5071676999796,1599.5071676999796,1599.5071676999796,1600.4908559999894,1600.4908703999827,1600.507053599984,1601.5081757000298,1601.4916114999796,1601.5062474000151,1601.5081757000298,1601.5081757000298,1601.9906470000278,1602.0073279999779,1604.4905772000202,1604.5070747000282,1604.491173700022,None,1,,,,,,,,,,,,,,,,,,,,,,,,,,,,,,,,,,,,,,,,,,,,,nback36,001,2023-12-18_18h19.26.486,untitled,2023.2.3,59.90298113221297,2023-12-18 18h34.21.711158 -0500,
10,"[0, -0.2]",None,0,1,1,1,,,,,,,,,1604.5070747000282,,,,,,,,,,,,,,,,,,,,,,,,,,,,1604.4918555000331,1604.5070747000282,1604.5070747000282,1604.9904475000221,1605.007220999978,1607.4906272999942,1607.507166400028,1607.4915576000349,None,1,,,,,,,,,,,,,,,,,,,,,,,,,,,,,,,,,,,,,,,,,,,,,nback36,001,2023-12-18_18h19.26.486,untitled,2023.2.3,59.90298113221297,2023-12-18 18h34.21.711158 -0500,
11,"[-0.64, -0.4]",space,0,2,2,2,,,,,,,,,1607.507166400028,,,,,,,,,,,,,,,,,,,,,,,,,,,,1607.4923212000285,1607.507166400028,1607.507166400028,1607.99061909999,1608.00709129998,1610.4904146000044,1610.507104600023,1610.491203600017,space,1,0.5575179000152275,None,,,,,,,,,,,,,,,,,,,,,,,,,,,,,,,,,,,,,,,,,,,nback36,001,2023-12-18_18h19.26.486,untitled,2023.2.3,59.90298113221297,2023-12-18 18h34.21.711158 -0500,
12,"[0.64, -0.4]",None,0,3,3,3,,,,,,,,,1610.507104600023,,,,,,,,,,,,,,,,,,,,,,,,,,,,1610.4924777999986,1610.507104600023,1610.507104600023,1610.9903847000096,1611.0072399000055,1613.490527499991,1613.5069711999968,1613.4914972999832,None,1,,,,,,,,,,,,,,,,,,,,,,,,,,,,,,,,,,,,,,,,,,,,,nback36,001,2023-12-18_18h19.26.486,untitled,2023.2.3,59.90298113221297,2023-12-18 18h34.21.711158 -0500,
1,"[-0.64, 0.4]",None,0,4,4,4,,,,,,,,,1613.5069711999968,,,,,,,,,,,,,,,,,,,,,,,,,,,,1613.4922406999976,1613.5069711999968,1613.5069711999968,1613.9902432999806,1614.007076399983,1616.4903735999833,1616.5071319999988,1616.4914142999914,None,1,,,,,,,,,,,,,,,,,,,,,,,,,,,,,,,,,,,,,,,,,,,,,nback36,001,2023-12-18_18h19.26.486,untitled,2023.2.3,59.90298113221297,2023-12-18 18h34.21.711158 -0500,
1,"[-0.64, 0.4]",None,0,5,5,5,,,,,,,,,1616.5071319999988,,,,,,,,,,,,,,,,,,,,,,,,,,,,1616.4922625999898,1616.5071319999988,1616.5071319999988,1616.9902191000292,1617.0068745000171,1619.4903480000212,1619.5071702999994,1619.4913580000284,None,1,,,,,,,,,,,,,,,,,,,,,,,,,,,,,,,,,,,,,,,,,,,,,nback36,001,2023-12-18_18h19.26.486,untitled,2023.2.3,59.90298113221297,2023-12-18 18h34.21.711158 -0500,
4,"[-0.2, 0.1]",None,0,6,6,6,,,,,,,,,1619.5071702999994,,,,,,,,,,,,,,,,,,,,,,,,,,,,1619.4921703999862,1619.5071702999994,1619.5071702999994,1619.9903899999917,1620.0069381999783,1622.490199199994,1622.5067590000108,1622.4909812000114,None,1,,,,,,,,,,,,,,,,,,,,,,,,,,,,,,,,,,,,,,,,,,,,,nback36,001,2023-12-18_18h19.26.486,untitled,2023.2.3,59.90298113221297,2023-12-18 18h34.21.711158 -0500,
5,"[0.2, 0.1]",None,0,7,7,7,,,,,,,,,1622.5067590000108,,,,,,,,,,,,,,,,,,,,,,,,,,,,1622.491682199994,1622.5067590000108,1622.5067590000108,1622.9901347000268,1623.0068851999822,1625.4902115000295,1625.5068980000215,1625.4911231999868,None,1,,,,,,,,,,,,,,,,,,,,,,,,,,,,,,,,,,,,,,,,,,,,,nback36,001,2023-12-18_18h19.26.486,untitled,2023.2.3,59.90298113221297,2023-12-18 18h34.21.711158 -0500,
11,"[-0.64, -0.4]",space,0,8,8,8,,,,,,,,,1625.5068980000215,,,,,,,,,,,,,,,,,,,,,,,,,,,,1625.491825199977,1625.5068980000215,1625.5068980000215,1625.9901073999936,1626.0067906000186,1628.4901560000144,1628.5068594000186,1628.491114799981,space,1,0.46218460000818595,None,,,,,,,,,,,,,,,,,,,,,,,,,,,,,,,,,,,,,,,,,,,nback36,001,2023-12-18_18h19.26.486,untitled,2023.2.3,59.90298113221297,2023-12-18 18h34.21.711158 -0500,
9,"[0.2, -0.1]",None,0,9,9,9,,,,,,,,,1628.5068594000186,,,,,,,,,,,,,,,,,,,,,,,,,,,,1628.4920229000272,1628.5068594000186,1628.5068594000186,1628.9900014000013,1629.0066398000345,1631.4899996999884,1631.5065858000307,1631.4909204000141,None,1,,,,,,,,,,,,,,,,,,,,,,,,,,,,,,,,,,,,,,,,,,,,,nback36,001,2023-12-18_18h19.26.486,untitled,2023.2.3,59.90298113221297,2023-12-18 18h34.21.711158 -0500,
8,"[-0.2, -0.1]",None,0,10,10,10,,,,,,,,,1631.5065858000307,,,,,,,,,,,,,,,,,,,,,,,,,,,,1631.4915694000083,1631.5065858000307,1631.5065858000307,1631.9900833999855,1632.0068184999982,1634.4901410000166,1634.5067605000222,1634.4911036000121,None,1,,,,,,,,,,,,,,,,,,,,,,,,,,,,,,,,,,,,,,,,,,,,,nback36,001,2023-12-18_18h19.26.486,untitled,2023.2.3,59.90298113221297,2023-12-18 18h34.21.711158 -0500,
9,"[0.2, -0.1]",None,0,11,11,11,,,,,,,,,1634.5067605000222,,,,,,,,,,,,,,,,,,,,,,,,,,,,1634.4918516000034,1634.5067605000222,1634.5067605000222,1634.9900963000255,1635.0067459000275,1637.4900333000114,1637.506678100035,1637.4910237999866,None,1,,,,,,,,,,,,,,,,,,,,,,,,,,,,,,,,,,,,,,,,,,,,,nback36,001,2023-12-18_18h19.26.486,untitled,2023.2.3,59.90298113221297,2023-12-18 18h34.21.711158 -0500,
6,"[-0.3, 0]",None,0,12,12,12,,,,,,,,,1637.506678100035,,,,,,,,,,,,,,,,,,,,,,,,,,,,1637.4918278999976,1637.506678100035,1637.506678100035,1637.9899379999842,1638.0064832000062,1640.4900403000065,1640.5065890999977,1640.49093119998,None,1,,,,,,,,,,,,,,,,,,,,,,,,,,,,,,,,,,,,,,,,,,,,,nback36,001,2023-12-18_18h19.26.486,untitled,2023.2.3,59.90298113221297,2023-12-18 18h34.21.711158 -0500,
9,"[0.2, -0.1]",None,0,13,13,13,,,,,,,,,1640.5065890999977,,,,,,,,,,,,,,,,,,,,,,,,,,,,1640.4915943000233,1640.5065890999977,1640.5065890999977,1640.99001389998,1641.0065158000216,1643.48987390002,1643.506263600022,1643.4907365000108,None,1,,,,,,,,,,,,,,,,,,,,,,,,,,,,,,,,,,,,,,,,,,,,,nback36,001,2023-12-18_18h19.26.486,untitled,2023.2.3,59.90298113221297,2023-12-18 18h34.21.711158 -0500,
7,"[0.3, 0]",None,0,14,14,14,,,,,,,,,1643.506263600022,,,,,,,,,,,,,,,,,,,,,,,,,,,,1643.4915000000037,1643.506263600022,1643.506263600022,1643.9899163999944,1644.0064478000277,1646.48983700003,1646.506433200033,1646.4907930000336,None,1,,,,,,,,,,,,,,,,,,,,,,,,,,,,,,,,,,,,,,,,,,,,,nback36,001,2023-12-18_18h19.26.486,untitled,2023.2.3,59.90298113221297,2023-12-18 18h34.21.711158 -0500,
2,"[0.64, 0.4]",None,0,15,15,15,,,,,,,,,1646.506433200033,,,,,,,,,,,,,,,,,,,,,,,,,,,,1646.4914727000287,1646.506433200033,1646.506433200033,1647.0062742999871,1647.0062742999871,1649.5063688000082,1649.5063688000082,1649.4903872000286,None,1,,,,,,,,,,,,,,,,,,,,,,,,,,,,,,,,,,,,,,,,,,,,,nback36,001,2023-12-18_18h19.26.486,untitled,2023.2.3,59.90298113221297,2023-12-18 18h34.21.711158 -0500,
2,"[0.64, 0.4]",None,0,16,16,16,,,,,,,,,1649.5063688000082,,,,,,,,,,,,,,,,,,,,,,,,,,,,1649.4910899000242,1649.5063688000082,1649.5063688000082,1649.9897536999779,1650.0062494000304,1652.4896024999907,1652.5063279999886,1652.4905622000224,None,1,,,,,,,,,,,,,,,,,,,,,,,,,,,,,,,,,,,,,,,,,,,,,nback36,001,2023-12-18_18h19.26.486,untitled,2023.2.3,59.90298113221297,2023-12-18 18h34.21.711158 -0500,
11,"[-0.64, -0.4]",space,0,17,17,17,,,,,,,,,1652.5063279999886,,,,,,,,,,,,,,,,,,,,,,,,,,,,1652.4912310999935,1652.5063279999886,1652.5063279999886,1653.0060658000293,1653.0060658000293,1655.5062329000211,1655.5062329000211,1655.4903827999951,space,1,0.3835020000115037,None,,,,,,,,,,,,,,,,,,,,,,,,,,,,,,,,,,,,,,,,,,,nback36,001,2023-12-18_18h19.26.486,untitled,2023.2.3,59.90298113221297,2023-12-18 18h34.21.711158 -0500,
11,"[-0.64, -0.4]",space,0,18,18,18,,,,,,,,,1655.5062329000211,,,,,,,,,,,,,,,,,,,,,,,,,,,,1655.4911457999842,1655.5062329000211,1655.5062329000211,1656.0062332000234,1656.0062332000234,1658.5062246000161,1658.5062246000161,1658.4903650000342,space,1,0.4861765000387095,None,,,,,,,,,,,,,,,,,,,,,,,,,,,,,,,,,,,,,,,,,,,nback36,001,2023-12-18_18h19.26.486,untitled,2023.2.3,59.90298113221297,2023-12-18 18h34.21.711158 -0500,
7,"[0.3, 0]",None,0,19,19,19,,,,,,,,,1658.5062246000161,,,,,,,,,,,,,,,,,,,,,,,,,,,,1658.4907637999859,1658.5062246000161,1658.5062246000161,1659.0061955000274,1659.0061955000274,1661.5062245000154,1661.5062245000154,1661.4904722999781,None,1,,,,,,,,,,,,,,,,,,,,,,,,,,,,,,,,,,,,,,,,,,,,,nback36,001,2023-12-18_18h19.26.486,untitled,2023.2.3,59.90298113221297,2023-12-18 18h34.21.711158 -0500,
3,"[0, 0.2]",None,0,20,20,20,,,,,,,,,1661.5062245000154,,,,,,,,,,,,,,,,,,,,,,,,,,,,1661.4911942000035,1661.5062245000154,1661.5062245000154,1662.006325400027,1662.006325400027,1664.5061490000226,1664.5061490000226,1664.4901816000347,None,1,,,,,,,,,,,,,,,,,,,,,,,,,,,,,,,,,,,,,,,,,,,,,nback36,001,2023-12-18_18h19.26.486,untitled,2023.2.3,59.90298113221297,2023-12-18 18h34.21.711158 -0500,
10,"[0, -0.2]",None,0,21,21,21,,,,,,,,,1664.5061490000226,,,,,,,,,,,,,,,,,,,,,,,,,,,,1664.4908531000256,1664.5061490000226,1664.5061490000226,1665.0060743999784,1665.0060743999784,1667.5063770000124,1667.5063770000124,1667.4903625000152,None,1,,,,,,,,,,,,,,,,,,,,,,,,,,,,,,,,,,,,,,,,,,,,,nback36,001,2023-12-18_18h19.26.486,untitled,2023.2.3,59.90298113221297,2023-12-18 18h34.21.711158 -0500,
1,"[-0.64, 0.4]",None,0,22,22,22,,,,,,,,,1667.5063770000124,,,,,,,,,,,,,,,,,,,,,,,,,,,,1667.491070899996,1667.5063770000124,1667.5063770000124,1668.0061904999893,1668.0061904999893,1670.5061390000046,1670.5061390000046,1670.4906166000292,None,1,,,,,,,,,,,,,,,,,,,,,,,,,,,,,,,,,,,,,,,,,,,,,nback36,001,2023-12-18_18h19.26.486,untitled,2023.2.3,59.90298113221297,2023-12-18 18h34.21.711158 -0500,
2,"[0.64, 0.4]",None,0,23,23,23,,,,,,,,,1670.5061390000046,,,,,,,,,,,,,,,,,,,,,,,,,,,,1670.4914287999854,1670.5061390000046,1670.5061390000046,1671.0060768999974,1671.0060768999974,1673.506121399987,1673.506121399987,1673.4902857000125,None,1,,,,,,,,,,,,,,,,,,,,,,,,,,,,,,,,,,,,,,,,,,,,,nback36,001,2023-12-18_18h19.26.486,untitled,2023.2.3,59.90298113221297,2023-12-18 18h34.21.711158 -0500,
6,"[-0.3, 0]",None,0,24,24,24,,,,,,,,,1673.506121399987,,,,,,,,,,,,,,,,,,,,,,,,,,,,1673.4910460999818,1673.506121399987,1673.506121399987,1674.0059473000001,1674.0059473000001,1676.5058165999944,1676.5058165999944,1676.4901449999888,None,1,,,,,,,,,,,,,,,,,,,,,,,,,,,,,,,,,,,,,,,,,,,,,nback36,001,2023-12-18_18h19.26.486,untitled,2023.2.3,59.90298113221297,2023-12-18 18h34.21.711158 -0500,
3,"[0, 0.2]",None,0,25,25,25,,,,,,,,,1676.5058165999944,,,,,,,,,,,,,,,,,,,,,,,,,,,,1676.4908572999993,1676.5058165999944,1676.5058165999944,1677.0058025000035,1677.0058025000035,1679.5058204000234,1679.5058204000234,1679.4899370000348,None,1,,,,,,,,,,,,,,,,,,,,,,,,,,,,,,,,,,,,,,,,,,,,,nback36,001,2023-12-18_18h19.26.486,untitled,2023.2.3,59.90298113221297,2023-12-18 18h34.21.711158 -0500,
11,"[-0.64, -0.4]",space,0,26,26,26,,,,,,,,,1679.5058204000234,,,,,,,,,,,,,,,,,,,,,,,,,,,,1679.4905431999941,1679.5058204000234,1679.5058204000234,1680.00579570001,1680.00579570001,1682.5056508000125,1682.5056508000125,1682.4898218000308,space,1,0.3900323999696411,None,,,,,,,,,,,,,,,,,,,,,,,,,,,,,,,,,,,,,,,,,,,nback36,001,2023-12-18_18h19.26.486,untitled,2023.2.3,59.90298113221297,2023-12-18 18h34.21.711158 -0500,
1,"[-0.64, 0.4]",None,0,27,27,27,,,,,,,,,1682.5056508000125,,,,,,,,,,,,,,,,,,,,,,,,,,,,1682.4905757000088,1682.5056508000125,1682.5056508000125,1683.0057854999905,1683.0057854999905,1685.5056343000033,1685.5056343000033,1685.490172800026,None,1,,,,,,,,,,,,,,,,,,,,,,,,,,,,,,,,,,,,,,,,,,,,,nback36,001,2023-12-18_18h19.26.486,untitled,2023.2.3,59.90298113221297,2023-12-18 18h34.21.711158 -0500,
3,"[0, 0.2]",None,0,28,28,28,,,,,,,,,1685.5056343000033,,,,,,,,,,,,,,,,,,,,,,,,,,,,1685.4908607000252,1685.5056343000033,1685.5056343000033,1686.005832099996,1686.005832099996,1688.5056412999984,1688.5056412999984,1688.489899599983,None,1,,,,,,,,,,,,,,,,,,,,,,,,,,,,,,,,,,,,,,,,,,,,,nback36,001,2023-12-18_18h19.26.486,untitled,2023.2.3,59.90298113221297,2023-12-18 18h34.21.711158 -0500,
9,"[0.2, -0.1]",None,0,29,29,29,,,,,,,,,1688.5056412999984,,,,,,,,,,,,,,,,,,,,,,,,,,,,1688.4905716999783,1688.5056412999984,1688.5056412999984,1689.005659700022,1689.005659700022,1691.5056070000282,1691.5056070000282,1691.4897592000198,None,1,,,,,,,,,,,,,,,,,,,,,,,,,,,,,,,,,,,,,,,,,,,,,nback36,001,2023-12-18_18h19.26.486,untitled,2023.2.3,59.90298113221297,2023-12-18 18h34.21.711158 -0500,
8,"[-0.2, -0.1]",None,0,30,30,30,,,,,,,,,1691.5056070000282,,,,,,,,,,,,,,,,,,,,,,,,,,,,1691.4903345999774,1691.5056070000282,1691.5056070000282,1692.0055976000149,1692.0055976000149,1694.505642300006,1694.505642300006,1694.4898568000062,None,1,,,,,,,,,,,,,,,,,,,,,,,,,,,,,,,,,,,,,,,,,,,,,nback36,001,2023-12-18_18h19.26.486,untitled,2023.2.3,59.90298113221297,2023-12-18 18h34.21.711158 -0500,
12,"[0.64, -0.4]",None,0,31,31,31,,,,,,,,,1694.505642300006,,,,,,,,,,,,,,,,,,,,,,,,,,,,1694.4905631000292,1694.505642300006,1694.505642300006,1695.0057348000119,1695.0057348000119,1697.5056182999979,1697.5056182999979,1697.4900652000215,None,1,,,,,,,,,,,,,,,,,,,,,,,,,,,,,,,,,,,,,,,,,,,,,nback36,001,2023-12-18_18h19.26.486,untitled,2023.2.3,59.90298113221297,2023-12-18 18h34.21.711158 -0500,
9,"[0.2, -0.1]",None,0,32,32,32,,,,,,,,,1697.5056182999979,,,,,,,,,,,,,,,,,,,,,,,,,,,,1697.4908209000132,1697.5056182999979,1697.5056182999979,1698.0054742000066,1698.0054742000066,1700.5053017000319,1700.5053017000319,1700.4899656000198,None,1,,,,,,,,,,,,,,,,,,,,,,,,,,,,,,,,,,,,,,,,,,,,,nback36,001,2023-12-18_18h19.26.486,untitled,2023.2.3,59.90298113221297,2023-12-18 18h34.21.711158 -0500,
11,"[-0.64, -0.4]",space,0,33,33,33,,,,,,,,,1700.5053017000319,,,,,,,,,,,,,,,,,,,,,,,,,,,,1700.4907026999863,1700.5053017000319,1700.5053017000319,1701.005499300023,1701.005499300023,1703.505558200006,1703.505558200006,1703.4898708999972,space,1,0.3913097999757156,None,,,,,,,,,,,,,,,,,,,,,,,,,,,,,,,,,,,,,,,,,,,nback36,001,2023-12-18_18h19.26.486,untitled,2023.2.3,59.90298113221297,2023-12-18 18h34.21.711158 -0500,
7,"[0.3, 0]",None,0,34,34,34,,,,,,,,,1703.505558200006,,,,,,,,,,,,,,,,,,,,,,,,,,,,1703.4907806999981,1703.505558200006,1703.505558200006,1704.005272099981,1704.005272099981,1706.505358800001,1706.505358800001,1706.4897589000175,None,1,,,,,,,,,,,,,,,,,,,,,,,,,,,,,,,,,,,,,,,,,,,,,nback36,001,2023-12-18_18h19.26.486,untitled,2023.2.3,59.90298113221297,2023-12-18 18h34.21.711158 -0500,
11,"[-0.64, -0.4]",space,0,35,35,35,,,,,,,,,1706.505358800001,,,,,,,,,,,,,,,,,,,,,,,,,,,,1706.490523000015,1706.505358800001,1706.505358800001,1707.0053788999794,1707.0053788999794,1709.5053788999794,1709.5053788999794,1709.4894061000086,space,1,0.5324458999675699,None,,,,,,,,,,,,,,,,,,,,,,,,,,,,,,,,,,,,,,,,,,,nback36,001,2023-12-18_18h19.26.486,untitled,2023.2.3,59.90298113221297,2023-12-18 18h34.21.711158 -0500,
4,"[-0.2, 0.1]",None,0,36,36,36,,,,,,,,,1709.5053788999794,,,,,,,,,,,,,,,,,,,,,,,,,,,,1709.4901343000238,1709.5053788999794,1709.5053788999794,1710.0054713999853,1710.0054713999853,1712.5051801999798,1712.5051801999798,1712.4897132000187,None,1,,,,,,,,,,,,,,,,,,,,,,,,,,,,,,,,,,,,,,,,,,,,,nback36,001,2023-12-18_18h19.26.486,untitled,2023.2.3,59.90298113221297,2023-12-18 18h34.21.711158 -0500,
5,"[0.2, 0.1]",None,0,37,37,37,,,,,,,,,1712.5051801999798,,,,,,,,,,,,,,,,,,,,,,,,,,,,1712.4905501999892,1712.5051801999798,1712.5051801999798,1713.005357099988,1713.005357099988,1715.5052102000336,1715.5052102000336,1715.4897473999881,None,1,,,,,,,,,,,,,,,,,,,,,,,,,,,,,,,,,,,,,,,,,,,,,nback36,001,2023-12-18_18h19.26.486,untitled,2023.2.3,59.90298113221297,2023-12-18 18h34.21.711158 -0500,
6,"[-0.3, 0]",None,0,38,38,38,,,,,,,,,1715.5052102000336,,,,,,,,,,,,,,,,,,,,,,,,,,,,1715.490371300024,1715.5052102000336,1715.5052102000336,1716.005286300031,1716.005286300031,1718.5052135000005,1718.5052135000005,1718.4888745999779,None,1,,,,,,,,,,,,,,,,,,,,,,,,,,,,,,,,,,,,,,,,,,,,,nback36,001,2023-12-18_18h19.26.486,untitled,2023.2.3,59.90298113221297,2023-12-18 18h34.21.711158 -0500,
11,"[-0.64, -0.4]",space,0,39,39,39,,,,,,,,,1718.5052135000005,,,,,,,,,,,,,,,,,,,,,,,,,,,,1718.4892241000198,1718.5052135000005,1718.5052135000005,1719.005219899991,1719.005219899991,1721.5053454000154,1721.5053454000154,1721.4892150000087,space,1,0.36135530000319704,None,,,,,,,,,,,,,,,,,,,,,,,,,,,,,,,,,,,,,,,,,,,nback36,001,2023-12-18_18h19.26.486,untitled,2023.2.3,59.90298113221297,2023-12-18 18h34.21.711158 -0500,
,,,,,,,,,,,,,,,,,,,,,,,,,,,,,,,,,,,,,,,,,,,,,,,,,,,,,,,1721.4897814000142,1721.5053454000154,1721.5053454000154,1735.5233800000278,space,14.007715500018094,None,,,,,,,,,,,,,,,,,,,,,,,,,,,,,,,,,,,,nback36,001,2023-12-18_18h19.26.486,untitled,2023.2.3,59.90298113221297,2023-12-18 18h34.21.711158 -0500,
10,"[0, -0.2]",None,,,,,0,0,0,0,,,,,1736.5380757999956,,,,,,,,,,,,,,,,,,,,,,,,1735.5234182000277,1735.5382723999792,1736.5380757999956,1736.5224645999842,,,,,,,,,,,,,,,,,,,,1736.5320749999955,1736.5380757999956,1736.5380757999956,1737.0382721999777,1737.0382721999777,1739.5380859000143,1739.5380859000143,1739.5223131999956,None,1,,,,,,,,,,,,,,,,,,,,,,,,,,nback36,001,2023-12-18_18h19.26.486,untitled,2023.2.3,59.90298113221297,2023-12-18 18h34.21.711158 -0500,
5,"[0.2, 0.1]",None,,,,,0,1,1,1,,,,,1739.5380859000143,,,,,,,,,,,,,,,,,,,,,,,,,,,,,,,,,,,,,,,,,,,,,,,1739.523064900015,1739.5380859000143,1739.5380859000143,1740.0382491999771,1740.0382491999771,1742.53802789998,1742.53802789998,1742.5220402000123,None,1,,,,,,,,,,,,,,,,,,,,,,,,,,nback36,001,2023-12-18_18h19.26.486,untitled,2023.2.3,59.90298113221297,2023-12-18 18h34.21.711158 -0500,
6,"[-0.3, 0]",None,,,,,0,2,2,2,,,,,1742.53802789998,,,,,,,,,,,,,,,,,,,,,,,,,,,,,,,,,,,,,,,,,,,,,,,1742.5225694000255,1742.53802789998,1742.53802789998,1743.038056600024,1743.038056600024,1745.5381385000073,1745.5381385000073,1745.5224183999817,None,1,,,,,,,,,,,,,,,,,,,,,,,,,,nback36,001,2023-12-18_18h19.26.486,untitled,2023.2.3,59.90298113221297,2023-12-18 18h34.21.711158 -0500,
6,"[-0.3, 0]",space,,,,,0,3,3,3,,,,,1745.5381385000073,,,,,,,,,,,,,,,,,,,,,,,,,,,,,,,,,,,,,,,,,,,,,,,1745.5231788000092,1745.5381385000073,1745.5381385000073,1746.0382768000127,1746.0382768000127,1748.5379312000005,1748.5379312000005,1748.5223144000047,space,1,0.651228100003209,None,,,,,,,,,,,,,,,,,,,,,,,,nback36,001,2023-12-18_18h19.26.486,untitled,2023.2.3,59.90298113221297,2023-12-18 18h34.21.711158 -0500,
12,"[0.64, -0.4]",None,,,,,0,4,4,4,,,,,1748.5379312000005,,,,,,,,,,,,,,,,,,,,,,,,,,,,,,,,,,,,,,,,,,,,,,,1748.5235774000175,1748.5379312000005,1748.5379312000005,1749.0381571000325,1749.0381571000325,1751.5381450999994,1751.5381450999994,1751.5224677000078,None,1,,,,,,,,,,,,,,,,,,,,,,,,,,nback36,001,2023-12-18_18h19.26.486,untitled,2023.2.3,59.90298113221297,2023-12-18 18h34.21.711158 -0500,
10,"[0, -0.2]",None,,,,,0,5,5,5,,,,,1751.5381450999994,,,,,,,,,,,,,,,,,,,,,,,,,,,,,,,,,,,,,,,,,,,,,,,1751.5232345000259,1751.5381450999994,1751.5381450999994,1752.0379964000313,1752.0379964000313,1754.538028799987,1754.538028799987,1754.5223316000192,None,1,,,,,,,,,,,,,,,,,,,,,,,,,,nback36,001,2023-12-18_18h19.26.486,untitled,2023.2.3,59.90298113221297,2023-12-18 18h34.21.711158 -0500,
2,"[0.64, 0.4]",None,,,,,0,6,6,6,,,,,1754.538028799987,,,,,,,,,,,,,,,,,,,,,,,,,,,,,,,,,,,,,,,,,,,,,,,1754.5231579000247,1754.538028799987,1754.538028799987,1755.0376974000246,1755.0376974000246,1757.5379084000015,1757.5379084000015,1757.5222798000323,None,1,,,,,,,,,,,,,,,,,,,,,,,,,,nback36,001,2023-12-18_18h19.26.486,untitled,2023.2.3,59.90298113221297,2023-12-18 18h34.21.711158 -0500,
9,"[0.2, -0.1]",None,,,,,0,7,7,7,,,,,1757.5379084000015,,,,,,,,,,,,,,,,,,,,,,,,,,,,,,,,,,,,,,,,,,,,,,,1757.5230239999946,1757.5379084000015,1757.5379084000015,1758.037933900021,1758.037933900021,1760.5377054000273,1760.5377054000273,1760.5218493000139,None,1,,,,,,,,,,,,,,,,,,,,,,,,,,nback36,001,2023-12-18_18h19.26.486,untitled,2023.2.3,59.90298113221297,2023-12-18 18h34.21.711158 -0500,
9,"[0.2, -0.1]",space,,,,,0,8,8,8,,,,,1760.5377054000273,,,,,,,,,,,,,,,,,,,,,,,,,,,,,,,,,,,,,,,,,,,,,,,1760.52248829999,1760.5377054000273,1760.5377054000273,1761.037664100004,1761.037664100004,1763.537721700035,1763.537721700035,1763.521887400013,space,1,0.607515100040473,None,,,,,,,,,,,,,,,,,,,,,,,,nback36,001,2023-12-18_18h19.26.486,untitled,2023.2.3,59.90298113221297,2023-12-18 18h34.21.711158 -0500,
6,"[-0.3, 0]",None,,,,,0,9,9,9,,,,,1763.537721700035,,,,,,,,,,,,,,,,,,,,,,,,,,,,,,,,,,,,,,,,,,,,,,,1763.5226155000273,1763.537721700035,1763.537721700035,1764.0376958000124,1764.0376958000124,1766.5376418000087,1766.5376418000087,1766.5220322000096,None,1,,,,,,,,,,,,,,,,,,,,,,,,,,nback36,001,2023-12-18_18h19.26.486,untitled,2023.2.3,59.90298113221297,2023-12-18 18h34.21.711158 -0500,
11,"[-0.64, -0.4]",None,,,,,0,10,10,10,,,,,1766.5376418000087,,,,,,,,,,,,,,,,,,,,,,,,,,,,,,,,,,,,,,,,,,,,,,,1766.522671499988,1766.5376418000087,1766.5376418000087,1767.0375165999867,1767.0375165999867,1769.5375394999865,1769.5375394999865,1769.5218088999973,None,1,,,,,,,,,,,,,,,,,,,,,,,,,,nback36,001,2023-12-18_18h19.26.486,untitled,2023.2.3,59.90298113221297,2023-12-18 18h34.21.711158 -0500,
11,"[-0.64, -0.4]",space,,,,,0,11,11,11,,,,,1769.5375394999865,,,,,,,,,,,,,,,,,,,,,,,,,,,,,,,,,,,,,,,,,,,,,,,1769.5225925000268,1769.5375394999865,1769.5375394999865,1770.037470499985,1770.037470499985,1772.5377282000263,1772.5377282000263,1772.521843500028,space,1,0.6954273000010289,None,,,,,,,,,,,,,,,,,,,,,,,,nback36,001,2023-12-18_18h19.26.486,untitled,2023.2.3,59.90298113221297,2023-12-18 18h34.21.711158 -0500,
4,"[-0.2, 0.1]",None,,,,,0,12,12,12,,,,,1772.5377282000263,,,,,,,,,,,,,,,,,,,,,,,,,,,,,,,,,,,,,,,,,,,,,,,1772.522654600034,1772.5377282000263,1772.5377282000263,1773.0376467999886,1773.0376467999886,1775.537381800008,1775.537381800008,1775.521912700031,None,1,,,,,,,,,,,,,,,,,,,,,,,,,,nback36,001,2023-12-18_18h19.26.486,untitled,2023.2.3,59.90298113221297,2023-12-18 18h34.21.711158 -0500,
3,"[0, 0.2]",None,,,,,0,13,13,13,,,,,1775.537381800008,,,,,,,,,,,,,,,,,,,,,,,,,,,,,,,,,,,,,,,,,,,,,,,1775.522764399997,1775.537381800008,1775.537381800008,1776.037599400035,1776.037599400035,1778.5372796999873,1778.5372796999873,1778.5211649999837,None,1,,,,,,,,,,,,,,,,,,,,,,,,,,nback36,001,2023-12-18_18h19.26.486,untitled,2023.2.3,59.90298113221297,2023-12-18 18h34.21.711158 -0500,
3,"[0, 0.2]",space,,,,,0,14,14,14,,,,,1778.5372796999873,,,,,,,,,,,,,,,,,,,,,,,,,,,,,,,,,,,,,,,,,,,,,,,1778.5214634999866,1778.5372796999873,1778.5372796999873,1779.0374166999827,1779.0374166999827,1781.5373410999891,1781.5373410999891,1781.5216242999886,space,1,0.594922799966298,None,,,,,,,,,,,,,,,,,,,,,,,,nback36,001,2023-12-18_18h19.26.486,untitled,2023.2.3,59.90298113221297,2023-12-18 18h34.21.711158 -0500,
8,"[-0.2, -0.1]",None,,,,,0,15,15,15,,,,,1781.5373410999891,,,,,,,,,,,,,,,,,,,,,,,,,,,,,,,,,,,,,,,,,,,,,,,1781.5223201999906,1781.5373410999891,1781.5373410999891,1782.0374079000321,1782.0374079000321,1784.537377999979,1784.537377999979,1784.5216724000056,None,1,,,,,,,,,,,,,,,,,,,,,,,,,,nback36,001,2023-12-18_18h19.26.486,untitled,2023.2.3,59.90298113221297,2023-12-18 18h34.21.711158 -0500,
1,"[-0.64, 0.4]",None,,,,,0,16,16,16,,,,,1784.537377999979,,,,,,,,,,,,,,,,,,,,,,,,,,,,,,,,,,,,,,,,,,,,,,,1784.5223430999904,1784.537377999979,1784.537377999979,1785.0374873999972,1785.0374873999972,1787.5374027999933,1787.5374027999933,1787.521364299988,None,1,,,,,,,,,,,,,,,,,,,,,,,,,,nback36,001,2023-12-18_18h19.26.486,untitled,2023.2.3,59.90298113221297,2023-12-18 18h34.21.711158 -0500,
2,"[0.64, 0.4]",None,,,,,0,17,17,17,,,,,1787.5374027999933,,,,,,,,,,,,,,,,,,,,,,,,,,,,,,,,,,,,,,,,,,,,,,,1787.5219181000139,1787.5374027999933,1787.5374027999933,1788.0372488999856,1788.0372488999856,1790.5374021999887,1790.5374021999887,1790.5217471999931,None,1,,,,,,,,,,,,,,,,,,,,,,,,,,nback36,001,2023-12-18_18h19.26.486,untitled,2023.2.3,59.90298113221297,2023-12-18 18h34.21.711158 -0500,
4,"[-0.2, 0.1]",None,,,,,0,18,18,18,,,,,1790.5374021999887,,,,,,,,,,,,,,,,,,,,,,,,,,,,,,,,,,,,,,,,,,,,,,,1790.5224924000213,1790.5374021999887,1790.5374021999887,1791.0372480999795,1791.0372480999795,1793.537200300023,1793.537200300023,1793.5216981000267,None,1,,,,,,,,,,,,,,,,,,,,,,,,,,nback36,001,2023-12-18_18h19.26.486,untitled,2023.2.3,59.90298113221297,2023-12-18 18h34.21.711158 -0500,
4,"[-0.2, 0.1]",space,,,,,0,19,19,19,,,,,1793.537200300023,,,,,,,,,,,,,,,,,,,,,,,,,,,,,,,,,,,,,,,,,,,,,,,1793.5224778000265,1793.537200300023,1793.537200300023,1794.037116600026,1794.037116600026,1796.5372319000307,1796.5372319000307,1796.5216280000168,space,1,0.46733620000304654,None,,,,,,,,,,,,,,,,,,,,,,,,nback36,001,2023-12-18_18h19.26.486,untitled,2023.2.3,59.90298113221297,2023-12-18 18h34.21.711158 -0500,
8,"[-0.2, -0.1]",None,,,,,0,20,20,20,,,,,1796.5372319000307,,,,,,,,,,,,,,,,,,,,,,,,,,,,,,,,,,,,,,,,,,,,,,,1796.5225919000222,1796.5372319000307,1796.5372319000307,1797.0369789000251,1797.0369789000251,1799.5372519000084,1799.5372519000084,1799.5214337999932,None,1,,,,,,,,,,,,,,,,,,,,,,,,,,nback36,001,2023-12-18_18h19.26.486,untitled,2023.2.3,59.90298113221297,2023-12-18 18h34.21.711158 -0500,
5,"[0.2, 0.1]",None,,,,,0,21,21,21,,,,,1799.5372519000084,,,,,,,,,,,,,,,,,,,,,,,,,,,,,,,,,,,,,,,,,,,,,,,1799.5222002000082,1799.5372519000084,1799.5372519000084,1800.0370031000348,1800.0370031000348,1802.5369924000115,1802.5369924000115,1802.5211789000314,None,1,,,,,,,,,,,,,,,,,,,,,,,,,,nback36,001,2023-12-18_18h19.26.486,untitled,2023.2.3,59.90298113221297,2023-12-18 18h34.21.711158 -0500,
5,"[0.2, 0.1]",space,,,,,0,22,22,22,,,,,1802.5369924000115,,,,,,,,,,,,,,,,,,,,,,,,,,,,,,,,,,,,,,,,,,,,,,,1802.522420399997,1802.5369924000115,1802.5369924000115,1803.037063900032,1803.037063900032,1805.5370936000254,1805.5370936000254,1805.5211162000196,space,1,0.5507870999863371,None,,,,,,,,,,,,,,,,,,,,,,,,nback36,001,2023-12-18_18h19.26.486,untitled,2023.2.3,59.90298113221297,2023-12-18 18h34.21.711158 -0500,
1,"[-0.64, 0.4]",None,,,,,0,23,23,23,,,,,1805.5370936000254,,,,,,,,,,,,,,,,,,,,,,,,,,,,,,,,,,,,,,,,,,,,,,,1805.5218849999947,1805.5370936000254,1805.5370936000254,1806.0369434999884,1806.0369434999884,1808.5369626000174,1808.5369626000174,1808.5212169000297,None,1,,,,,,,,,,,,,,,,,,,,,,,,,,nback36,001,2023-12-18_18h19.26.486,untitled,2023.2.3,59.90298113221297,2023-12-18 18h34.21.711158 -0500,
3,"[0, 0.2]",None,,,,,0,24,24,24,,,,,1808.5369626000174,,,,,,,,,,,,,,,,,,,,,,,,,,,,,,,,,,,,,,,,,,,,,,,1808.5218225999852,1808.5369626000174,1808.5369626000174,1809.0368725000299,1809.0368725000299,1811.5369721000316,1811.5369721000316,1811.5210107000312,None,1,,,,,,,,,,,,,,,,,,,,,,,,,,nback36,001,2023-12-18_18h19.26.486,untitled,2023.2.3,59.90298113221297,2023-12-18 18h34.21.711158 -0500,
6,"[-0.3, 0]",None,,,,,0,25,25,25,,,,,1811.5369721000316,,,,,,,,,,,,,,,,,,,,,,,,,,,,,,,,,,,,,,,,,,,,,,,1811.52163079998,1811.5369721000316,1811.5369721000316,1812.036745999998,1812.036745999998,1814.5368293999927,1814.5368293999927,1814.5213098999811,None,1,,,,,,,,,,,,,,,,,,,,,,,,,,nback36,001,2023-12-18_18h19.26.486,untitled,2023.2.3,59.90298113221297,2023-12-18 18h34.21.711158 -0500,
1,"[-0.64, 0.4]",None,,,,,0,26,26,26,,,,,1814.5368293999927,,,,,,,,,,,,,,,,,,,,,,,,,,,,,,,,,,,,,,,,,,,,,,,1814.5220680999919,1814.5368293999927,1814.5368293999927,1815.0368630000157,1815.0368630000157,1817.5368065999937,1817.5368065999937,1817.5212849000236,None,1,,,,,,,,,,,,,,,,,,,,,,,,,,nback36,001,2023-12-18_18h19.26.486,untitled,2023.2.3,59.90298113221297,2023-12-18 18h34.21.711158 -0500,
1,"[-0.64, 0.4]",space,,,,,0,27,27,27,,,,,1817.5368065999937,,,,,,,,,,,,,,,,,,,,,,,,,,,,,,,,,,,,,,,,,,,,,,,1817.5219908999861,1817.5368065999937,1817.5368065999937,1818.036621199979,1818.036621199979,1820.536644799984,1820.536644799984,1820.52105749998,space,1,1.0426589000271633,None,,,,,,,,,,,,,,,,,,,,,,,,nback36,001,2023-12-18_18h19.26.486,untitled,2023.2.3,59.90298113221297,2023-12-18 18h34.21.711158 -0500,
1,"[-0.64, 0.4]",space,,,,,0,28,28,28,,,,,1820.536644799984,,,,,,,,,,,,,,,,,,,,,,,,,,,,,,,,,,,,,,,,,,,,,,,1820.52200300002,1820.536644799984,1820.536644799984,1821.0365202000248,1821.0365202000248,1823.5367167000077,1823.5367167000077,1823.5206272000214,space,1,0.8068918999633752,None,,,,,,,,,,,,,,,,,,,,,,,,nback36,001,2023-12-18_18h19.26.486,untitled,2023.2.3,59.90298113221297,2023-12-18 18h34.21.711158 -0500,
3,"[0, 0.2]",None,,,,,0,29,29,29,,,,,1823.5367167000077,,,,,,,,,,,,,,,,,,,,,,,,,,,,,,,,,,,,,,,,,,,,,,,1823.5214069000212,1823.5367167000077,1823.5367167000077,1824.0365761999856,1824.0365761999856,1826.5364344000118,1826.5364344000118,1826.5204913000343,None,1,,,,,,,,,,,,,,,,,,,,,,,,,,nback36,001,2023-12-18_18h19.26.486,untitled,2023.2.3,59.90298113221297,2023-12-18 18h34.21.711158 -0500,
12,"[0.64, -0.4]",None,,,,,0,30,30,30,,,,,1826.5364344000118,,,,,,,,,,,,,,,,,,,,,,,,,,,,,,,,,,,,,,,,,,,,,,,1826.5209487000247,1826.5364344000118,1826.5364344000118,1827.0366434000316,1827.0366434000316,1829.5366360000335,1829.5366360000335,1829.5211816999945,None,1,,,,,,,,,,,,,,,,,,,,,,,,,,nback36,001,2023-12-18_18h19.26.486,untitled,2023.2.3,59.90298113221297,2023-12-18 18h34.21.711158 -0500,
12,"[0.64, -0.4]",space,,,,,0,31,31,31,,,,,1829.5366360000335,,,,,,,,,,,,,,,,,,,,,,,,,,,,,,,,,,,,,,,,,,,,,,,1829.5219087000005,1829.5366360000335,1829.5366360000335,1830.0366249000072,1830.0366249000072,1832.5365872000111,1832.5365872000111,1832.5208642000216,space,1,0.8533581999945454,None,,,,,,,,,,,,,,,,,,,,,,,,nback36,001,2023-12-18_18h19.26.486,untitled,2023.2.3,59.90298113221297,2023-12-18 18h34.21.711158 -0500,
2,"[0.64, 0.4]",None,,,,,0,32,32,32,,,,,1832.5365872000111,,,,,,,,,,,,,,,,,,,,,,,,,,,,,,,,,,,,,,,,,,,,,,,1832.5216248999932,1832.5365872000111,1832.5365872000111,1833.0366515999776,1833.0366515999776,1835.5364463999867,1835.5364463999867,1835.5210562000284,None,1,,,,,,,,,,,,,,,,,,,,,,,,,,nback36,001,2023-12-18_18h19.26.486,untitled,2023.2.3,59.90298113221297,2023-12-18 18h34.21.711158 -0500,
1,"[-0.64, 0.4]",None,,,,,0,33,33,33,,,,,1835.5364463999867,,,,,,,,,,,,,,,,,,,,,,,,,,,,,,,,,,,,,,,,,,,,,,,1835.521911000018,1835.5364463999867,1835.5364463999867,1836.036538299988,1836.036538299988,1838.536215500033,1838.536215500033,1838.5202253999887,None,1,,,,,,,,,,,,,,,,,,,,,,,,,,nback36,001,2023-12-18_18h19.26.486,untitled,2023.2.3,59.90298113221297,2023-12-18 18h34.21.711158 -0500,
7,"[0.3, 0]",None,,,,,0,34,34,34,,,,,1838.536215500033,,,,,,,,,,,,,,,,,,,,,,,,,,,,,,,,,,,,,,,,,,,,,,,1838.5205452999799,1838.536215500033,1838.536215500033,1839.0365415000124,1839.0365415000124,1841.536289200012,1841.536289200012,1841.52090459998,None,1,,,,,,,,,,,,,,,,,,,,,,,,,,nback36,001,2023-12-18_18h19.26.486,untitled,2023.2.3,59.90298113221297,2023-12-18 18h34.21.711158 -0500,
7,"[0.3, 0]",space,,,,,0,35,35,35,,,,,1841.536289200012,,,,,,,,,,,,,,,,,,,,,,,,,,,,,,,,,,,,,,,,,,,,,,,1841.5216823000228,1841.536289200012,1841.536289200012,1842.0363961000112,1842.0363961000112,1844.5362802000018,1844.5362802000018,1844.5199279999943,space,1,0.5524252000031993,None,,,,,,,,,,,,,,,,,,,,,,,,nback36,001,2023-12-18_18h19.26.486,untitled,2023.2.3,59.90298113221297,2023-12-18 18h34.21.711158 -0500,
11,"[-0.64, -0.4]",None,,,,,0,36,36,36,,,,,1844.5362802000018,,,,,,,,,,,,,,,,,,,,,,,,,,,,,,,,,,,,,,,,,,,,,,,1844.520257600001,1844.5362802000018,1844.5362802000018,1845.0361689000274,1845.0361689000274,1847.536553599988,1847.536553599988,1847.5208186000236,None,1,,,,,,,,,,,,,,,,,,,,,,,,,,nback36,001,2023-12-18_18h19.26.486,untitled,2023.2.3,59.90298113221297,2023-12-18 18h34.21.711158 -0500,
2,"[0.64, 0.4]",None,,,,,0,37,37,37,,,,,1847.536553599988,,,,,,,,,,,,,,,,,,,,,,,,,,,,,,,,,,,,,,,,,,,,,,,1847.521596400009,1847.536553599988,1847.536553599988,1848.0362827000208,1848.0362827000208,1850.536310399999,1850.536310399999,1850.5203052000143,None,1,,,,,,,,,,,,,,,,,,,,,,,,,,nback36,001,2023-12-18_18h19.26.486,untitled,2023.2.3,59.90298113221297,2023-12-18 18h34.21.711158 -0500,
6,"[-0.3, 0]",None,,,,,0,38,38,38,,,,,1850.536310399999,,,,,,,,,,,,,,,,,,,,,,,,,,,,,,,,,,,,,,,,,,,,,,,1850.5209417000297,1850.536310399999,1850.536310399999,1851.0361749000149,1851.0361749000149,1853.5361555999843,1853.5361555999843,1853.5203361000167,None,1,,,,,,,,,,,,,,,,,,,,,,,,,,nback36,001,2023-12-18_18h19.26.486,untitled,2023.2.3,59.90298113221297,2023-12-18 18h34.21.711158 -0500,
10,"[0, -0.2]",None,,,,,0,39,39,39,,,,,1853.5361555999843,,,,,,,,,,,,,,,,,,,,,,,,,,,,,,,,,,,,,,,,,,,,,,,1853.5210005000117,1853.5361555999843,1853.5361555999843,1854.0362295000232,1854.0362295000232,1856.536280100001,1856.536280100001,1856.5205160999903,None,1,,,,,,,,,,,,,,,,,,,,,,,,,,nback36,001,2023-12-18_18h19.26.486,untitled,2023.2.3,59.90298113221297,2023-12-18 18h34.21.711158 -0500,
,,,,,,,,,,,,,,,,,,,,,,,,,,,,,,,,,,,,,,,,,,,,,,,,,,,,,,,,,,,,,,,,,,,,,,,,,,1856.5210475000204,1856.536280100001,1856.536280100001,1873.1877285999944,space,16.637465300038457,None,,,,,,,,,,,,,,,,,nback36,001,2023-12-18_18h19.26.486,untitled,2023.2.3,59.90298113221297,2023-12-18 18h34.21.711158 -0500,
,"[0.2, 0.1]",None,,,,,,,,,0,0,0,0,1874.2023449999979,,,,,,,,,,,,,,,,,,,,,,,,1873.187782299996,1873.202384300006,1874.2023449999979,1874.1863902999903,,,,,,,,,,,,,,,,,,,,,,,,,,,,,,,,,,,,,,,1874.193372300011,1874.2023449999979,1874.2023449999979,1874.7023344000336,1874.7023344000336,1877.2023976999917,1877.2023976999917,1877.186126900022,None,1,,,,,,,nback36,001,2023-12-18_18h19.26.486,untitled,2023.2.3,59.90298113221297,2023-12-18 18h34.21.711158 -0500,
,"[0.64, 0.4]",None,,,,,,,,,0,1,1,1,1877.2023976999917,,,,,,,,,,,,,,,,,,,,,,,,,,,,,,,,,,,,,,,,,,,,,,,,,,,,,,,,,,,,,,,,,,1877.1865907000029,1877.2023976999917,1877.2023976999917,1877.7024791000294,1877.7024791000294,1880.2022804000298,1880.2022804000298,1880.1864879999775,None,1,,,,,,,nback36,001,2023-12-18_18h19.26.486,untitled,2023.2.3,59.90298113221297,2023-12-18 18h34.21.711158 -0500,
,"[-0.3, 0]",None,,,,,,,,,0,2,2,2,1880.2022804000298,,,,,,,,,,,,,,,,,,,,,,,,,,,,,,,,,,,,,,,,,,,,,,,,,,,,,,,,,,,,,,,,,,1880.1871293000295,1880.2022804000298,1880.2022804000298,1880.702230099996,1880.702230099996,1883.2020125000272,1883.2020125000272,1883.186737800017,None,1,,,,,,,nback36,001,2023-12-18_18h19.26.486,untitled,2023.2.3,59.90298113221297,2023-12-18 18h34.21.711158 -0500,
,"[0.2, -0.1]",None,,,,,,,,,0,3,3,3,1883.2020125000272,,,,,,,,,,,,,,,,,,,,,,,,,,,,,,,,,,,,,,,,,,,,,,,,,,,,,,,,,,,,,,,,,,1883.1875804000301,1883.2020125000272,1883.2020125000272,1883.7022438999848,1883.7022438999848,1886.2024012000184,1886.2024012000184,1886.186483700003,None,1,,,,,,,nback36,001,2023-12-18_18h19.26.486,untitled,2023.2.3,59.90298113221297,2023-12-18 18h34.21.711158 -0500,
,"[0, 0.2]",None,,,,,,,,,0,4,4,4,1886.2024012000184,,,,,,,,,,,,,,,,,,,,,,,,,,,,,,,,,,,,,,,,,,,,,,,,,,,,,,,,,,,,,,,,,,1886.187134900014,1886.2024012000184,1886.2024012000184,1886.7021497000242,1886.7021497000242,1889.2021711000125,1889.2021711000125,1889.186566599994,None,1,,,,,,,nback36,001,2023-12-18_18h19.26.486,untitled,2023.2.3,59.90298113221297,2023-12-18 18h34.21.711158 -0500,
,"[0.2, -0.1]",space,,,,,,,,,0,5,5,5,1889.2021711000125,,,,,,,,,,,,,,,,,,,,,,,,,,,,,,,,,,,,,,,,,,,,,,,,,,,,,,,,,,,,,,,,,,1889.1872442000313,1889.2021711000125,1889.2021711000125,1889.7021897999803,1889.7021897999803,1892.2021699000034,1892.2021699000034,1892.1866272999905,space,1,0.8632665000041015,None,,,,,nback36,001,2023-12-18_18h19.26.486,untitled,2023.2.3,59.90298113221297,2023-12-18 18h34.21.711158 -0500,
,"[0, -0.2]",None,,,,,,,,,0,6,6,6,1892.2021699000034,,,,,,,,,,,,,,,,,,,,,,,,,,,,,,,,,,,,,,,,,,,,,,,,,,,,,,,,,,,,,,,,,,1892.1878371000057,1892.2021699000034,1892.2021699000034,1892.7022071999963,1892.7022071999963,1895.202096700028,1895.202096700028,1895.1862075999961,None,1,,,,,,,nback36,001,2023-12-18_18h19.26.486,untitled,2023.2.3,59.90298113221297,2023-12-18 18h34.21.711158 -0500,
,"[0.64, -0.4]",None,,,,,,,,,0,7,7,7,1895.202096700028,,,,,,,,,,,,,,,,,,,,,,,,,,,,,,,,,,,,,,,,,,,,,,,,,,,,,,,,,,,,,,,,,,1895.186833099986,1895.202096700028,1895.202096700028,1895.702124000003,1895.702124000003,1898.2020533999894,1898.2020533999894,1898.1867478999775,None,1,,,,,,,nback36,001,2023-12-18_18h19.26.486,untitled,2023.2.3,59.90298113221297,2023-12-18 18h34.21.711158 -0500,
,"[0.3, 0]",None,,,,,,,,,0,8,8,8,1898.2020533999894,,,,,,,,,,,,,,,,,,,,,,,,,,,,,,,,,,,,,,,,,,,,,,,,,,,,,,,,,,,,,,,,,,1898.1874647000222,1898.2020533999894,1898.2020533999894,1898.7019467999926,1898.7019467999926,1901.201939199993,1901.201939199993,1901.186399099999,None,1,,,,,,,nback36,001,2023-12-18_18h19.26.486,untitled,2023.2.3,59.90298113221297,2023-12-18 18h34.21.711158 -0500,
,"[0.64, -0.4]",space,,,,,,,,,0,9,9,9,1901.201939199993,,,,,,,,,,,,,,,,,,,,,,,,,,,,,,,,,,,,,,,,,,,,,,,,,,,,,,,,,,,,,,,,,,1901.1871624999912,1901.201939199993,1901.201939199993,1901.70207509998,1901.70207509998,1904.2019746000296,1904.2019746000296,1904.1859203000204,None,0,,,,,,,nback36,001,2023-12-18_18h19.26.486,untitled,2023.2.3,59.90298113221297,2023-12-18 18h34.21.711158 -0500,
,"[-0.64, 0.4]",None,,,,,,,,,0,10,10,10,1904.2019746000296,,,,,,,,,,,,,,,,,,,,,,,,,,,,,,,,,,,,,,,,,,,,,,,,,,,,,,,,,,,,,,,,,,1904.186569500016,1904.2019746000296,1904.2019746000296,1904.702016299998,1904.702016299998,1907.2018706999952,1907.2018706999952,1907.1859303999809,None,1,,,,,,,nback36,001,2023-12-18_18h19.26.486,untitled,2023.2.3,59.90298113221297,2023-12-18 18h34.21.711158 -0500,
,"[0.2, 0.1]",None,,,,,,,,,0,11,11,11,1907.2018706999952,,,,,,,,,,,,,,,,,,,,,,,,,,,,,,,,,,,,,,,,,,,,,,,,,,,,,,,,,,,,,,,,,,1907.1864741999889,1907.2018706999952,1907.2018706999952,1907.7019476999994,1907.7019476999994,1910.2016683000256,1910.2016683000256,1910.1862708000117,None,1,,,,,,,nback36,001,2023-12-18_18h19.26.486,untitled,2023.2.3,59.90298113221297,2023-12-18 18h34.21.711158 -0500,
,"[0.3, 0]",None,,,,,,,,,0,12,12,12,1910.2016683000256,,,,,,,,,,,,,,,,,,,,,,,,,,,,,,,,,,,,,,,,,,,,,,,,,,,,,,,,,,,,,,,,,,1910.186990200018,1910.2016683000256,1910.2016683000256,1910.7017745000194,1910.7017745000194,1913.2018554999959,1913.2018554999959,1913.1861903999816,None,1,,,,,,,nback36,001,2023-12-18_18h19.26.486,untitled,2023.2.3,59.90298113221297,2023-12-18 18h34.21.711158 -0500,
,"[0.2, 0.1]",space,,,,,,,,,0,13,13,13,1913.2018554999959,,,,,,,,,,,,,,,,,,,,,,,,,,,,,,,,,,,,,,,,,,,,,,,,,,,,,,,,,,,,,,,,,,1913.1869273000048,1913.2018554999959,1913.2018554999959,1913.7018710999982,1913.7018710999982,1916.201709099987,1916.201709099987,1916.1859062000294,space,1,1.2665602999622934,None,,,,,nback36,001,2023-12-18_18h19.26.486,untitled,2023.2.3,59.90298113221297,2023-12-18 18h34.21.711158 -0500,
,"[-0.3, 0]",None,,,,,,,,,0,14,14,14,1916.201709099987,,,,,,,,,,,,,,,,,,,,,,,,,,,,,,,,,,,,,,,,,,,,,,,,,,,,,,,,,,,,,,,,,,1916.1867122999975,1916.201709099987,1916.201709099987,1916.7018299000338,1916.7018299000338,1919.2017437000177,1919.2017437000177,1919.1862774000037,None,1,,,,,,,nback36,001,2023-12-18_18h19.26.486,untitled,2023.2.3,59.90298113221297,2023-12-18 18h34.21.711158 -0500,
,"[0, 0.2]",None,,,,,,,,,0,15,15,15,1919.2017437000177,,,,,,,,,,,,,,,,,,,,,,,,,,,,,,,,,,,,,,,,,,,,,,,,,,,,,,,,,,,,,,,,,,1919.187065200007,1919.2017437000177,1919.2017437000177,1919.7018747000257,1919.7018747000257,1922.201700100035,1922.201700100035,1922.18613799999,None,1,,,,,,,nback36,001,2023-12-18_18h19.26.486,untitled,2023.2.3,59.90298113221297,2023-12-18 18h34.21.711158 -0500,
,"[-0.3, 0]",space,,,,,,,,,0,16,16,16,1922.201700100035,,,,,,,,,,,,,,,,,,,,,,,,,,,,,,,,,,,,,,,,,,,,,,,,,,,,,,,,,,,,,,,,,,1922.1869760000263,1922.201700100035,1922.201700100035,1922.7015219000168,1922.7015219000168,1925.2016566999955,1925.2016566999955,1925.1860181000084,None,0,,,,,,,nback36,001,2023-12-18_18h19.26.486,untitled,2023.2.3,59.90298113221297,2023-12-18 18h34.21.711158 -0500,
,"[-0.64, -0.4]",None,,,,,,,,,0,17,17,17,1925.2016566999955,,,,,,,,,,,,,,,,,,,,,,,,,,,,,,,,,,,,,,,,,,,,,,,,,,,,,,,,,,,,,,,,,,1925.186815700028,1925.2016566999955,1925.2016566999955,1925.701564499992,1925.701564499992,1928.2015417999937,1928.2015417999937,1928.1857938999892,None,1,,,,,,,nback36,001,2023-12-18_18h19.26.486,untitled,2023.2.3,59.90298113221297,2023-12-18 18h34.21.711158 -0500,
,"[-0.2, -0.1]",None,,,,,,,,,0,18,18,18,1928.2015417999937,,,,,,,,,,,,,,,,,,,,,,,,,,,,,,,,,,,,,,,,,,,,,,,,,,,,,,,,,,,,,,,,,,1928.1866258999798,1928.2015417999937,1928.2015417999937,1928.701603399997,1928.701603399997,1931.201535500004,1931.201535500004,1931.1859373000334,None,1,,,,,,,nback36,001,2023-12-18_18h19.26.486,untitled,2023.2.3,59.90298113221297,2023-12-18 18h34.21.711158 -0500,
,"[0.2, -0.1]",None,,,,,,,,,0,19,19,19,1931.201535500004,,,,,,,,,,,,,,,,,,,,,,,,,,,,,,,,,,,,,,,,,,,,,,,,,,,,,,,,,,,,,,,,,,1931.1866991000134,1931.201535500004,1931.201535500004,1931.7016670000157,1931.7016670000157,1934.2012685000082,1934.2012685000082,1934.1853612000123,None,1,,,,,,,nback36,001,2023-12-18_18h19.26.486,untitled,2023.2.3,59.90298113221297,2023-12-18 18h34.21.711158 -0500,
,"[0.2, -0.1]",None,,,,,,,,,0,20,20,20,1934.2012685000082,,,,,,,,,,,,,,,,,,,,,,,,,,,,,,,,,,,,,,,,,,,,,,,,,,,,,,,,,,,,,,,,,,1934.186006999982,1934.2012685000082,1934.2012685000082,1934.701450099994,1934.701450099994,1937.2013920000172,1937.2013920000172,1937.1857612000313,None,1,,,,,,,nback36,001,2023-12-18_18h19.26.486,untitled,2023.2.3,59.90298113221297,2023-12-18 18h34.21.711158 -0500,
,"[-0.64, 0.4]",None,,,,,,,,,0,21,21,21,1937.2013920000172,,,,,,,,,,,,,,,,,,,,,,,,,,,,,,,,,,,,,,,,,,,,,,,,,,,,,,,,,,,,,,,,,,1937.1865108000347,1937.2013920000172,1937.2013920000172,1937.7015283000073,1937.7015283000073,1940.2012465000153,1940.2012465000153,1940.185417700035,None,1,,,,,,,nback36,001,2023-12-18_18h19.26.486,untitled,2023.2.3,59.90298113221297,2023-12-18 18h34.21.711158 -0500,
,"[0, 0.2]",None,,,,,,,,,0,22,22,22,1940.2012465000153,,,,,,,,,,,,,,,,,,,,,,,,,,,,,,,,,,,,,,,,,,,,,,,,,,,,,,,,,,,,,,,,,,1940.1860579000204,1940.2012465000153,1940.2012465000153,1940.701303299982,1940.701303299982,1943.2012938000262,1943.2012938000262,1943.1857457000297,None,1,,,,,,,nback36,001,2023-12-18_18h19.26.486,untitled,2023.2.3,59.90298113221297,2023-12-18 18h34.21.711158 -0500,
,"[0.64, -0.4]",None,,,,,,,,,0,23,23,23,1943.2012938000262,,,,,,,,,,,,,,,,,,,,,,,,,,,,,,,,,,,,,,,,,,,,,,,,,,,,,,,,,,,,,,,,,,1943.186511899985,1943.2012938000262,1943.2012938000262,1943.7011547000147,1943.7011547000147,1946.2012071000063,1946.2012071000063,1946.185673800006,None,1,,,,,,,nback36,001,2023-12-18_18h19.26.486,untitled,2023.2.3,59.90298113221297,2023-12-18 18h34.21.711158 -0500,
,"[0, 0.2]",space,,,,,,,,,0,24,24,24,1946.2012071000063,,,,,,,,,,,,,,,,,,,,,,,,,,,,,,,,,,,,,,,,,,,,,,,,,,,,,,,,,,,,,,,,,,1946.1864366999944,1946.2012071000063,1946.2012071000063,1946.7012945000315,1946.7012945000315,1949.201202300028,1949.201202300028,1949.1852196999826,space,1,0.7826968999579549,None,,,,,nback36,001,2023-12-18_18h19.26.486,untitled,2023.2.3,59.90298113221297,2023-12-18 18h34.21.711158 -0500,
,"[-0.2, 0.1]",None,,,,,,,,,0,25,25,25,1949.201202300028,,,,,,,,,,,,,,,,,,,,,,,,,,,,,,,,,,,,,,,,,,,,,,,,,,,,,,,,,,,,,,,,,,1949.1859094999963,1949.201202300028,1949.201202300028,1949.701179500029,1949.701179500029,1952.2010918000014,1952.2010918000014,1952.1853752000025,None,1,,,,,,,nback36,001,2023-12-18_18h19.26.486,untitled,2023.2.3,59.90298113221297,2023-12-18 18h34.21.711158 -0500,
,"[0.3, 0]",None,,,,,,,,,0,26,26,26,1952.2010918000014,,,,,,,,,,,,,,,,,,,,,,,,,,,,,,,,,,,,,,,,,,,,,,,,,,,,,,,,,,,,,,,,,,1952.186009099998,1952.2010918000014,1952.2010918000014,1952.700895100017,1952.700895100017,1955.2011975999922,1955.2011975999922,1955.185346800019,None,1,,,,,,,nback36,001,2023-12-18_18h19.26.486,untitled,2023.2.3,59.90298113221297,2023-12-18 18h34.21.711158 -0500,
,"[-0.2, 0.1]",space,,,,,,,,,0,27,27,27,1955.2011975999922,,,,,,,,,,,,,,,,,,,,,,,,,,,,,,,,,,,,,,,,,,,,,,,,,,,,,,,,,,,,,,,,,,1955.1860192000167,1955.2011975999922,1955.2011975999922,1955.7011136999936,1955.7011136999936,1958.2010407000198,1958.2010407000198,1958.1855008000275,space,1,1.3007467999705113,None,,,,,nback36,001,2023-12-18_18h19.26.486,untitled,2023.2.3,59.90298113221297,2023-12-18 18h34.21.711158 -0500,
,"[-0.2, 0.1]",None,,,,,,,,,0,28,28,28,1958.2010407000198,,,,,,,,,,,,,,,,,,,,,,,,,,,,,,,,,,,,,,,,,,,,,,,,,,,,,,,,,,,,,,,,,,1958.1863283999846,1958.2010407000198,1958.2010407000198,1958.7008377999882,1958.7008377999882,1961.2010594999883,1961.2010594999883,1961.1852326000226,None,1,,,,,,,nback36,001,2023-12-18_18h19.26.486,untitled,2023.2.3,59.90298113221297,2023-12-18 18h34.21.711158 -0500,
,"[0.2, 0.1]",None,,,,,,,,,0,29,29,29,1961.2010594999883,,,,,,,,,,,,,,,,,,,,,,,,,,,,,,,,,,,,,,,,,,,,,,,,,,,,,,,,,,,,,,,,,,1961.1859458999825,1961.2010594999883,1961.2010594999883,1961.7010279999813,1961.7010279999813,1964.2007947000093,1964.2007947000093,1964.1853831000044,None,1,,,,,,,nback36,001,2023-12-18_18h19.26.486,untitled,2023.2.3,59.90298113221297,2023-12-18 18h34.21.711158 -0500,
,"[-0.64, -0.4]",None,,,,,,,,,0,30,30,30,1964.2007947000093,,,,,,,,,,,,,,,,,,,,,,,,,,,,,,,,,,,,,,,,,,,,,,,,,,,,,,,,,,,,,,,,,,1964.1861345000216,1964.2007947000093,1964.2007947000093,1964.700898799987,1964.700898799987,1967.2008206000319,1967.2008206000319,1967.1852225000039,None,1,,,,,,,nback36,001,2023-12-18_18h19.26.486,untitled,2023.2.3,59.90298113221297,2023-12-18 18h34.21.711158 -0500,
,"[0, -0.2]",None,,,,,,,,,0,31,31,31,1967.2008206000319,,,,,,,,,,,,,,,,,,,,,,,,,,,,,,,,,,,,,,,,,,,,,,,,,,,,,,,,,,,,,,,,,,1967.1859103000024,1967.2008206000319,1967.2008206000319,1967.7010097000166,1967.7010097000166,1970.2008761999896,1970.2008761999896,1970.1853027000325,None,1,,,,,,,nback36,001,2023-12-18_18h19.26.486,untitled,2023.2.3,59.90298113221297,2023-12-18 18h34.21.711158 -0500,
,"[-0.64, -0.4]",space,,,,,,,,,0,32,32,32,1970.2008761999896,,,,,,,,,,,,,,,,,,,,,,,,,,,,,,,,,,,,,,,,,,,,,,,,,,,,,,,,,,,,,,,,,,1970.18608210003,1970.2008761999896,1970.2008761999896,1970.700811000017,1970.700811000017,1973.2010466000065,1973.2010466000065,1973.1851401000167,None,0,,,,,,,nback36,001,2023-12-18_18h19.26.486,untitled,2023.2.3,59.90298113221297,2023-12-18 18h34.21.711158 -0500,
,"[0.64, 0.4]",None,,,,,,,,,0,33,33,33,1973.2010466000065,,,,,,,,,,,,,,,,,,,,,,,,,,,,,,,,,,,,,,,,,,,,,,,,,,,,,,,,,,,,,,,,,,1973.1858928999864,1973.2010466000065,1973.2010466000065,1973.7008733000257,1973.7008733000257,1976.200784399989,1976.200784399989,1976.184707599983,None,1,,,,,,,nback36,001,2023-12-18_18h19.26.486,untitled,2023.2.3,59.90298113221297,2023-12-18 18h34.21.711158 -0500,
,"[-0.3, 0]",None,,,,,,,,,0,34,34,34,1976.200784399989,,,,,,,,,,,,,,,,,,,,,,,,,,,,,,,,,,,,,,,,,,,,,,,,,,,,,,,,,,,,,,,,,,1976.185295400035,1976.200784399989,1976.200784399989,1976.7007841999875,1976.7007841999875,1979.2005618999829,1979.2005618999829,1979.185025200015,None,1,,,,,,,nback36,001,2023-12-18_18h19.26.486,untitled,2023.2.3,59.90298113221297,2023-12-18 18h34.21.711158 -0500,
,"[0.3, 0]",None,,,,,,,,,0,35,35,35,1979.2005618999829,,,,,,,,,,,,,,,,,,,,,,,,,,,,,,,,,,,,,,,,,,,,,,,,,,,,,,,,,,,,,,,,,,1979.1856639999896,1979.2005618999829,1979.2005618999829,1979.7008256000117,1979.7008256000117,1982.200647699996,1982.200647699996,1982.184899999993,None,1,,,,,,,nback36,001,2023-12-18_18h19.26.486,untitled,2023.2.3,59.90298113221297,2023-12-18 18h34.21.711158 -0500,
,"[-0.3, 0]",space,,,,,,,,,0,36,36,36,1982.200647699996,,,,,,,,,,,,,,,,,,,,,,,,,,,,,,,,,,,,,,,,,,,,,,,,,,,,,,,,,,,,,,,,,,1982.1855780000333,1982.200647699996,1982.200647699996,1982.7006909000338,1982.7006909000338,1985.2005318999873,1985.2005318999873,1985.1845615999773,space,1,0.8663230999954976,None,,,,,nback36,001,2023-12-18_18h19.26.486,untitled,2023.2.3,59.90298113221297,2023-12-18 18h34.21.711158 -0500,
,"[0, -0.2]",None,,,,,,,,,0,37,37,37,1985.2005318999873,,,,,,,,,,,,,,,,,,,,,,,,,,,,,,,,,,,,,,,,,,,,,,,,,,,,,,,,,,,,,,,,,,1985.1853128999937,1985.2005318999873,1985.2005318999873,1985.7006230999832,1985.7006230999832,1988.200463599991,1988.200463599991,1988.1847958000144,None,1,,,,,,,nback36,001,2023-12-18_18h19.26.486,untitled,2023.2.3,59.90298113221297,2023-12-18 18h34.21.711158 -0500,
,"[0.3, 0]",None,,,,,,,,,0,38,38,38,1988.200463599991,,,,,,,,,,,,,,,,,,,,,,,,,,,,,,,,,,,,,,,,,,,,,,,,,,,,,,,,,,,,,,,,,,1988.1855794999865,1988.200463599991,1988.200463599991,1988.7005016999901,1988.7005016999901,1991.2005833000294,1991.2005833000294,1991.1848558000056,None,1,,,,,,,nback36,001,2023-12-18_18h19.26.486,untitled,2023.2.3,59.90298113221297,2023-12-18 18h34.21.711158 -0500,
,"[0.2, 0.1]",None,,,,,,,,,0,39,39,39,1991.2005833000294,,,,,,,,,,,,,,,,,,,,,,,,,,,,,,,,,,,,,,,,,,,,,,,,,,,,,,,,,,,,,,,,,,1991.1856110999943,1991.2005833000294,1991.2005833000294,1991.7005697999848,1991.7005697999848,1994.2005245999899,1994.2005245999899,1994.1845664000139,None,1,,,,,,,nback36,001,2023-12-18_18h19.26.486,untitled,2023.2.3,59.90298113221297,2023-12-18 18h34.21.711158 -0500,
,,,,,,,,,,,,,,,,,,,,,,,,,,,,,,,,,,,,,,,,,,,,,,,,,,,,,,,,,,,,,,,,,,,,,,,,,,,,,,,,,,,,,,,,,,,,,1994.1850059999852,1994.2005245999899,1997.2003637999878,1997.184679900005,,,,,,,,
