square,location,corrAns,trials_0.thisRepN,trials_0.thisTrialN,trials_0.thisN,trials_0.thisIndex,trials_1.thisRepN,trials_1.thisTrialN,trials_1.thisN,trials_1.thisIndex,trials_2.thisRepN,trials_2.thisTrialN,trials_2.thisN,trials_2.thisIndex,thisRow.t,notes,Instructions.started,instructions.started,key_resp.started,inst_sq11.started,Instructions.stopped,key_resp.keys,key_resp.rt,key_resp.duration,All.started,sq_1.started,sq_2.started,sq_3.started,sq_4.started,sq_5.started,sq_6.started,sq_7.started,sq_8.started,sq_9.started,sq_10.started,sq_11.started,sq_12.started,All.stopped,Fixation.started,fixation_3.started,fixation_3.stopped,Fixation.stopped,N_back_0_Trial.started,target_square_0.started,response_0.started,fixation_0.started,target_square_0.stopped,fixation_0.stopped,response_0.stopped,N_back_0_Trial.stopped,response_0.keys,response_0.corr,response_0.rt,response_0.duration,Instructions_1.started,instructions_1.started,key_resp_1.started,Instructions_1.stopped,key_resp_1.keys,key_resp_1.rt,key_resp_1.duration,N_back_1_Trial.started,target_square_1.started,response_1.started,target_square_1.stopped,fixation_1.started,fixation_1.stopped,response_1.stopped,N_back_1_Trial.stopped,response_1.keys,response_1.corr,response_1.rt,response_1.duration,Instructions_2.started,instructions_2.started,key_resp_2.started,Instructions_2.stopped,key_resp_2.keys,key_resp_2.rt,key_resp_2.duration,N_back_2_trials.started,target_square_2.started,response_2.started,target_square_2.stopped,fixation_2.started,fixation_2.stopped,response_2.stopped,N_back_2_trials.stopped,response_2.keys,response_2.corr,response_2.rt,response_2.duration,End.started,thank_you.started,thank_you.stopped,End.stopped,participant,session,date,expName,psychopyVersion,frameRate,expStart,
,,,,,,,,,,,,,,,,,0.0013223000569269061,0.0037002000026404858,0.0037002000026404858,0.0037002000026404858,83.25663220009301,space,83.24112829996739,None,,,,,,,,,,,,,,,,,,,,,,,,,,,,,,,,,,,,,,,,,,,,,,,,,,,,,,,,,,,,,,,,,,,,,,,,,nback3,001,2023-12-07_13h31.39.066,untitled,2023.2.3,60.13648578529025,2023-12-07 15h09.24.675244 -0500,
6,"[-0.3, 0]",None,0,0,0,0,,,,,,,,,85.27138190006372,,,,,,,,,,83.25666990003083,83.27160239999648,83.27160239999648,83.27160239999648,83.27160239999648,83.27160239999648,83.27160239999648,83.27160239999648,83.27160239999648,83.27160239999648,83.27160239999648,83.27160239999648,83.27160239999648,84.25551360007375,84.25553180009592,84.27166440000292,85.27138190006372,85.25563470006455,85.26747690001503,85.27138190006372,85.27138190006372,85.7549127000384,85.77163690002635,88.25502800010145,88.2715201000683,88.25574769999366,None,1,,,,,,,,,,,,,,,,,,,,,,,,,,,,,,,,,,,,,,,,,,,,,nback3,001,2023-12-07_13h31.39.066,untitled,2023.2.3,60.13648578529025,2023-12-07 15h09.24.675244 -0500,
10,"[0, -0.2]",None,0,1,1,1,,,,,,,,,88.2715201000683,,,,,,,,,,,,,,,,,,,,,,,,,,,,88.25652799999807,88.2715201000683,88.2715201000683,88.7549761000555,88.77179780008737,91.25494230003096,91.27151760004926,91.25591510010418,None,1,,,,,,,,,,,,,,,,,,,,,,,,,,,,,,,,,,,,,,,,,,,,,nback3,001,2023-12-07_13h31.39.066,untitled,2023.2.3,60.13648578529025,2023-12-07 15h09.24.675244 -0500,
11,"[-0.64, -0.4]",space,0,2,2,2,,,,,,,,,91.27151760004926,,,,,,,,,,,,,,,,,,,,,,,,,,,,91.25663150008768,91.27151760004926,91.27151760004926,91.75505810009781,91.7714443000732,94.25480650004465,94.2715972000733,94.25557280005887,space,1,0.7467464000219479,None,,,,,,,,,,,,,,,,,,,,,,,,,,,,,,,,,,,,,,,,,,,nback3,001,2023-12-07_13h31.39.066,untitled,2023.2.3,60.13648578529025,2023-12-07 15h09.24.675244 -0500,
12,"[0.64, -0.4]",None,0,3,3,3,,,,,,,,,94.2715972000733,,,,,,,,,,,,,,,,,,,,,,,,,,,,94.25662150001153,94.2715972000733,94.2715972000733,94.75486930005718,94.7715064000804,97.2547805000795,97.27151820005383,97.25554879999254,None,1,,,,,,,,,,,,,,,,,,,,,,,,,,,,,,,,,,,,,,,,,,,,,nback3,001,2023-12-07_13h31.39.066,untitled,2023.2.3,60.13648578529025,2023-12-07 15h09.24.675244 -0500,
1,"[-0.64, 0.4]",None,0,4,4,4,,,,,,,,,97.27151820005383,,,,,,,,,,,,,,,,,,,,,,,,,,,,97.25626590009779,97.27151820005383,97.27151820005383,97.75472520000767,97.77141950000077,100.25466780003626,100.27128510002512,100.2553722000448,None,1,,,,,,,,,,,,,,,,,,,,,,,,,,,,,,,,,,,,,,,,,,,,,nback3,001,2023-12-07_13h31.39.066,untitled,2023.2.3,60.13648578529025,2023-12-07 15h09.24.675244 -0500,
1,"[-0.64, 0.4]",None,0,5,5,5,,,,,,,,,100.27128510002512,,,,,,,,,,,,,,,,,,,,,,,,,,,,100.25615760008805,100.27128510002512,100.27128510002512,100.75458490010351,100.77126310009044,103.25467420008499,103.27138190006372,103.25558500003535,None,1,,,,,,,,,,,,,,,,,,,,,,,,,,,,,,,,,,,,,,,,,,,,,nback3,001,2023-12-07_13h31.39.066,untitled,2023.2.3,60.13648578529025,2023-12-07 15h09.24.675244 -0500,
4,"[-0.2, 0.1]",None,0,6,6,6,,,,,,,,,103.27138190006372,,,,,,,,,,,,,,,,,,,,,,,,,,,,103.25629819999449,103.27138190006372,103.27138190006372,103.75471720006317,103.77139700006228,106.25462880008854,106.2710958000971,106.25537680007983,None,1,,,,,,,,,,,,,,,,,,,,,,,,,,,,,,,,,,,,,,,,,,,,,nback3,001,2023-12-07_13h31.39.066,untitled,2023.2.3,60.13648578529025,2023-12-07 15h09.24.675244 -0500,
5,"[0.2, 0.1]",None,0,7,7,7,,,,,,,,,106.2710958000971,,,,,,,,,,,,,,,,,,,,,,,,,,,,106.2560343000805,106.2710958000971,106.2710958000971,106.75450590008404,106.77118979999796,109.25457240000833,109.27136430004612,109.2553919000784,None,1,,,,,,,,,,,,,,,,,,,,,,,,,,,,,,,,,,,,,,,,,,,,,nback3,001,2023-12-07_13h31.39.066,untitled,2023.2.3,60.13648578529025,2023-12-07 15h09.24.675244 -0500,
11,"[-0.64, -0.4]",space,0,8,8,8,,,,,,,,,109.27136430004612,,,,,,,,,,,,,,,,,,,,,,,,,,,,109.25605120009277,109.27136430004612,109.27136430004612,109.75442330003716,109.77118360006716,112.2545544001041,112.27104010002222,112.25554820010439,space,1,0.37505179992876947,None,,,,,,,,,,,,,,,,,,,,,,,,,,,,,,,,,,,,,,,,,,,nback3,001,2023-12-07_13h31.39.066,untitled,2023.2.3,60.13648578529025,2023-12-07 15h09.24.675244 -0500,
9,"[0.2, -0.1]",None,0,9,9,9,,,,,,,,,112.27104010002222,,,,,,,,,,,,,,,,,,,,,,,,,,,,112.2565018000314,112.27104010002222,112.27104010002222,112.75457960006315,112.77114070008975,115.25440910004545,115.27111110009719,115.2552004000172,None,1,,,,,,,,,,,,,,,,,,,,,,,,,,,,,,,,,,,,,,,,,,,,,nback3,001,2023-12-07_13h31.39.066,untitled,2023.2.3,60.13648578529025,2023-12-07 15h09.24.675244 -0500,
8,"[-0.2, -0.1]",None,0,10,10,10,,,,,,,,,115.27111110009719,,,,,,,,,,,,,,,,,,,,,,,,,,,,115.2558004000457,115.27111110009719,115.27111110009719,115.75451330002397,115.7711791000329,118.2545549001079,118.27102210000157,118.25546140002552,None,1,,,,,,,,,,,,,,,,,,,,,,,,,,,,,,,,,,,,,,,,,,,,,nback3,001,2023-12-07_13h31.39.066,untitled,2023.2.3,60.13648578529025,2023-12-07 15h09.24.675244 -0500,
9,"[0.2, -0.1]",None,0,11,11,11,,,,,,,,,118.27102210000157,,,,,,,,,,,,,,,,,,,,,,,,,,,,118.25629270006903,118.27102210000157,118.27102210000157,118.7544289000798,118.77182420005556,121.25444090005476,121.27106850000564,121.25546740007121,None,1,,,,,,,,,,,,,,,,,,,,,,,,,,,,,,,,,,,,,,,,,,,,,nback3,001,2023-12-07_13h31.39.066,untitled,2023.2.3,60.13648578529025,2023-12-07 15h09.24.675244 -0500,
6,"[-0.3, 0]",None,0,12,12,12,,,,,,,,,121.27106850000564,,,,,,,,,,,,,,,,,,,,,,,,,,,,121.25624120002612,121.27106850000564,121.27106850000564,121.77103100006934,121.77103100006934,124.2710456000641,124.2710456000641,124.2549227999989,None,1,,,,,,,,,,,,,,,,,,,,,,,,,,,,,,,,,,,,,,,,,,,,,nback3,001,2023-12-07_13h31.39.066,untitled,2023.2.3,60.13648578529025,2023-12-07 15h09.24.675244 -0500,
9,"[0.2, -0.1]",None,0,13,13,13,,,,,,,,,124.2710456000641,,,,,,,,,,,,,,,,,,,,,,,,,,,,124.2555122000631,124.2710456000641,124.2710456000641,124.77099510002881,124.77099510002881,127.27088820002973,127.27088820002973,127.25491200003307,None,1,,,,,,,,,,,,,,,,,,,,,,,,,,,,,,,,,,,,,,,,,,,,,nback3,001,2023-12-07_13h31.39.066,untitled,2023.2.3,60.13648578529025,2023-12-07 15h09.24.675244 -0500,
7,"[0.3, 0]",None,0,14,14,14,,,,,,,,,127.27088820002973,,,,,,,,,,,,,,,,,,,,,,,,,,,,127.25542230007704,127.27088820002973,127.27088820002973,127.77115260006394,127.77115260006394,130.27084450004622,130.27084450004622,130.2552100000903,None,1,,,,,,,,,,,,,,,,,,,,,,,,,,,,,,,,,,,,,,,,,,,,,nback3,001,2023-12-07_13h31.39.066,untitled,2023.2.3,60.13648578529025,2023-12-07 15h09.24.675244 -0500,
2,"[0.64, 0.4]",None,0,15,15,15,,,,,,,,,130.27084450004622,,,,,,,,,,,,,,,,,,,,,,,,,,,,130.25599500001408,130.27084450004622,130.27084450004622,130.77087670005858,130.77087670005858,133.27072340005543,133.27072340005543,133.2551448000595,None,1,,,,,,,,,,,,,,,,,,,,,,,,,,,,,,,,,,,,,,,,,,,,,nback3,001,2023-12-07_13h31.39.066,untitled,2023.2.3,60.13648578529025,2023-12-07 15h09.24.675244 -0500,
2,"[0.64, 0.4]",None,0,16,16,16,,,,,,,,,133.27072340005543,,,,,,,,,,,,,,,,,,,,,,,,,,,,133.25584630004596,133.27072340005543,133.27072340005543,133.77099370001815,133.77099370001815,136.27085269999225,136.27085269999225,136.25490660010837,None,1,,,,,,,,,,,,,,,,,,,,,,,,,,,,,,,,,,,,,,,,,,,,,nback3,001,2023-12-07_13h31.39.066,untitled,2023.2.3,60.13648578529025,2023-12-07 15h09.24.675244 -0500,
11,"[-0.64, -0.4]",space,0,17,17,17,,,,,,,,,136.27085269999225,,,,,,,,,,,,,,,,,,,,,,,,,,,,136.25549840007443,136.27085269999225,136.27085269999225,136.77093130000867,136.77093130000867,139.270828000037,139.270828000037,139.25429340009578,space,1,0.3800741999875754,None,,,,,,,,,,,,,,,,,,,,,,,,,,,,,,,,,,,,,,,,,,,nback3,001,2023-12-07_13h31.39.066,untitled,2023.2.3,60.13648578529025,2023-12-07 15h09.24.675244 -0500,
11,"[-0.64, -0.4]",space,0,18,18,18,,,,,,,,,139.270828000037,,,,,,,,,,,,,,,,,,,,,,,,,,,,139.25468100002035,139.270828000037,139.270828000037,139.77059430000372,139.77059430000372,142.27073300001211,142.27073300001211,142.25496650009882,space,1,0.44691559998318553,None,,,,,,,,,,,,,,,,,,,,,,,,,,,,,,,,,,,,,,,,,,,nback3,001,2023-12-07_13h31.39.066,untitled,2023.2.3,60.13648578529025,2023-12-07 15h09.24.675244 -0500,
7,"[0.3, 0]",None,0,19,19,19,,,,,,,,,142.27073300001211,,,,,,,,,,,,,,,,,,,,,,,,,,,,142.25583670008928,142.27073300001211,142.27073300001211,142.77086300007068,142.77086300007068,145.27062200009823,145.27062200009823,145.25474600004964,None,1,,,,,,,,,,,,,,,,,,,,,,,,,,,,,,,,,,,,,,,,,,,,,nback3,001,2023-12-07_13h31.39.066,untitled,2023.2.3,60.13648578529025,2023-12-07 15h09.24.675244 -0500,
3,"[0, 0.2]",None,0,20,20,20,,,,,,,,,145.27062200009823,,,,,,,,,,,,,,,,,,,,,,,,,,,,145.25548120005988,145.27062200009823,145.27062200009823,145.77065120008774,145.77065120008774,148.2707706000656,148.2707706000656,148.25483940006234,None,1,,,,,,,,,,,,,,,,,,,,,,,,,,,,,,,,,,,,,,,,,,,,,nback3,001,2023-12-07_13h31.39.066,untitled,2023.2.3,60.13648578529025,2023-12-07 15h09.24.675244 -0500,
10,"[0, -0.2]",None,0,21,21,21,,,,,,,,,148.2707706000656,,,,,,,,,,,,,,,,,,,,,,,,,,,,148.25552990008146,148.2707706000656,148.2707706000656,148.77065170009155,148.77065170009155,151.2705530000385,151.2705530000385,151.2547295000404,None,1,,,,,,,,,,,,,,,,,,,,,,,,,,,,,,,,,,,,,,,,,,,,,nback3,001,2023-12-07_13h31.39.066,untitled,2023.2.3,60.13648578529025,2023-12-07 15h09.24.675244 -0500,
1,"[-0.64, 0.4]",None,0,22,22,22,,,,,,,,,151.2705530000385,,,,,,,,,,,,,,,,,,,,,,,,,,,,151.25539639999624,151.2705530000385,151.2705530000385,151.77049360005185,151.77049360005185,154.27049990009982,154.27049990009982,154.2552219000645,None,1,,,,,,,,,,,,,,,,,,,,,,,,,,,,,,,,,,,,,,,,,,,,,nback3,001,2023-12-07_13h31.39.066,untitled,2023.2.3,60.13648578529025,2023-12-07 15h09.24.675244 -0500,
2,"[0.64, 0.4]",None,0,23,23,23,,,,,,,,,154.27049990009982,,,,,,,,,,,,,,,,,,,,,,,,,,,,154.25595810008235,154.27049990009982,154.27049990009982,154.77037230005953,154.77037230005953,157.27049410005566,157.27049410005566,157.25455250008963,None,1,,,,,,,,,,,,,,,,,,,,,,,,,,,,,,,,,,,,,,,,,,,,,nback3,001,2023-12-07_13h31.39.066,untitled,2023.2.3,60.13648578529025,2023-12-07 15h09.24.675244 -0500,
6,"[-0.3, 0]",None,0,24,24,24,,,,,,,,,157.27049410005566,,,,,,,,,,,,,,,,,,,,,,,,,,,,157.2552307000151,157.27049410005566,157.27049410005566,157.77030450000893,157.77030450000893,160.2701812000014,160.2701812000014,160.25444450008217,None,1,,,,,,,,,,,,,,,,,,,,,,,,,,,,,,,,,,,,,,,,,,,,,nback3,001,2023-12-07_13h31.39.066,untitled,2023.2.3,60.13648578529025,2023-12-07 15h09.24.675244 -0500,
3,"[0, 0.2]",None,0,25,25,25,,,,,,,,,160.2701812000014,,,,,,,,,,,,,,,,,,,,,,,,,,,,160.25499929999933,160.2701812000014,160.2701812000014,160.77034150005784,160.77034150005784,163.27023920009378,163.27023920009378,163.25463970005512,None,1,,,,,,,,,,,,,,,,,,,,,,,,,,,,,,,,,,,,,,,,,,,,,nback3,001,2023-12-07_13h31.39.066,untitled,2023.2.3,60.13648578529025,2023-12-07 15h09.24.675244 -0500,
11,"[-0.64, -0.4]",space,0,26,26,26,,,,,,,,,163.27023920009378,,,,,,,,,,,,,,,,,,,,,,,,,,,,163.2553919000784,163.27023920009378,163.27023920009378,163.770270200097,163.770270200097,166.2702777000377,166.2702777000377,166.25420130009297,space,1,0.38619430002290756,None,,,,,,,,,,,,,,,,,,,,,,,,,,,,,,,,,,,,,,,,,,,nback3,001,2023-12-07_13h31.39.066,untitled,2023.2.3,60.13648578529025,2023-12-07 15h09.24.675244 -0500,
1,"[-0.64, 0.4]",None,0,27,27,27,,,,,,,,,166.2702777000377,,,,,,,,,,,,,,,,,,,,,,,,,,,,166.25491230003536,166.2702777000377,166.2702777000377,166.77015080000274,166.77015080000274,169.2701653999975,169.2701653999975,169.25394960003905,None,1,,,,,,,,,,,,,,,,,,,,,,,,,,,,,,,,,,,,,,,,,,,,,nback3,001,2023-12-07_13h31.39.066,untitled,2023.2.3,60.13648578529025,2023-12-07 15h09.24.675244 -0500,
3,"[0, 0.2]",None,0,28,28,28,,,,,,,,,169.2701653999975,,,,,,,,,,,,,,,,,,,,,,,,,,,,169.25431180000305,169.2701653999975,169.2701653999975,169.7701830000151,169.7701830000151,172.27022160007618,172.27022160007618,172.25434050010517,None,1,,,,,,,,,,,,,,,,,,,,,,,,,,,,,,,,,,,,,,,,,,,,,nback3,001,2023-12-07_13h31.39.066,untitled,2023.2.3,60.13648578529025,2023-12-07 15h09.24.675244 -0500,
9,"[0.2, -0.1]",None,0,29,29,29,,,,,,,,,172.27022160007618,,,,,,,,,,,,,,,,,,,,,,,,,,,,172.25498290010728,172.27022160007618,172.27022160007618,172.77017360005993,172.77017360005993,175.27000180003233,175.27000180003233,175.25410660007037,None,1,,,,,,,,,,,,,,,,,,,,,,,,,,,,,,,,,,,,,,,,,,,,,nback3,001,2023-12-07_13h31.39.066,untitled,2023.2.3,60.13648578529025,2023-12-07 15h09.24.675244 -0500,
8,"[-0.2, -0.1]",None,0,30,30,30,,,,,,,,,175.27000180003233,,,,,,,,,,,,,,,,,,,,,,,,,,,,175.2546172000002,175.27000180003233,175.27000180003233,175.76998960005585,175.76998960005585,178.26992360001896,178.26992360001896,178.2544147000881,None,1,,,,,,,,,,,,,,,,,,,,,,,,,,,,,,,,,,,,,,,,,,,,,nback3,001,2023-12-07_13h31.39.066,untitled,2023.2.3,60.13648578529025,2023-12-07 15h09.24.675244 -0500,
12,"[0.64, -0.4]",None,0,31,31,31,,,,,,,,,178.26992360001896,,,,,,,,,,,,,,,,,,,,,,,,,,,,178.2552467000205,178.26992360001896,178.26992360001896,178.77007250010502,178.77007250010502,181.2699390000198,181.2699390000198,181.25394010008313,None,1,,,,,,,,,,,,,,,,,,,,,,,,,,,,,,,,,,,,,,,,,,,,,nback3,001,2023-12-07_13h31.39.066,untitled,2023.2.3,60.13648578529025,2023-12-07 15h09.24.675244 -0500,
9,"[0.2, -0.1]",None,0,32,32,32,,,,,,,,,181.2699390000198,,,,,,,,,,,,,,,,,,,,,,,,,,,,181.25442130002193,181.2699390000198,181.2699390000198,181.77001860004384,181.77001860004384,184.26981210010126,184.26981210010126,184.2539433001075,None,1,,,,,,,,,,,,,,,,,,,,,,,,,,,,,,,,,,,,,,,,,,,,,nback3,001,2023-12-07_13h31.39.066,untitled,2023.2.3,60.13648578529025,2023-12-07 15h09.24.675244 -0500,
11,"[-0.64, -0.4]",space,0,33,33,33,,,,,,,,,184.26981210010126,,,,,,,,,,,,,,,,,,,,,,,,,,,,184.2544563000556,184.26981210010126,184.26981210010126,184.76996080006938,184.76996080006938,187.26996120007243,187.26996120007243,187.25421630009077,space,1,0.3847253000130877,None,,,,,,,,,,,,,,,,,,,,,,,,,,,,,,,,,,,,,,,,,,,nback3,001,2023-12-07_13h31.39.066,untitled,2023.2.3,60.13648578529025,2023-12-07 15h09.24.675244 -0500,
7,"[0.3, 0]",None,0,34,34,34,,,,,,,,,187.26996120007243,,,,,,,,,,,,,,,,,,,,,,,,,,,,187.25516810000408,187.26996120007243,187.26996120007243,187.77008899999782,187.77008899999782,190.2698019000236,190.2698019000236,190.25393330003135,None,1,,,,,,,,,,,,,,,,,,,,,,,,,,,,,,,,,,,,,,,,,,,,,nback3,001,2023-12-07_13h31.39.066,untitled,2023.2.3,60.13648578529025,2023-12-07 15h09.24.675244 -0500,
11,"[-0.64, -0.4]",space,0,35,35,35,,,,,,,,,190.2698019000236,,,,,,,,,,,,,,,,,,,,,,,,,,,,190.25461150007322,190.2698019000236,190.2698019000236,190.76988760009408,190.76988760009408,193.26987220009323,193.26987220009323,193.2540170000866,space,1,0.3945086000021547,None,,,,,,,,,,,,,,,,,,,,,,,,,,,,,,,,,,,,,,,,,,,nback3,001,2023-12-07_13h31.39.066,untitled,2023.2.3,60.13648578529025,2023-12-07 15h09.24.675244 -0500,
4,"[-0.2, 0.1]",None,0,36,36,36,,,,,,,,,193.26987220009323,,,,,,,,,,,,,,,,,,,,,,,,,,,,193.25498399999924,193.26987220009323,193.26987220009323,193.7697908000555,193.7697908000555,196.2697703000158,196.2697703000158,196.25380940001924,None,1,,,,,,,,,,,,,,,,,,,,,,,,,,,,,,,,,,,,,,,,,,,,,nback3,001,2023-12-07_13h31.39.066,untitled,2023.2.3,60.13648578529025,2023-12-07 15h09.24.675244 -0500,
5,"[0.2, 0.1]",None,0,37,37,37,,,,,,,,,196.2697703000158,,,,,,,,,,,,,,,,,,,,,,,,,,,,196.25434470002074,196.2697703000158,196.2697703000158,196.76968460006174,196.76968460006174,199.26978420000523,199.26978420000523,199.2540993000148,None,1,,,,,,,,,,,,,,,,,,,,,,,,,,,,,,,,,,,,,,,,,,,,,nback3,001,2023-12-07_13h31.39.066,untitled,2023.2.3,60.13648578529025,2023-12-07 15h09.24.675244 -0500,
6,"[-0.3, 0]",None,0,38,38,38,,,,,,,,,199.26978420000523,,,,,,,,,,,,,,,,,,,,,,,,,,,,199.2548933000071,199.26978420000523,199.26978420000523,199.7698151000077,199.7698151000077,202.26966910006013,202.26966910006013,202.25413020001724,None,1,,,,,,,,,,,,,,,,,,,,,,,,,,,,,,,,,,,,,,,,,,,,,nback3,001,2023-12-07_13h31.39.066,untitled,2023.2.3,60.13648578529025,2023-12-07 15h09.24.675244 -0500,
11,"[-0.64, -0.4]",space,0,39,39,39,,,,,,,,,202.26966910006013,,,,,,,,,,,,,,,,,,,,,,,,,,,,202.25492990005296,202.26966910006013,202.26966910006013,202.76965950010344,202.76965950010344,205.26975279999897,205.26975279999897,205.2536773000611,space,1,0.3424951999913901,None,,,,,,,,,,,,,,,,,,,,,,,,,,,,,,,,,,,,,,,,,,,nback3,001,2023-12-07_13h31.39.066,untitled,2023.2.3,60.13648578529025,2023-12-07 15h09.24.675244 -0500,
,,,,,,,,,,,,,,,,,,,,,,,,,,,,,,,,,,,,,,,,,,,,,,,,,,,,,,,205.25424870010465,205.26975279999897,205.26975279999897,225.92089040006977,space,20.64436769997701,None,,,,,,,,,,,,,,,,,,,,,,,,,,,,,,,,,,,,nback3,001,2023-12-07_13h31.39.066,untitled,2023.2.3,60.13648578529025,2023-12-07 15h09.24.675244 -0500,
10,"[0, -0.2]",None,,,,,0,0,0,0,,,,,226.93589190009516,,,,,,,,,,,,,,,,,,,,,,,,225.92093500006013,225.93592250009533,226.93589190009516,226.92027100000996,,,,,,,,,,,,,,,,,,,,226.92843280010857,226.93589190009516,226.93589190009516,227.43588570004795,227.43588570004795,229.9358637999976,229.9358637999976,229.9202246000059,None,1,,,,,,,,,,,,,,,,,,,,,,,,,,nback3,001,2023-12-07_13h31.39.066,untitled,2023.2.3,60.13648578529025,2023-12-07 15h09.24.675244 -0500,
5,"[0.2, 0.1]",None,,,,,0,1,1,1,,,,,229.9358637999976,,,,,,,,,,,,,,,,,,,,,,,,,,,,,,,,,,,,,,,,,,,,,,,229.92134580004495,229.9358637999976,229.9358637999976,230.43586000008509,230.43586000008509,232.93583490001038,232.93583490001038,232.92013210000005,None,1,,,,,,,,,,,,,,,,,,,,,,,,,,nback3,001,2023-12-07_13h31.39.066,untitled,2023.2.3,60.13648578529025,2023-12-07 15h09.24.675244 -0500,
6,"[-0.3, 0]",None,,,,,0,2,2,2,,,,,232.93583490001038,,,,,,,,,,,,,,,,,,,,,,,,,,,,,,,,,,,,,,,,,,,,,,,232.92075540008955,232.93583490001038,232.93583490001038,233.43578970001545,233.43578970001545,235.93577050010208,235.93577050010208,235.91985730000306,None,1,,,,,,,,,,,,,,,,,,,,,,,,,,nback3,001,2023-12-07_13h31.39.066,untitled,2023.2.3,60.13648578529025,2023-12-07 15h09.24.675244 -0500,
6,"[-0.3, 0]",space,,,,,0,3,3,3,,,,,235.93577050010208,,,,,,,,,,,,,,,,,,,,,,,,,,,,,,,,,,,,,,,,,,,,,,,235.9205309000099,235.93577050010208,235.93577050010208,236.43599860009272,236.43599860009272,238.93571099999826,238.93571099999826,238.9199558000546,space,1,0.42608350003138185,None,,,,,,,,,,,,,,,,,,,,,,,,nback3,001,2023-12-07_13h31.39.066,untitled,2023.2.3,60.13648578529025,2023-12-07 15h09.24.675244 -0500,
12,"[0.64, -0.4]",None,,,,,0,4,4,4,,,,,238.93571099999826,,,,,,,,,,,,,,,,,,,,,,,,,,,,,,,,,,,,,,,,,,,,,,,238.92103190009948,238.93571099999826,238.93571099999826,239.43559490004554,239.43559490004554,241.93572460010182,241.93572460010182,241.919484400074,None,1,,,,,,,,,,,,,,,,,,,,,,,,,,nback3,001,2023-12-07_13h31.39.066,untitled,2023.2.3,60.13648578529025,2023-12-07 15h09.24.675244 -0500,
10,"[0, -0.2]",None,,,,,0,5,5,5,,,,,241.93572460010182,,,,,,,,,,,,,,,,,,,,,,,,,,,,,,,,,,,,,,,,,,,,,,,241.9200616000453,241.93572460010182,241.93572460010182,242.435550800059,242.435550800059,244.93572559999302,244.93572559999302,244.91969880007673,None,1,,,,,,,,,,,,,,,,,,,,,,,,,,nback3,001,2023-12-07_13h31.39.066,untitled,2023.2.3,60.13648578529025,2023-12-07 15h09.24.675244 -0500,
2,"[0.64, 0.4]",None,,,,,0,6,6,6,,,,,244.93572559999302,,,,,,,,,,,,,,,,,,,,,,,,,,,,,,,,,,,,,,,,,,,,,,,244.9203793000197,244.93572559999302,244.93572559999302,245.43564690009225,245.43564690009225,247.9356659000041,247.9356659000041,247.9193271000404,None,1,,,,,,,,,,,,,,,,,,,,,,,,,,nback3,001,2023-12-07_13h31.39.066,untitled,2023.2.3,60.13648578529025,2023-12-07 15h09.24.675244 -0500,
9,"[0.2, -0.1]",None,,,,,0,7,7,7,,,,,247.9356659000041,,,,,,,,,,,,,,,,,,,,,,,,,,,,,,,,,,,,,,,,,,,,,,,247.91981690004468,247.9356659000041,247.9356659000041,248.435455000028,248.435455000028,250.935573499999,250.935573499999,250.91998430003878,None,1,,,,,,,,,,,,,,,,,,,,,,,,,,nback3,001,2023-12-07_13h31.39.066,untitled,2023.2.3,60.13648578529025,2023-12-07 15h09.24.675244 -0500,
9,"[0.2, -0.1]",space,,,,,0,8,8,8,,,,,250.935573499999,,,,,,,,,,,,,,,,,,,,,,,,,,,,,,,,,,,,,,,,,,,,,,,250.9208572000498,250.935573499999,250.935573499999,251.43569010007195,251.43569010007195,253.9365148000652,253.9365148000652,253.9194857000839,space,1,0.4360752000939101,None,,,,,,,,,,,,,,,,,,,,,,,,nback3,001,2023-12-07_13h31.39.066,untitled,2023.2.3,60.13648578529025,2023-12-07 15h09.24.675244 -0500,
6,"[-0.3, 0]",None,,,,,0,9,9,9,,,,,253.9365148000652,,,,,,,,,,,,,,,,,,,,,,,,,,,,,,,,,,,,,,,,,,,,,,,253.9202582000289,253.9365148000652,253.9365148000652,254.45209150004666,254.4354010000825,256.9354514000006,,256.9356198000023,None,1,,,,,,,,,,,,,,,,,,,,,,,,,,nback3,001,2023-12-07_13h31.39.066,untitled,2023.2.3,60.13648578529025,2023-12-07 15h09.24.675244 -0500,
11,"[-0.64, -0.4]",None,,,,,0,10,10,10,,,,,256.95214840001427,,,,,,,,,,,,,,,,,,,,,,,,,,,,,,,,,,,,,,,,,,,,,,,256.9363935000729,256.95214840001427,256.95214840001427,257.45190290000755,257.43525340000633,259.9352191000944,,259.93530690006446,None,1,,,,,,,,,,,,,,,,,,,,,,,,,,nback3,001,2023-12-07_13h31.39.066,untitled,2023.2.3,60.13648578529025,2023-12-07 15h09.24.675244 -0500,
11,"[-0.64, -0.4]",space,,,,,0,11,11,11,,,,,259.95207470003515,,,,,,,,,,,,,,,,,,,,,,,,,,,,,,,,,,,,,,,,,,,,,,,259.93571340001654,259.95207470003515,259.95207470003515,260.4518079000991,260.4353060000576,262.9353679000633,,262.93556440004613,space,1,0.423115799902007,None,,,,,,,,,,,,,,,,,,,,,,,,nback3,001,2023-12-07_13h31.39.066,untitled,2023.2.3,60.13648578529025,2023-12-07 15h09.24.675244 -0500,
4,"[-0.2, 0.1]",None,,,,,0,12,12,12,,,,,262.9520231001079,,,,,,,,,,,,,,,,,,,,,,,,,,,,,,,,,,,,,,,,,,,,,,,262.93649620004,262.9520231001079,262.9520231001079,263.451877500047,263.43518610007595,265.93535840010736,,265.9358123000711,None,1,,,,,,,,,,,,,,,,,,,,,,,,,,nback3,001,2023-12-07_13h31.39.066,untitled,2023.2.3,60.13648578529025,2023-12-07 15h09.24.675244 -0500,
3,"[0, 0.2]",None,,,,,0,13,13,13,,,,,265.95209470007103,,,,,,,,,,,,,,,,,,,,,,,,,,,,,,,,,,,,,,,,,,,,,,,265.9365027000895,265.95209470007103,265.95209470007103,266.45172600005753,266.435213400051,268.93531670002267,,268.9355394000886,None,1,,,,,,,,,,,,,,,,,,,,,,,,,,nback3,001,2023-12-07_13h31.39.066,untitled,2023.2.3,60.13648578529025,2023-12-07 15h09.24.675244 -0500,
3,"[0, 0.2]",space,,,,,0,14,14,14,,,,,268.95194620010443,,,,,,,,,,,,,,,,,,,,,,,,,,,,,,,,,,,,,,,,,,,,,,,268.9363546000095,268.95194620010443,268.95194620010443,269.45176610001363,269.43507250002585,271.93514910002705,,271.93533360003494,space,1,0.42318539996631444,None,,,,,,,,,,,,,,,,,,,,,,,,nback3,001,2023-12-07_13h31.39.066,untitled,2023.2.3,60.13648578529025,2023-12-07 15h09.24.675244 -0500,
8,"[-0.2, -0.1]",None,,,,,0,15,15,15,,,,,271.95180560008157,,,,,,,,,,,,,,,,,,,,,,,,,,,,,,,,,,,,,,,,,,,,,,,271.93636170006357,271.95180560008157,271.95180560008157,272.4517021001084,272.43511000007857,274.9350745000411,,274.9352496000938,None,1,,,,,,,,,,,,,,,,,,,,,,,,,,nback3,001,2023-12-07_13h31.39.066,untitled,2023.2.3,60.13648578529025,2023-12-07 15h09.24.675244 -0500,
1,"[-0.64, 0.4]",None,,,,,0,16,16,16,,,,,274.9518811000744,,,,,,,,,,,,,,,,,,,,,,,,,,,,,,,,,,,,,,,,,,,,,,,274.9361232999945,274.9518811000744,274.9518811000744,275.45174620009493,275.43508880003355,277.935188600095,,277.9353353000479,None,1,,,,,,,,,,,,,,,,,,,,,,,,,,nback3,001,2023-12-07_13h31.39.066,untitled,2023.2.3,60.13648578529025,2023-12-07 15h09.24.675244 -0500,
2,"[0.64, 0.4]",None,,,,,0,17,17,17,,,,,277.9515530000208,,,,,,,,,,,,,,,,,,,,,,,,,,,,,,,,,,,,,,,,,,,,,,,277.93590300006326,277.9515530000208,277.9515530000208,278.45169150002766,278.4351215000497,280.9349953000201,,280.93509450007696,None,1,,,,,,,,,,,,,,,,,,,,,,,,,,nback3,001,2023-12-07_13h31.39.066,untitled,2023.2.3,60.13648578529025,2023-12-07 15h09.24.675244 -0500,
4,"[-0.2, 0.1]",None,,,,,0,18,18,18,,,,,280.951511100051,,,,,,,,,,,,,,,,,,,,,,,,,,,,,,,,,,,,,,,,,,,,,,,280.9354439000599,280.951511100051,280.951511100051,281.45136659999844,281.4347730000736,283.93479130009655,,283.9348876000149,None,1,,,,,,,,,,,,,,,,,,,,,,,,,,nback3,001,2023-12-07_13h31.39.066,untitled,2023.2.3,60.13648578529025,2023-12-07 15h09.24.675244 -0500,
4,"[-0.2, 0.1]",space,,,,,0,19,19,19,,,,,283.95141990005504,,,,,,,,,,,,,,,,,,,,,,,,,,,,,,,,,,,,,,,,,,,,,,,283.93525280000176,283.95141990005504,283.95141990005504,284.45157230005134,284.43469740008004,286.93465910002124,,286.9347599000903,space,1,0.39576270000543445,None,,,,,,,,,,,,,,,,,,,,,,,,nback3,001,2023-12-07_13h31.39.066,untitled,2023.2.3,60.13648578529025,2023-12-07 15h09.24.675244 -0500,
8,"[-0.2, -0.1]",None,,,,,0,20,20,20,,,,,286.95131350005977,,,,,,,,,,,,,,,,,,,,,,,,,,,,,,,,,,,,,,,,,,,,,,,286.9351818000432,286.95131350005977,286.95131350005977,287.45130580000114,287.43464740004856,289.93462750001345,,289.93473199999426,None,1,,,,,,,,,,,,,,,,,,,,,,,,,,nback3,001,2023-12-07_13h31.39.066,untitled,2023.2.3,60.13648578529025,2023-12-07 15h09.24.675244 -0500,
5,"[0.2, 0.1]",None,,,,,0,21,21,21,,,,,289.95132780005224,,,,,,,,,,,,,,,,,,,,,,,,,,,,,,,,,,,,,,,,,,,,,,,289.9352282000473,289.95132780005224,289.95132780005224,290.4512244000798,290.43456150009297,292.93501040001865,,292.9352069000015,None,1,,,,,,,,,,,,,,,,,,,,,,,,,,nback3,001,2023-12-07_13h31.39.066,untitled,2023.2.3,60.13648578529025,2023-12-07 15h09.24.675244 -0500,
5,"[0.2, 0.1]",space,,,,,0,22,22,22,,,,,292.9514516000636,,,,,,,,,,,,,,,,,,,,,,,,,,,,,,,,,,,,,,,,,,,,,,,292.93606970005203,292.9514516000636,292.9514516000636,293.4513501001056,293.43481350003276,295.9349621000001,,295.9351544000674,space,1,0.5457924000220373,None,,,,,,,,,,,,,,,,,,,,,,,,nback3,001,2023-12-07_13h31.39.066,untitled,2023.2.3,60.13648578529025,2023-12-07 15h09.24.675244 -0500,
1,"[-0.64, 0.4]",None,,,,,0,23,23,23,,,,,295.95137880009133,,,,,,,,,,,,,,,,,,,,,,,,,,,,,,,,,,,,,,,,,,,,,,,295.9359220000915,295.95137880009133,295.95137880009133,296.4519290000899,296.4346865999978,298.9348181000678,,298.93497240007855,None,1,,,,,,,,,,,,,,,,,,,,,,,,,,nback3,001,2023-12-07_13h31.39.066,untitled,2023.2.3,60.13648578529025,2023-12-07 15h09.24.675244 -0500,
3,"[0, 0.2]",None,,,,,0,24,24,24,,,,,298.9514309000224,,,,,,,,,,,,,,,,,,,,,,,,,,,,,,,,,,,,,,,,,,,,,,,298.93557550001424,298.9514309000224,298.9514309000224,299.4514228000771,299.4350701000076,301.9347200000193,,301.93488800001796,None,1,,,,,,,,,,,,,,,,,,,,,,,,,,nback3,001,2023-12-07_13h31.39.066,untitled,2023.2.3,60.13648578529025,2023-12-07 15h09.24.675244 -0500,
6,"[-0.3, 0]",None,,,,,0,25,25,25,,,,,301.9513429000508,,,,,,,,,,,,,,,,,,,,,,,,,,,,,,,,,,,,,,,,,,,,,,,301.9355609000195,301.9513429000508,301.9513429000508,302.4516089000972,302.43468860001303,304.9346947000595,,304.93486430007033,None,1,,,,,,,,,,,,,,,,,,,,,,,,,,nback3,001,2023-12-07_13h31.39.066,untitled,2023.2.3,60.13648578529025,2023-12-07 15h09.24.675244 -0500,
1,"[-0.64, 0.4]",None,,,,,0,26,26,26,,,,,304.95143700006884,,,,,,,,,,,,,,,,,,,,,,,,,,,,,,,,,,,,,,,,,,,,,,,304.9354829000076,304.95143700006884,304.95143700006884,305.4513053999981,305.4346000000369,307.93492300005164,,307.9350810000906,None,1,,,,,,,,,,,,,,,,,,,,,,,,,,nback3,001,2023-12-07_13h31.39.066,untitled,2023.2.3,60.13648578529025,2023-12-07 15h09.24.675244 -0500,
1,"[-0.64, 0.4]",space,,,,,0,27,27,27,,,,,307.95134820009116,,,,,,,,,,,,,,,,,,,,,,,,,,,,,,,,,,,,,,,,,,,,,,,307.9357300000265,307.95134820009116,307.95134820009116,308.45144450000953,308.4344801000552,310.93460500007495,,310.9348020000616,space,1,0.47387590003199875,None,,,,,,,,,,,,,,,,,,,,,,,,nback3,001,2023-12-07_13h31.39.066,untitled,2023.2.3,60.13648578529025,2023-12-07 15h09.24.675244 -0500,
1,"[-0.64, 0.4]",space,,,,,0,28,28,28,,,,,310.95133599999826,,,,,,,,,,,,,,,,,,,,,,,,,,,,,,,,,,,,,,,,,,,,,,,310.9357373000821,310.95133599999826,310.95133599999826,311.45110710000154,311.43449370004237,313.93454650009517,,313.93473930004984,space,1,0.45434410008601844,None,,,,,,,,,,,,,,,,,,,,,,,,nback3,001,2023-12-07_13h31.39.066,untitled,2023.2.3,60.13648578529025,2023-12-07 15h09.24.675244 -0500,
3,"[0, 0.2]",None,,,,,0,29,29,29,,,,,313.95120960008353,,,,,,,,,,,,,,,,,,,,,,,,,,,,,,,,,,,,,,,,,,,,,,,313.93566060008015,313.95120960008353,313.95120960008353,314.45101270009764,314.43433850002475,316.9344815000659,,316.9346460000379,None,1,,,,,,,,,,,,,,,,,,,,,,,,,,nback3,001,2023-12-07_13h31.39.066,untitled,2023.2.3,60.13648578529025,2023-12-07 15h09.24.675244 -0500,
12,"[0.64, -0.4]",None,,,,,0,30,30,30,,,,,316.95120330003556,,,,,,,,,,,,,,,,,,,,,,,,,,,,,,,,,,,,,,,,,,,,,,,316.9354048999958,316.95120330003556,316.95120330003556,317.4509605000494,317.4342196000507,319.9343620000873,,319.934519500006,None,1,,,,,,,,,,,,,,,,,,,,,,,,,,nback3,001,2023-12-07_13h31.39.066,untitled,2023.2.3,60.13648578529025,2023-12-07 15h09.24.675244 -0500,
12,"[0.64, -0.4]",space,,,,,0,31,31,31,,,,,319.95101520000026,,,,,,,,,,,,,,,,,,,,,,,,,,,,,,,,,,,,,,,,,,,,,,,319.9352026000852,319.95101520000026,319.95101520000026,320.45088200003374,320.43432640004903,322.93431810010225,,322.93446240003686,space,1,0.4648143000667915,None,,,,,,,,,,,,,,,,,,,,,,,,nback3,001,2023-12-07_13h31.39.066,untitled,2023.2.3,60.13648578529025,2023-12-07 15h09.24.675244 -0500,
2,"[0.64, 0.4]",None,,,,,0,32,32,32,,,,,322.951019500033,,,,,,,,,,,,,,,,,,,,,,,,,,,,,,,,,,,,,,,,,,,,,,,322.9351542000659,322.951019500033,322.951019500033,323.45088800007943,323.43435900006443,325.93422100006137,,325.9343795001041,None,1,,,,,,,,,,,,,,,,,,,,,,,,,,nback3,001,2023-12-07_13h31.39.066,untitled,2023.2.3,60.13648578529025,2023-12-07 15h09.24.675244 -0500,
1,"[-0.64, 0.4]",None,,,,,0,33,33,33,,,,,325.9509942000732,,,,,,,,,,,,,,,,,,,,,,,,,,,,,,,,,,,,,,,,,,,,,,,325.935034400085,325.9509942000732,325.9509942000732,326.45089340000413,326.43421219999436,328.93427250010427,,328.9344628000399,None,1,,,,,,,,,,,,,,,,,,,,,,,,,,nback3,001,2023-12-07_13h31.39.066,untitled,2023.2.3,60.13648578529025,2023-12-07 15h09.24.675244 -0500,
7,"[0.3, 0]",None,,,,,0,34,34,34,,,,,328.95076610008255,,,,,,,,,,,,,,,,,,,,,,,,,,,,,,,,,,,,,,,,,,,,,,,328.9351780000143,328.95076610008255,328.95076610008255,329.4508076000493,329.43408290005755,331.9342440000037,,331.93441050010733,None,1,,,,,,,,,,,,,,,,,,,,,,,,,,nback3,001,2023-12-07_13h31.39.066,untitled,2023.2.3,60.13648578529025,2023-12-07 15h09.24.675244 -0500,
7,"[0.3, 0]",space,,,,,0,35,35,35,,,,,331.95098470000084,,,,,,,,,,,,,,,,,,,,,,,,,,,,,,,,,,,,,,,,,,,,,,,331.9350540000014,331.95098470000084,331.95098470000084,332.4507872000104,332.4341169000836,334.93425680010114,,334.9344442000147,space,1,0.4025715000461787,None,,,,,,,,,,,,,,,,,,,,,,,,nback3,001,2023-12-07_13h31.39.066,untitled,2023.2.3,60.13648578529025,2023-12-07 15h09.24.675244 -0500,
11,"[-0.64, -0.4]",None,,,,,0,36,36,36,,,,,334.9508827000391,,,,,,,,,,,,,,,,,,,,,,,,,,,,,,,,,,,,,,,,,,,,,,,334.9353986000642,334.9508827000391,334.9508827000391,335.4507766000461,335.4340776000172,337.9341105000349,,337.93429610005114,None,1,,,,,,,,,,,,,,,,,,,,,,,,,,nback3,001,2023-12-07_13h31.39.066,untitled,2023.2.3,60.13648578529025,2023-12-07 15h09.24.675244 -0500,
2,"[0.64, 0.4]",None,,,,,0,37,37,37,,,,,337.9507494000718,,,,,,,,,,,,,,,,,,,,,,,,,,,,,,,,,,,,,,,,,,,,,,,337.935076200054,337.9507494000718,337.9507494000718,338.4506478999974,338.4340792000294,340.93400710006244,,340.9341808001045,None,1,,,,,,,,,,,,,,,,,,,,,,,,,,nback3,001,2023-12-07_13h31.39.066,untitled,2023.2.3,60.13648578529025,2023-12-07 15h09.24.675244 -0500,
6,"[-0.3, 0]",None,,,,,0,38,38,38,,,,,340.95074360002764,,,,,,,,,,,,,,,,,,,,,,,,,,,,,,,,,,,,,,,,,,,,,,,340.93490800005384,340.95074360002764,340.95074360002764,341.4505779000465,341.43393590010237,343.9340245000785,,343.93422620010097,None,1,,,,,,,,,,,,,,,,,,,,,,,,,,nback3,001,2023-12-07_13h31.39.066,untitled,2023.2.3,60.13648578529025,2023-12-07 15h09.24.675244 -0500,
10,"[0, -0.2]",None,,,,,0,39,39,39,,,,,343.9505442000227,,,,,,,,,,,,,,,,,,,,,,,,,,,,,,,,,,,,,,,,,,,,,,,343.93501640006434,343.9505442000227,343.9505442000227,344.4505287000211,344.4338698000647,346.93394810007885,,346.9341396000236,None,1,,,,,,,,,,,,,,,,,,,,,,,,,,nback3,001,2023-12-07_13h31.39.066,untitled,2023.2.3,60.13648578529025,2023-12-07 15h09.24.675244 -0500,
,,,,,,,,,,,,,,,,,,,,,,,,,,,,,,,,,,,,,,,,,,,,,,,,,,,,,,,,,,,,,,,,,,,,,,,,,,346.9346660000738,346.95079690008424,346.95079690008424,369.6850207000971,space,22.725403300020844,None,,,,,,,,,,,,,,,,,nback3,001,2023-12-07_13h31.39.066,untitled,2023.2.3,60.13648578529025,2023-12-07 15h09.24.675244 -0500,
,"[0.2, 0.1]",None,,,,,,,,,0,0,0,0,370.70004940009676,,,,,,,,,,,,,,,,,,,,,,,,369.68506090005394,369.70006420009304,370.70004940009676,370.6840096000815,,,,,,,,,,,,,,,,,,,,,,,,,,,,,,,,,,,,,,,370.69488520000596,370.70004940009676,370.70004940009676,371.20012000005227,371.20012000005227,373.7002532000188,373.7002532000188,373.68439569999464,None,1,,,,,,,nback3,001,2023-12-07_13h31.39.066,untitled,2023.2.3,60.13648578529025,2023-12-07 15h09.24.675244 -0500,
,"[0.64, 0.4]",None,,,,,,,,,0,1,1,1,373.7002532000188,,,,,,,,,,,,,,,,,,,,,,,,,,,,,,,,,,,,,,,,,,,,,,,,,,,,,,,,,,,,,,,,,,373.6852039000951,373.7002532000188,373.7002532000188,374.20016790006775,374.20016790006775,376.700153300073,376.700153300073,376.6845844000345,None,1,,,,,,,nback3,001,2023-12-07_13h31.39.066,untitled,2023.2.3,60.13648578529025,2023-12-07 15h09.24.675244 -0500,
,"[-0.3, 0]",None,,,,,,,,,0,2,2,2,376.700153300073,,,,,,,,,,,,,,,,,,,,,,,,,,,,,,,,,,,,,,,,,,,,,,,,,,,,,,,,,,,,,,,,,,376.6853648000397,376.700153300073,376.700153300073,377.20000750001054,377.20000750001054,379.7001207000576,379.7001207000576,379.68424020009115,None,1,,,,,,,nback3,001,2023-12-07_13h31.39.066,untitled,2023.2.3,60.13648578529025,2023-12-07 15h09.24.675244 -0500,
,"[0.2, -0.1]",None,,,,,,,,,0,3,3,3,379.7001207000576,,,,,,,,,,,,,,,,,,,,,,,,,,,,,,,,,,,,,,,,,,,,,,,,,,,,,,,,,,,,,,,,,,379.6848121000221,379.7001207000576,379.7001207000576,380.19984790007584,380.19984790007584,382.700013600057,382.700013600057,382.6843881000532,None,1,,,,,,,nback3,001,2023-12-07_13h31.39.066,untitled,2023.2.3,60.13648578529025,2023-12-07 15h09.24.675244 -0500,
,"[0, 0.2]",None,,,,,,,,,0,4,4,4,382.700013600057,,,,,,,,,,,,,,,,,,,,,,,,,,,,,,,,,,,,,,,,,,,,,,,,,,,,,,,,,,,,,,,,,,382.6850458000554,382.700013600057,382.700013600057,383.1999698000727,383.1999698000727,385.6999116000952,385.6999116000952,385.6840393000748,None,1,,,,,,,nback3,001,2023-12-07_13h31.39.066,untitled,2023.2.3,60.13648578529025,2023-12-07 15h09.24.675244 -0500,
,"[0.2, -0.1]",space,,,,,,,,,0,5,5,5,385.6999116000952,,,,,,,,,,,,,,,,,,,,,,,,,,,,,,,,,,,,,,,,,,,,,,,,,,,,,,,,,,,,,,,,,,385.68464670004323,385.6999116000952,385.6999116000952,386.1998089000117,386.1998089000117,388.6999057000503,388.6999057000503,388.6838160000043,space,1,0.4285639999434352,None,,,,,nback3,001,2023-12-07_13h31.39.066,untitled,2023.2.3,60.13648578529025,2023-12-07 15h09.24.675244 -0500,
,"[0, -0.2]",None,,,,,,,,,0,6,6,6,388.6999057000503,,,,,,,,,,,,,,,,,,,,,,,,,,,,,,,,,,,,,,,,,,,,,,,,,,,,,,,,,,,,,,,,,,388.68451000005007,388.6999057000503,388.6999057000503,389.1998969000997,389.1998969000997,391.6996993999928,391.6996993999928,391.68407390010543,space,0,2.0135157000040635,None,,,,,nback3,001,2023-12-07_13h31.39.066,untitled,2023.2.3,60.13648578529025,2023-12-07 15h09.24.675244 -0500,
,"[0.64, -0.4]",None,,,,,,,,,0,7,7,7,391.6996993999928,,,,,,,,,,,,,,,,,,,,,,,,,,,,,,,,,,,,,,,,,,,,,,,,,,,,,,,,,,,,,,,,,,391.68477500008885,391.6996993999928,391.6996993999928,392.19968070008326,392.19968070008326,394.6998439000454,394.6998439000454,394.68410490010865,None,1,,,,,,,nback3,001,2023-12-07_13h31.39.066,untitled,2023.2.3,60.13648578529025,2023-12-07 15h09.24.675244 -0500,
,"[0.3, 0]",None,,,,,,,,,0,8,8,8,394.6998439000454,,,,,,,,,,,,,,,,,,,,,,,,,,,,,,,,,,,,,,,,,,,,,,,,,,,,,,,,,,,,,,,,,,394.68487070000265,394.6998439000454,394.6998439000454,395.199630200048,395.199630200048,397.6997609999962,397.6997609999962,397.6839715000242,None,1,,,,,,,nback3,001,2023-12-07_13h31.39.066,untitled,2023.2.3,60.13648578529025,2023-12-07 15h09.24.675244 -0500,
,"[0.64, -0.4]",space,,,,,,,,,0,9,9,9,397.6997609999962,,,,,,,,,,,,,,,,,,,,,,,,,,,,,,,,,,,,,,,,,,,,,,,,,,,,,,,,,,,,,,,,,,397.68459210009314,397.6997609999962,397.6997609999962,398.19967870006803,398.19967870006803,400.69977900001686,400.69977900001686,400.68397840007674,space,1,0.6013739999616519,None,,,,,nback3,001,2023-12-07_13h31.39.066,untitled,2023.2.3,60.13648578529025,2023-12-07 15h09.24.675244 -0500,
,"[-0.64, 0.4]",None,,,,,,,,,0,10,10,10,400.69977900001686,,,,,,,,,,,,,,,,,,,,,,,,,,,,,,,,,,,,,,,,,,,,,,,,,,,,,,,,,,,,,,,,,,400.6849632000085,400.69977900001686,400.69977900001686,401.1996438000351,401.1996438000351,403.6995349000208,403.6995349000208,403.68378429999575,None,1,,,,,,,nback3,001,2023-12-07_13h31.39.066,untitled,2023.2.3,60.13648578529025,2023-12-07 15h09.24.675244 -0500,
,"[0.2, 0.1]",None,,,,,,,,,0,11,11,11,403.6995349000208,,,,,,,,,,,,,,,,,,,,,,,,,,,,,,,,,,,,,,,,,,,,,,,,,,,,,,,,,,,,,,,,,,403.68443320004735,403.6995349000208,403.6995349000208,404.1995064000366,404.1995064000366,406.6995989000425,406.6995989000425,406.68420920008793,None,1,,,,,,,nback3,001,2023-12-07_13h31.39.066,untitled,2023.2.3,60.13648578529025,2023-12-07 15h09.24.675244 -0500,
,"[0.3, 0]",None,,,,,,,,,0,12,12,12,406.6995989000425,,,,,,,,,,,,,,,,,,,,,,,,,,,,,,,,,,,,,,,,,,,,,,,,,,,,,,,,,,,,,,,,,,406.68499570002314,406.6995989000425,406.6995989000425,407.19964680005796,407.19964680005796,409.69962460000534,409.69962460000534,409.68384460010566,None,1,,,,,,,nback3,001,2023-12-07_13h31.39.066,untitled,2023.2.3,60.13648578529025,2023-12-07 15h09.24.675244 -0500,
,"[0.2, 0.1]",space,,,,,,,,,0,13,13,13,409.69962460000534,,,,,,,,,,,,,,,,,,,,,,,,,,,,,,,,,,,,,,,,,,,,,,,,,,,,,,,,,,,,,,,,,,409.6846243001055,409.69962460000534,409.69962460000534,410.19951260008384,410.19951260008384,412.6994185000658,412.6994185000658,412.6836189000169,space,1,0.7001096000894904,None,,,,,nback3,001,2023-12-07_13h31.39.066,untitled,2023.2.3,60.13648578529025,2023-12-07 15h09.24.675244 -0500,
,"[-0.3, 0]",None,,,,,,,,,0,14,14,14,412.6994185000658,,,,,,,,,,,,,,,,,,,,,,,,,,,,,,,,,,,,,,,,,,,,,,,,,,,,,,,,,,,,,,,,,,412.68432190001477,412.6994185000658,412.6994185000658,413.1993797000032,413.1993797000032,415.6992529000854,415.6992529000854,415.6839373999974,None,1,,,,,,,nback3,001,2023-12-07_13h31.39.066,untitled,2023.2.3,60.13648578529025,2023-12-07 15h09.24.675244 -0500,
,"[0, 0.2]",None,,,,,,,,,0,15,15,15,415.6992529000854,,,,,,,,,,,,,,,,,,,,,,,,,,,,,,,,,,,,,,,,,,,,,,,,,,,,,,,,,,,,,,,,,,415.68475190002937,415.6992529000854,415.6992529000854,416.19934360007755,416.19934360007755,418.69932260003407,418.69932260003407,418.6836373000406,None,1,,,,,,,nback3,001,2023-12-07_13h31.39.066,untitled,2023.2.3,60.13648578529025,2023-12-07 15h09.24.675244 -0500,
,"[-0.3, 0]",space,,,,,,,,,0,16,16,16,418.69932260003407,,,,,,,,,,,,,,,,,,,,,,,,,,,,,,,,,,,,,,,,,,,,,,,,,,,,,,,,,,,,,,,,,,418.6844310000306,418.69932260003407,418.69932260003407,419.1994892000221,419.1994892000221,421.69938790006563,421.69938790006563,421.68360350001603,space,1,0.37704769999254495,None,,,,,nback3,001,2023-12-07_13h31.39.066,untitled,2023.2.3,60.13648578529025,2023-12-07 15h09.24.675244 -0500,
,"[-0.64, -0.4]",None,,,,,,,,,0,17,17,17,421.69938790006563,,,,,,,,,,,,,,,,,,,,,,,,,,,,,,,,,,,,,,,,,,,,,,,,,,,,,,,,,,,,,,,,,,421.68434370006435,421.69938790006563,421.69938790006563,422.1992482000496,422.1992482000496,424.6992253001081,424.6992253001081,424.6835648000706,None,1,,,,,,,nback3,001,2023-12-07_13h31.39.066,untitled,2023.2.3,60.13648578529025,2023-12-07 15h09.24.675244 -0500,
,"[-0.2, -0.1]",None,,,,,,,,,0,18,18,18,424.6992253001081,,,,,,,,,,,,,,,,,,,,,,,,,,,,,,,,,,,,,,,,,,,,,,,,,,,,,,,,,,,,,,,,,,424.6842028000392,424.6992253001081,424.6992253001081,425.199103299994,425.199103299994,427.6993665000191,427.6993665000191,427.68347280006856,None,1,,,,,,,nback3,001,2023-12-07_13h31.39.066,untitled,2023.2.3,60.13648578529025,2023-12-07 15h09.24.675244 -0500,
,"[0.2, -0.1]",None,,,,,,,,,0,19,19,19,427.6993665000191,,,,,,,,,,,,,,,,,,,,,,,,,,,,,,,,,,,,,,,,,,,,,,,,,,,,,,,,,,,,,,,,,,427.6842401000904,427.6993665000191,427.6993665000191,428.1991601000773,428.1991601000773,430.69918970006984,430.69918970006984,430.6834330999991,None,1,,,,,,,nback3,001,2023-12-07_13h31.39.066,untitled,2023.2.3,60.13648578529025,2023-12-07 15h09.24.675244 -0500,
,"[0.2, -0.1]",None,,,,,,,,,0,20,20,20,430.69918970006984,,,,,,,,,,,,,,,,,,,,,,,,,,,,,,,,,,,,,,,,,,,,,,,,,,,,,,,,,,,,,,,,,,430.6841185000958,430.69918970006984,430.69918970006984,431.1990439000074,431.1990439000074,433.6991101000458,433.6991101000458,433.68335360009223,None,1,,,,,,,nback3,001,2023-12-07_13h31.39.066,untitled,2023.2.3,60.13648578529025,2023-12-07 15h09.24.675244 -0500,
,"[-0.64, 0.4]",None,,,,,,,,,0,21,21,21,433.6991101000458,,,,,,,,,,,,,,,,,,,,,,,,,,,,,,,,,,,,,,,,,,,,,,,,,,,,,,,,,,,,,,,,,,433.68400990008377,433.6991101000458,433.6991101000458,434.19915160001256,434.19915160001256,436.6991352000041,436.6991352000041,436.6834621001035,None,1,,,,,,,nback3,001,2023-12-07_13h31.39.066,untitled,2023.2.3,60.13648578529025,2023-12-07 15h09.24.675244 -0500,
,"[0, 0.2]",None,,,,,,,,,0,22,22,22,436.6991352000041,,,,,,,,,,,,,,,,,,,,,,,,,,,,,,,,,,,,,,,,,,,,,,,,,,,,,,,,,,,,,,,,,,436.68418560002465,436.6991352000041,436.6991352000041,437.19889530004,437.19889530004,439.69905490009114,439.69905490009114,439.6831260001054,None,1,,,,,,,nback3,001,2023-12-07_13h31.39.066,untitled,2023.2.3,60.13648578529025,2023-12-07 15h09.24.675244 -0500,
,"[0.64, -0.4]",None,,,,,,,,,0,23,23,23,439.69905490009114,,,,,,,,,,,,,,,,,,,,,,,,,,,,,,,,,,,,,,,,,,,,,,,,,,,,,,,,,,,,,,,,,,439.68377370003145,439.69905490009114,439.69905490009114,440.1990524000721,440.1990524000721,442.69900130003225,442.69900130003225,442.68304590007756,None,1,,,,,,,nback3,001,2023-12-07_13h31.39.066,untitled,2023.2.3,60.13648578529025,2023-12-07 15h09.24.675244 -0500,
,"[0, 0.2]",space,,,,,,,,,0,24,24,24,442.69900130003225,,,,,,,,,,,,,,,,,,,,,,,,,,,,,,,,,,,,,,,,,,,,,,,,,,,,,,,,,,,,,,,,,,442.6836502000224,442.69900130003225,442.69900130003225,443.1988943000324,443.1988943000324,445.6988361000549,445.6988361000549,445.6830848000245,space,1,0.5775102999759838,None,,,,,nback3,001,2023-12-07_13h31.39.066,untitled,2023.2.3,60.13648578529025,2023-12-07 15h09.24.675244 -0500,
,"[-0.2, 0.1]",None,,,,,,,,,0,25,25,25,445.6988361000549,,,,,,,,,,,,,,,,,,,,,,,,,,,,,,,,,,,,,,,,,,,,,,,,,,,,,,,,,,,,,,,,,,445.68385110003874,445.6988361000549,445.6988361000549,446.1987052001059,446.1987052001059,448.6989298000699,448.6989298000699,448.68321330007166,None,1,,,,,,,nback3,001,2023-12-07_13h31.39.066,untitled,2023.2.3,60.13648578529025,2023-12-07 15h09.24.675244 -0500,
,"[0.3, 0]",None,,,,,,,,,0,26,26,26,448.6989298000699,,,,,,,,,,,,,,,,,,,,,,,,,,,,,,,,,,,,,,,,,,,,,,,,,,,,,,,,,,,,,,,,,,448.68405240005814,448.6989298000699,448.6989298000699,449.198899500072,449.198899500072,451.69886000000406,451.69886000000406,451.6829581001075,None,1,,,,,,,nback3,001,2023-12-07_13h31.39.066,untitled,2023.2.3,60.13648578529025,2023-12-07 15h09.24.675244 -0500,
,"[-0.2, 0.1]",space,,,,,,,,,0,27,27,27,451.69886000000406,,,,,,,,,,,,,,,,,,,,,,,,,,,,,,,,,,,,,,,,,,,,,,,,,,,,,,,,,,,,,,,,,,451.683646999998,451.69886000000406,451.69886000000406,452.1985976001015,452.1985976001015,454.6986961000366,454.6986961000366,454.6832466000924,space,1,0.5443947999738157,None,,,,,nback3,001,2023-12-07_13h31.39.066,untitled,2023.2.3,60.13648578529025,2023-12-07 15h09.24.675244 -0500,
,"[-0.2, 0.1]",None,,,,,,,,,0,28,28,28,454.6986961000366,,,,,,,,,,,,,,,,,,,,,,,,,,,,,,,,,,,,,,,,,,,,,,,,,,,,,,,,,,,,,,,,,,454.68403060000855,454.6986961000366,454.6986961000366,455.1986548000714,455.1986548000714,457.69881500001065,457.69881500001065,457.68350200005807,None,1,,,,,,,nback3,001,2023-12-07_13h31.39.066,untitled,2023.2.3,60.13648578529025,2023-12-07 15h09.24.675244 -0500,
,"[0.2, 0.1]",None,,,,,,,,,0,29,29,29,457.69881500001065,,,,,,,,,,,,,,,,,,,,,,,,,,,,,,,,,,,,,,,,,,,,,,,,,,,,,,,,,,,,,,,,,,457.68439260008745,457.69881500001065,457.69881500001065,458.19867920002434,458.19867920002434,460.6986884000944,460.6986884000944,460.683272400056,None,1,,,,,,,nback3,001,2023-12-07_13h31.39.066,untitled,2023.2.3,60.13648578529025,2023-12-07 15h09.24.675244 -0500,
,"[-0.64, -0.4]",None,,,,,,,,,0,30,30,30,460.6986884000944,,,,,,,,,,,,,,,,,,,,,,,,,,,,,,,,,,,,,,,,,,,,,,,,,,,,,,,,,,,,,,,,,,460.6840212000534,460.6986884000944,460.6986884000944,461.19865800009575,461.19865800009575,463.69866310001817,463.69866310001817,463.6827501000371,None,1,,,,,,,nback3,001,2023-12-07_13h31.39.066,untitled,2023.2.3,60.13648578529025,2023-12-07 15h09.24.675244 -0500,
,"[0, -0.2]",None,,,,,,,,,0,31,31,31,463.69866310001817,,,,,,,,,,,,,,,,,,,,,,,,,,,,,,,,,,,,,,,,,,,,,,,,,,,,,,,,,,,,,,,,,,463.68342210003175,463.69866310001817,463.69866310001817,464.19846600003075,464.19846600003075,466.69861550000496,466.69861550000496,466.6826256000204,None,1,,,,,,,nback3,001,2023-12-07_13h31.39.066,untitled,2023.2.3,60.13648578529025,2023-12-07 15h09.24.675244 -0500,
,"[-0.64, -0.4]",space,,,,,,,,,0,32,32,32,466.69861550000496,,,,,,,,,,,,,,,,,,,,,,,,,,,,,,,,,,,,,,,,,,,,,,,,,,,,,,,,,,,,,,,,,,466.68329300009646,466.69861550000496,466.69861550000496,467.19859919999726,467.19859919999726,469.6986072000582,469.6986072000582,469.6828616000712,space,1,0.6521164999576285,None,,,,,nback3,001,2023-12-07_13h31.39.066,untitled,2023.2.3,60.13648578529025,2023-12-07 15h09.24.675244 -0500,
,"[0.64, 0.4]",None,,,,,,,,,0,33,33,33,469.6986072000582,,,,,,,,,,,,,,,,,,,,,,,,,,,,,,,,,,,,,,,,,,,,,,,,,,,,,,,,,,,,,,,,,,469.68381950003095,469.6986072000582,469.6986072000582,470.1984860000666,470.1984860000666,472.6986115000909,472.6986115000909,472.68246250005905,None,1,,,,,,,nback3,001,2023-12-07_13h31.39.066,untitled,2023.2.3,60.13648578529025,2023-12-07 15h09.24.675244 -0500,
,"[-0.3, 0]",None,,,,,,,,,0,34,34,34,472.6986115000909,,,,,,,,,,,,,,,,,,,,,,,,,,,,,,,,,,,,,,,,,,,,,,,,,,,,,,,,,,,,,,,,,,472.68311520002317,472.6986115000909,472.6986115000909,473.19833120005205,473.19833120005205,475.6984482000116,475.6984482000116,475.68281950009987,None,1,,,,,,,nback3,001,2023-12-07_13h31.39.066,untitled,2023.2.3,60.13648578529025,2023-12-07 15h09.24.675244 -0500,
,"[0.3, 0]",None,,,,,,,,,0,35,35,35,475.6984482000116,,,,,,,,,,,,,,,,,,,,,,,,,,,,,,,,,,,,,,,,,,,,,,,,,,,,,,,,,,,,,,,,,,475.6836380000459,475.6984482000116,475.6984482000116,476.1983992001042,476.1983992001042,478.69848720007576,478.69848720007576,478.6824389999965,None,1,,,,,,,nback3,001,2023-12-07_13h31.39.066,untitled,2023.2.3,60.13648578529025,2023-12-07 15h09.24.675244 -0500,
,"[-0.3, 0]",space,,,,,,,,,0,36,36,36,478.69848720007576,,,,,,,,,,,,,,,,,,,,,,,,,,,,,,,,,,,,,,,,,,,,,,,,,,,,,,,,,,,,,,,,,,478.68313590006437,478.69848720007576,478.69848720007576,479.19834470003843,479.19834470003843,481.6982974000275,481.6982974000275,481.68254629999865,space,1,0.4644273000303656,None,,,,,nback3,001,2023-12-07_13h31.39.066,untitled,2023.2.3,60.13648578529025,2023-12-07 15h09.24.675244 -0500,
,"[0, -0.2]",None,,,,,,,,,0,37,37,37,481.6982974000275,,,,,,,,,,,,,,,,,,,,,,,,,,,,,,,,,,,,,,,,,,,,,,,,,,,,,,,,,,,,,,,,,,481.68338900001254,481.6982974000275,481.6982974000275,482.19816560007166,482.19816560007166,484.69842250004876,484.69842250004876,484.6826323000714,None,1,,,,,,,nback3,001,2023-12-07_13h31.39.066,untitled,2023.2.3,60.13648578529025,2023-12-07 15h09.24.675244 -0500,
,"[0.3, 0]",None,,,,,,,,,0,38,38,38,484.69842250004876,,,,,,,,,,,,,,,,,,,,,,,,,,,,,,,,,,,,,,,,,,,,,,,,,,,,,,,,,,,,,,,,,,484.68327830010094,484.69842250004876,484.69842250004876,485.19826880004257,485.19826880004257,487.69814980006777,487.69814980006777,487.682739400072,None,1,,,,,,,nback3,001,2023-12-07_13h31.39.066,untitled,2023.2.3,60.13648578529025,2023-12-07 15h09.24.675244 -0500,
,"[0.2, 0.1]",None,,,,,,,,,0,39,39,39,487.69814980006777,,,,,,,,,,,,,,,,,,,,,,,,,,,,,,,,,,,,,,,,,,,,,,,,,,,,,,,,,,,,,,,,,,487.68351580004673,487.69814980006777,487.69814980006777,488.19805640005507,488.19805640005507,490.69820620003156,490.69820620003156,490.6823834000388,None,1,,,,,,,nback3,001,2023-12-07_13h31.39.066,untitled,2023.2.3,60.13648578529025,2023-12-07 15h09.24.675244 -0500,
,,,,,,,,,,,,,,,,,,,,,,,,,,,,,,,,,,,,,,,,,,,,,,,,,,,,,,,,,,,,,,,,,,,,,,,,,,,,,,,,,,,,,,,,,,,,,490.68279880005866,490.69820620003156,493.69818530010525,493.682522600051,,,,,,,,
