square,location,corrAns,trials_0.thisRepN,trials_0.thisTrialN,trials_0.thisN,trials_0.thisIndex,trials_1.thisRepN,trials_1.thisTrialN,trials_1.thisN,trials_1.thisIndex,trials_2.thisRepN,trials_2.thisTrialN,trials_2.thisN,trials_2.thisIndex,thisRow.t,notes,Instructions.started,instructions.started,key_resp.started,inst_sq11.started,Instructions.stopped,key_resp.keys,key_resp.rt,key_resp.duration,All.started,sq_1.started,sq_2.started,sq_3.started,sq_4.started,sq_5.started,sq_6.started,sq_7.started,sq_8.started,sq_9.started,sq_10.started,sq_11.started,sq_12.started,All.stopped,Fixation.started,fixation_3.started,fixation_3.stopped,Fixation.stopped,N_back_0_Trial.started,target_square_0.started,response_0.started,fixation_0.started,target_square_0.stopped,fixation_0.stopped,N_back_0_Trial.stopped,response_0.keys,response_0.corr,response_0.rt,response_0.duration,Instructions_1.started,instructions_1.started,key_resp_1.started,Instructions_1.stopped,key_resp_1.keys,key_resp_1.rt,key_resp_1.duration,N_back_1_Trial.started,target_square_1.started,response_1.started,target_square_1.stopped,fixation_1.started,fixation_1.stopped,response_1.stopped,N_back_1_Trial.stopped,response_1.keys,response_1.corr,response_1.rt,response_1.duration,Instructions_2.started,instructions_2.started,key_resp_2.started,Instructions_2.stopped,key_resp_2.keys,key_resp_2.rt,key_resp_2.duration,N_back_2_trials.started,target_square_2.started,response_2.started,target_square_2.stopped,fixation_2.started,fixation_2.stopped,response_2.stopped,N_back_2_trials.stopped,response_2.keys,response_2.corr,response_2.rt,response_2.duration,End.started,thank_you.started,thank_you.stopped,End.stopped,participant,session,date,expName,psychopyVersion,frameRate,expStart,Unnamed: 103
,,,,,,,,,,,,,,,,,0.0013440999900922,0.0037759999977424,0.0037759999977424,0.0037759999977424,1575.975120200077,space,1575.9671575000975,None,,,,,,,,,,,,,,,,,,,,,,,,,,,,,,,,,,,,,,,,,,,,,,,,,,,,,,,,,,,,,,,,,,,,,,,,nback67,1.0,2024-01-22_17h04.19.015,untitled,2023.2.3,59.91044588103704,2024-01-22 17h10.45.205131 -0500,
6.0,"[-0.3, 0]",None,0.0,0.0,0.0,0.0,,,,,,,,,1577.9923005000455,,,,,,,,,,1575.975203900016,1575.989549000049,1575.989549000049,1575.989549000049,1575.989549000049,1575.989549000049,1575.989549000049,1575.989549000049,1575.989549000049,1575.989549000049,1575.989549000049,1575.989549000049,1575.989549000049,1576.973439100082,1576.9734564999817,1576.9896246000426,1577.9923005000455,1577.974261400057,1577.9903565000277,1577.9923005000455,1577.9923005000455,1578.4730574999703,1578.5060761000495,1580.97307800001,1580.9897217999678,None,1.0,,,,,,,,,,,,,,,,,,,,,,,,,,,,,,,,,,,,,,,,,,,,,nback67,1.0,2024-01-22_17h04.19.015,untitled,2023.2.3,59.91044588103704,2024-01-22 17h10.45.205131 -0500,
10.0,"[0, -0.2]",None,0.0,1.0,1.0,1.0,,,,,,,,,1581.0062290000496,,,,,,,,,,,,,,,,,,,,,,,,,,,,1580.9907867000438,1581.0062290000496,1581.0062290000496,1581.4729573000222,1581.5062051999848,1583.972997099976,1583.9897371999689,None,1.0,,,,,,,,,,,,,,,,,,,,,,,,,,,,,,,,,,,,,,,,,,,,,nback67,1.0,2024-01-22_17h04.19.015,untitled,2023.2.3,59.91044588103704,2024-01-22 17h10.45.205131 -0500,
11.0,"[-0.64, -0.4]",space,0.0,2.0,2.0,2.0,,,,,,,,,1584.0060842999956,,,,,,,,,,,,,,,,,,,,,,,,,,,,1583.9904804000398,1584.0060842999956,1584.0060842999956,1584.4728467999958,1584.5062048999823,1586.9728411000688,1586.9898160999874,space,1.0,0.4874357000226155,None,,,,,,,,,,,,,,,,,,,,,,,,,,,,,,,,,,,,,,,,,,,nback67,1.0,2024-01-22_17h04.19.015,untitled,2023.2.3,59.91044588103704,2024-01-22 17h10.45.205131 -0500,
12.0,"[0.64, -0.4]",None,0.0,3.0,3.0,3.0,,,,,,,,,1587.0060153000522,,,,,,,,,,,,,,,,,,,,,,,,,,,,1586.9909825000211,1587.0060153000522,1587.0060153000522,1587.4728012999983,1587.5061512000393,1589.9728136999763,1589.989739599987,None,1.0,,,,,,,,,,,,,,,,,,,,,,,,,,,,,,,,,,,,,,,,,,,,,nback67,1.0,2024-01-22_17h04.19.015,untitled,2023.2.3,59.91044588103704,2024-01-22 17h10.45.205131 -0500,
1.0,"[-0.64, 0.4]",None,0.0,4.0,4.0,4.0,,,,,,,,,1590.006167500047,,,,,,,,,,,,,,,,,,,,,,,,,,,,1589.9905624999665,1590.006167500047,1590.006167500047,1590.472858199966,1590.5060416000197,1592.9728596999776,1592.9896245000418,None,1.0,,,,,,,,,,,,,,,,,,,,,,,,,,,,,,,,,,,,,,,,,,,,,nback67,1.0,2024-01-22_17h04.19.015,untitled,2023.2.3,59.91044588103704,2024-01-22 17h10.45.205131 -0500,
1.0,"[-0.64, 0.4]",None,0.0,5.0,5.0,5.0,,,,,,,,,1593.00610150001,,,,,,,,,,,,,,,,,,,,,,,,,,,,1592.9904289999977,1593.00610150001,1593.00610150001,1593.4727113000115,1593.506088700029,1595.9726127000758,1595.9896315999797,None,1.0,,,,,,,,,,,,,,,,,,,,,,,,,,,,,,,,,,,,,,,,,,,,,nback67,1.0,2024-01-22_17h04.19.015,untitled,2023.2.3,59.91044588103704,2024-01-22 17h10.45.205131 -0500,
4.0,"[-0.2, 0.1]",None,0.0,6.0,6.0,6.0,,,,,,,,,1596.0057507000165,,,,,,,,,,,,,,,,,,,,,,,,,,,,1595.9904256999723,1596.0057507000165,1596.0057507000165,1596.4727911000373,1596.505858300021,1598.9727366999723,1598.9896340999985,None,1.0,,,,,,,,,,,,,,,,,,,,,,,,,,,,,,,,,,,,,,,,,,,,,nback67,1.0,2024-01-22_17h04.19.015,untitled,2023.2.3,59.91044588103704,2024-01-22 17h10.45.205131 -0500,
5.0,"[0.2, 0.1]",None,0.0,7.0,7.0,7.0,,,,,,,,,1599.0059332000092,,,,,,,,,,,,,,,,,,,,,,,,,,,,1598.9904754000015,1599.0059332000092,1599.0059332000092,1599.4725594000192,1599.5058150000405,1601.9725801000604,1601.9895149000222,None,1.0,,,,,,,,,,,,,,,,,,,,,,,,,,,,,,,,,,,,,,,,,,,,,nback67,1.0,2024-01-22_17h04.19.015,untitled,2023.2.3,59.91044588103704,2024-01-22 17h10.45.205131 -0500,
11.0,"[-0.64, -0.4]",space,0.0,8.0,8.0,8.0,,,,,,,,,1602.0057892000768,,,,,,,,,,,,,,,,,,,,,,,,,,,,1601.990336799994,1602.0057892000768,1602.0057892000768,1602.472779700067,1602.5059488000115,1604.9725200000685,1604.989367900067,space,1.0,0.3254747000755742,None,,,,,,,,,,,,,,,,,,,,,,,,,,,,,,,,,,,,,,,,,,,nback67,1.0,2024-01-22_17h04.19.015,untitled,2023.2.3,59.91044588103704,2024-01-22 17h10.45.205131 -0500,
9.0,"[0.2, -0.1]",None,0.0,9.0,9.0,9.0,,,,,,,,,1605.0058809000766,,,,,,,,,,,,,,,,,,,,,,,,,,,,1604.9902937000152,1605.0058809000766,1605.0058809000766,1605.4725857999874,1605.5058108000085,1607.9725327000488,1607.9892619000748,None,1.0,,,,,,,,,,,,,,,,,,,,,,,,,,,,,,,,,,,,,,,,,,,,,nback67,1.0,2024-01-22_17h04.19.015,untitled,2023.2.3,59.91044588103704,2024-01-22 17h10.45.205131 -0500,
8.0,"[-0.2, -0.1]",None,0.0,10.0,10.0,10.0,,,,,,,,,1608.0056454000296,,,,,,,,,,,,,,,,,,,,,,,,,,,,1607.9899802000728,1608.0056454000296,1608.0056454000296,1608.489035799983,1608.5058012000518,1610.9891081000678,1610.9893080000766,None,1.0,,,,,,,,,,,,,,,,,,,,,,,,,,,,,,,,,,,,,,,,,,,,,nback67,1.0,2024-01-22_17h04.19.015,untitled,2023.2.3,59.91044588103704,2024-01-22 17h10.45.205131 -0500,
9.0,"[0.2, -0.1]",None,0.0,11.0,11.0,11.0,,,,,,,,,1611.0058302000398,,,,,,,,,,,,,,,,,,,,,,,,,,,,1610.9901111000215,1611.0058302000398,1611.0058302000398,1611.4889627000084,1611.5057786999969,1613.9889894999797,1613.9891657000408,None,1.0,,,,,,,,,,,,,,,,,,,,,,,,,,,,,,,,,,,,,,,,,,,,,nback67,1.0,2024-01-22_17h04.19.015,untitled,2023.2.3,59.91044588103704,2024-01-22 17h10.45.205131 -0500,
6.0,"[-0.3, 0]",None,0.0,12.0,12.0,12.0,,,,,,,,,1614.0057407000568,,,,,,,,,,,,,,,,,,,,,,,,,,,,1613.9898320999928,1614.0057407000568,1614.0057407000568,1614.4891174000222,1614.505795200006,1616.9890770000638,1616.9892674000002,None,1.0,,,,,,,,,,,,,,,,,,,,,,,,,,,,,,,,,,,,,,,,,,,,,nback67,1.0,2024-01-22_17h04.19.015,untitled,2023.2.3,59.91044588103704,2024-01-22 17h10.45.205131 -0500,
9.0,"[0.2, -0.1]",None,0.0,13.0,13.0,13.0,,,,,,,,,1617.0056314000394,,,,,,,,,,,,,,,,,,,,,,,,,,,,1616.9900158999951,1617.0056314000394,1617.0056314000394,1617.4888758000452,1617.5055869000498,1619.9890894000418,1619.98928790004,None,1.0,,,,,,,,,,,,,,,,,,,,,,,,,,,,,,,,,,,,,,,,,,,,,nback67,1.0,2024-01-22_17h04.19.015,untitled,2023.2.3,59.91044588103704,2024-01-22 17h10.45.205131 -0500,
7.0,"[0.3, 0]",None,0.0,14.0,14.0,14.0,,,,,,,,,1620.005573600065,,,,,,,,,,,,,,,,,,,,,,,,,,,,1619.990044999984,1620.005573600065,1620.005573600065,1620.4888754000422,1620.5053634999786,1622.9888305000495,1622.988998600049,None,1.0,,,,,,,,,,,,,,,,,,,,,,,,,,,,,,,,,,,,,,,,,,,,,nback67,1.0,2024-01-22_17h04.19.015,untitled,2023.2.3,59.91044588103704,2024-01-22 17h10.45.205131 -0500,
2.0,"[0.64, 0.4]",None,0.0,15.0,15.0,15.0,,,,,,,,,1623.0055799999973,,,,,,,,,,,,,,,,,,,,,,,,,,,,1622.989630499971,1623.0055799999973,1623.0055799999973,1623.4888233999957,1623.5056909000268,1625.9886946000624,1625.9888313000556,None,1.0,,,,,,,,,,,,,,,,,,,,,,,,,,,,,,,,,,,,,,,,,,,,,nback67,1.0,2024-01-22_17h04.19.015,untitled,2023.2.3,59.91044588103704,2024-01-22 17h10.45.205131 -0500,
2.0,"[0.64, 0.4]",None,0.0,16.0,16.0,16.0,,,,,,,,,1626.005455299979,,,,,,,,,,,,,,,,,,,,,,,,,,,,1625.9893560999772,1626.005455299979,1626.005455299979,1626.4887542000506,1626.5053800999883,1628.9887640000088,1628.9889482000144,None,1.0,,,,,,,,,,,,,,,,,,,,,,,,,,,,,,,,,,,,,,,,,,,,,nback67,1.0,2024-01-22_17h04.19.015,untitled,2023.2.3,59.91044588103704,2024-01-22 17h10.45.205131 -0500,
11.0,"[-0.64, -0.4]",space,0.0,17.0,17.0,17.0,,,,,,,,,1629.005307700019,,,,,,,,,,,,,,,,,,,,,,,,,,,,1628.9896603000816,1629.005307700019,1629.005307700019,1629.4887427000797,1629.505337700015,1631.9887711000629,1631.9889886999736,space,1.0,0.3727871999144554,None,,,,,,,,,,,,,,,,,,,,,,,,,,,,,,,,,,,,,,,,,,,nback67,1.0,2024-01-22_17h04.19.015,untitled,2023.2.3,59.91044588103704,2024-01-22 17h10.45.205131 -0500,
11.0,"[-0.64, -0.4]",space,0.0,18.0,18.0,18.0,,,,,,,,,1632.0051841000095,,,,,,,,,,,,,,,,,,,,,,,,,,,,1631.989926900016,1632.0051841000095,1632.0051841000095,1632.4886371999746,1632.5052313000197,1634.9885515000203,1634.9887156999905,space,1.0,0.4505521999672055,None,,,,,,,,,,,,,,,,,,,,,,,,,,,,,,,,,,,,,,,,,,,nback67,1.0,2024-01-22_17h04.19.015,untitled,2023.2.3,59.91044588103704,2024-01-22 17h10.45.205131 -0500,
7.0,"[0.3, 0]",None,0.0,19.0,19.0,19.0,,,,,,,,,1635.0053514000028,,,,,,,,,,,,,,,,,,,,,,,,,,,,1634.9892105000326,1635.0053514000028,1635.0053514000028,1635.4885699000442,1635.5051892000483,1637.9886792000616,1637.9888959000818,None,1.0,,,,,,,,,,,,,,,,,,,,,,,,,,,,,,,,,,,,,,,,,,,,,nback67,1.0,2024-01-22_17h04.19.015,untitled,2023.2.3,59.91044588103704,2024-01-22 17h10.45.205131 -0500,
3.0,"[0, 0.2]",None,0.0,20.0,20.0,20.0,,,,,,,,,1638.0053093000315,,,,,,,,,,,,,,,,,,,,,,,,,,,,1637.989704900072,1638.0053093000315,1638.0053093000315,1638.4885678000282,1638.5052719999803,1640.9886452000355,1640.9888515999774,None,1.0,,,,,,,,,,,,,,,,,,,,,,,,,,,,,,,,,,,,,,,,,,,,,nback67,1.0,2024-01-22_17h04.19.015,untitled,2023.2.3,59.91044588103704,2024-01-22 17h10.45.205131 -0500,
10.0,"[0, -0.2]",None,0.0,21.0,21.0,21.0,,,,,,,,,1641.005271299975,,,,,,,,,,,,,,,,,,,,,,,,,,,,1640.9896587000694,1641.005271299975,1641.005271299975,1641.4887211000314,1641.5052748000016,1643.988509100047,1643.9886970000807,None,1.0,,,,,,,,,,,,,,,,,,,,,,,,,,,,,,,,,,,,,,,,,,,,,nback67,1.0,2024-01-22_17h04.19.015,untitled,2023.2.3,59.91044588103704,2024-01-22 17h10.45.205131 -0500,
1.0,"[-0.64, 0.4]",None,0.0,22.0,22.0,22.0,,,,,,,,,1644.0050075000618,,,,,,,,,,,,,,,,,,,,,,,,,,,,1643.9896233000327,1644.0050075000618,1644.0050075000618,1644.4886820999673,1644.5052075000713,1646.988448600052,1646.988622999983,None,1.0,,,,,,,,,,,,,,,,,,,,,,,,,,,,,,,,,,,,,,,,,,,,,nback67,1.0,2024-01-22_17h04.19.015,untitled,2023.2.3,59.91044588103704,2024-01-22 17h10.45.205131 -0500,
2.0,"[0.64, 0.4]",None,0.0,23.0,23.0,23.0,,,,,,,,,1647.0051371000009,,,,,,,,,,,,,,,,,,,,,,,,,,,,1646.9893154000165,1647.0051371000009,1647.0051371000009,1647.4885488,1647.505096500041,1649.9884259999965,1649.9886026000604,None,1.0,,,,,,,,,,,,,,,,,,,,,,,,,,,,,,,,,,,,,,,,,,,,,nback67,1.0,2024-01-22_17h04.19.015,untitled,2023.2.3,59.91044588103704,2024-01-22 17h10.45.205131 -0500,
6.0,"[-0.3, 0]",None,0.0,24.0,24.0,24.0,,,,,,,,,1650.005137,,,,,,,,,,,,,,,,,,,,,,,,,,,,1649.9892739000495,1650.005137,1650.005137,1650.4883322999813,1650.5050715999678,1652.988543100073,1652.9887640000088,None,1.0,,,,,,,,,,,,,,,,,,,,,,,,,,,,,,,,,,,,,,,,,,,,,nback67,1.0,2024-01-22_17h04.19.015,untitled,2023.2.3,59.91044588103704,2024-01-22 17h10.45.205131 -0500,
3.0,"[0, 0.2]",None,0.0,25.0,25.0,25.0,,,,,,,,,1653.0051386000123,,,,,,,,,,,,,,,,,,,,,,,,,,,,1652.9895667000674,1653.0051386000123,1653.0051386000123,1653.488461400033,1653.5049991999986,1655.988198300009,1655.9883879000554,None,1.0,,,,,,,,,,,,,,,,,,,,,,,,,,,,,,,,,,,,,,,,,,,,,nback67,1.0,2024-01-22_17h04.19.015,untitled,2023.2.3,59.91044588103704,2024-01-22 17h10.45.205131 -0500,
11.0,"[-0.64, -0.4]",space,0.0,26.0,26.0,26.0,,,,,,,,,1656.0046931999968,,,,,,,,,,,,,,,,,,,,,,,,,,,,1655.9891275999837,1656.0046931999968,1656.0046931999968,1656.48808749998,1656.5049924000632,1658.9882578999968,1658.9884285000153,space,1.0,0.3544754999456927,None,,,,,,,,,,,,,,,,,,,,,,,,,,,,,,,,,,,,,,,,,,,nback67,1.0,2024-01-22_17h04.19.015,untitled,2023.2.3,59.91044588103704,2024-01-22 17h10.45.205131 -0500,
1.0,"[-0.64, 0.4]",None,0.0,27.0,27.0,27.0,,,,,,,,,1659.0050183000276,,,,,,,,,,,,,,,,,,,,,,,,,,,,1658.989267900004,1659.0050183000276,1659.0050183000276,1659.4882971000625,1659.5049046999775,1661.988304700004,1661.9885434000753,None,1.0,,,,,,,,,,,,,,,,,,,,,,,,,,,,,,,,,,,,,,,,,,,,,nback67,1.0,2024-01-22_17h04.19.015,untitled,2023.2.3,59.91044588103704,2024-01-22 17h10.45.205131 -0500,
3.0,"[0, 0.2]",None,0.0,28.0,28.0,28.0,,,,,,,,,1662.0047946000705,,,,,,,,,,,,,,,,,,,,,,,,,,,,1661.9893304000143,1662.0047946000705,1662.0047946000705,1662.488163699978,1662.5049391000066,1664.9882166000316,1664.9884195000632,None,1.0,,,,,,,,,,,,,,,,,,,,,,,,,,,,,,,,,,,,,,,,,,,,,nback67,1.0,2024-01-22_17h04.19.015,untitled,2023.2.3,59.91044588103704,2024-01-22 17h10.45.205131 -0500,
9.0,"[0.2, -0.1]",None,0.0,29.0,29.0,29.0,,,,,,,,,1665.0048880999675,,,,,,,,,,,,,,,,,,,,,,,,,,,,1664.9891736999853,1665.0048880999675,1665.0048880999675,1665.4881468999663,1665.5046674000332,1667.9881585000549,1667.9883410000475,None,1.0,,,,,,,,,,,,,,,,,,,,,,,,,,,,,,,,,,,,,,,,,,,,,nback67,1.0,2024-01-22_17h04.19.015,untitled,2023.2.3,59.91044588103704,2024-01-22 17h10.45.205131 -0500,
8.0,"[-0.2, -0.1]",None,0.0,30.0,30.0,30.0,,,,,,,,,1668.0047643000726,,,,,,,,,,,,,,,,,,,,,,,,,,,,1667.989159699995,1668.0047643000726,1668.0047643000726,1668.4879136000527,1668.5044085000409,1670.987996299984,1670.9881946999812,None,1.0,,,,,,,,,,,,,,,,,,,,,,,,,,,,,,,,,,,,,,,,,,,,,nback67,1.0,2024-01-22_17h04.19.015,untitled,2023.2.3,59.91044588103704,2024-01-22 17h10.45.205131 -0500,
12.0,"[0.64, -0.4]",None,0.0,31.0,31.0,31.0,,,,,,,,,1671.0047203999711,,,,,,,,,,,,,,,,,,,,,,,,,,,,1670.9889508000342,1671.0047203999711,1671.0047203999711,1671.4879720000315,1671.5047448000405,1673.9879119000398,1673.988117299974,None,1.0,,,,,,,,,,,,,,,,,,,,,,,,,,,,,,,,,,,,,,,,,,,,,nback67,1.0,2024-01-22_17h04.19.015,untitled,2023.2.3,59.91044588103704,2024-01-22 17h10.45.205131 -0500,
9.0,"[0.2, -0.1]",None,0.0,32.0,32.0,32.0,,,,,,,,,1674.0046475999989,,,,,,,,,,,,,,,,,,,,,,,,,,,,1673.988950900035,1674.0046475999989,1674.0046475999989,1674.488043399993,1674.5047399000032,1676.988045200007,1676.988245900022,None,1.0,,,,,,,,,,,,,,,,,,,,,,,,,,,,,,,,,,,,,,,,,,,,,nback67,1.0,2024-01-22_17h04.19.015,untitled,2023.2.3,59.91044588103704,2024-01-22 17h10.45.205131 -0500,
11.0,"[-0.64, -0.4]",space,0.0,33.0,33.0,33.0,,,,,,,,,1677.0045838999797,,,,,,,,,,,,,,,,,,,,,,,,,,,,1676.989073600038,1677.0045838999797,1677.0045838999797,1677.4880844000727,1677.504735399969,1679.987951099989,1679.988170800032,space,1.0,0.3601511999731883,None,,,,,,,,,,,,,,,,,,,,,,,,,,,,,,,,,,,,,,,,,,,nback67,1.0,2024-01-22_17h04.19.015,untitled,2023.2.3,59.91044588103704,2024-01-22 17h10.45.205131 -0500,
7.0,"[0.3, 0]",None,0.0,34.0,34.0,34.0,,,,,,,,,1680.0046052000253,,,,,,,,,,,,,,,,,,,,,,,,,,,,1679.9891405000817,1680.0046052000253,1680.0046052000253,1680.4878900999902,1680.504596700077,1682.9880223000655,1682.988250400056,None,1.0,,,,,,,,,,,,,,,,,,,,,,,,,,,,,,,,,,,,,,,,,,,,,nback67,1.0,2024-01-22_17h04.19.015,untitled,2023.2.3,59.91044588103704,2024-01-22 17h10.45.205131 -0500,
11.0,"[-0.64, -0.4]",space,0.0,35.0,35.0,35.0,,,,,,,,,1683.0044033000013,,,,,,,,,,,,,,,,,,,,,,,,,,,,1682.9891125999857,1683.0044033000013,1683.0044033000013,1683.4878554000752,1683.504363700049,1685.9879325000802,1685.988107000012,space,1.0,0.336625299998559,None,,,,,,,,,,,,,,,,,,,,,,,,,,,,,,,,,,,,,,,,,,,nback67,1.0,2024-01-22_17h04.19.015,untitled,2023.2.3,59.91044588103704,2024-01-22 17h10.45.205131 -0500,
4.0,"[-0.2, 0.1]",None,0.0,36.0,36.0,36.0,,,,,,,,,1686.0044354000129,,,,,,,,,,,,,,,,,,,,,,,,,,,,1685.9889072000517,1686.0044354000129,1686.0044354000129,1686.48784289998,1686.50439180003,1688.9876581999706,1688.987817400019,None,1.0,,,,,,,,,,,,,,,,,,,,,,,,,,,,,,,,,,,,,,,,,,,,,nback67,1.0,2024-01-22_17h04.19.015,untitled,2023.2.3,59.91044588103704,2024-01-22 17h10.45.205131 -0500,
5.0,"[0.2, 0.1]",None,0.0,37.0,37.0,37.0,,,,,,,,,1689.004381500068,,,,,,,,,,,,,,,,,,,,,,,,,,,,1688.988407699973,1689.004381500068,1689.004381500068,1689.4877556000138,1689.5042561000446,1691.9877353999764,1691.9879056999926,None,1.0,,,,,,,,,,,,,,,,,,,,,,,,,,,,,,,,,,,,,,,,,,,,,nback67,1.0,2024-01-22_17h04.19.015,untitled,2023.2.3,59.91044588103704,2024-01-22 17h10.45.205131 -0500,
6.0,"[-0.3, 0]",None,0.0,38.0,38.0,38.0,,,,,,,,,1692.00421490008,,,,,,,,,,,,,,,,,,,,,,,,,,,,1691.9885412000583,1692.00421490008,1692.00421490008,1692.4876940000104,1692.5042490999913,1694.9875917000463,1694.9877451000502,None,1.0,,,,,,,,,,,,,,,,,,,,,,,,,,,,,,,,,,,,,,,,,,,,,nback67,1.0,2024-01-22_17h04.19.015,untitled,2023.2.3,59.91044588103704,2024-01-22 17h10.45.205131 -0500,
11.0,"[-0.64, -0.4]",space,0.0,39.0,39.0,39.0,,,,,,,,,1695.004438700038,,,,,,,,,,,,,,,,,,,,,,,,,,,,1694.988083400065,1695.004438700038,1695.004438700038,1695.487268100027,1695.5040473999688,1697.98781229998,1697.988002700033,space,1.0,0.3402009999845177,None,,,,,,,,,,,,,,,,,,,,,,,,,,,,,,,,,,,,,,,,,,,nback67,1.0,2024-01-22_17h04.19.015,untitled,2023.2.3,59.91044588103704,2024-01-22 17h10.45.205131 -0500,
,,,,,,,,,,,,,,,,,,,,,,,,,,,,,,,,,,,,,,,,,,,,,,,,,,,,,,1697.9886950000655,1698.0042882000562,1698.0042882000562,1720.6053093000082,space,22.58673199999612,None,,,,,,,,,,,,,,,,,,,,,,,,,,,,,,,,,,,,nback67,1.0,2024-01-22_17h04.19.015,untitled,2023.2.3,59.91044588103704,2024-01-22 17h10.45.205131 -0500,
10.0,"[0, -0.2]",None,,,,,0.0,0.0,0.0,0.0,,,,,1721.6202247000765,,,,,,,,,,,,,,,,,,,,,,,,1720.6053517999826,1720.620397999999,1721.6202247000765,1721.6045530000702,,,,,,,,,,,,,,,,,,,1721.6167456000112,1721.6202247000765,1721.6202247000765,1722.1205657999965,1722.1205657999965,1724.6204736999937,1724.6204736999937,1724.6045516000595,None,1.0,,,,,,,,,,,,,,,,,,,,,,,,,,nback67,1.0,2024-01-22_17h04.19.015,untitled,2023.2.3,59.91044588103704,2024-01-22 17h10.45.205131 -0500,
5.0,"[0.2, 0.1]",None,,,,,0.0,1.0,1.0,1.0,,,,,1724.6204736999937,,,,,,,,,,,,,,,,,,,,,,,,,,,,,,,,,,,,,,,,,,,,,,1724.6052920999937,1724.6204736999937,1724.6204736999937,1725.1204204000533,1725.1204204000533,1727.6204688000726,1727.6204688000726,1727.6045389000792,None,1.0,,,,,,,,,,,,,,,,,,,,,,,,,,nback67,1.0,2024-01-22_17h04.19.015,untitled,2023.2.3,59.91044588103704,2024-01-22 17h10.45.205131 -0500,
6.0,"[-0.3, 0]",None,,,,,0.0,2.0,2.0,2.0,,,,,1727.6204688000726,,,,,,,,,,,,,,,,,,,,,,,,,,,,,,,,,,,,,,,,,,,,,,1727.6050629999954,1727.6204688000726,1727.6204688000726,1728.1202474000163,1728.1202474000163,1730.6201787000757,1730.6201787000757,1730.604340500082,None,1.0,,,,,,,,,,,,,,,,,,,,,,,,,,nback67,1.0,2024-01-22_17h04.19.015,untitled,2023.2.3,59.91044588103704,2024-01-22 17h10.45.205131 -0500,
6.0,"[-0.3, 0]",space,,,,,0.0,3.0,3.0,3.0,,,,,1730.6201787000757,,,,,,,,,,,,,,,,,,,,,,,,,,,,,,,,,,,,,,,,,,,,,,1730.6050174999982,1730.6201787000757,1730.6201787000757,1731.120145700057,1731.120145700057,1733.6201887000352,1733.6201887000352,1733.6047113999955,space,1.0,0.3903765000868588,None,,,,,,,,,,,,,,,,,,,,,,,,nback67,1.0,2024-01-22_17h04.19.015,untitled,2023.2.3,59.91044588103704,2024-01-22 17h10.45.205131 -0500,
12.0,"[0.64, -0.4]",None,,,,,0.0,4.0,4.0,4.0,,,,,1733.6201887000352,,,,,,,,,,,,,,,,,,,,,,,,,,,,,,,,,,,,,,,,,,,,,,1733.60585120006,1733.6201887000352,1733.6201887000352,1734.1201742000412,1734.1201742000412,1736.620165099972,1736.620165099972,1736.6045880999882,None,1.0,,,,,,,,,,,,,,,,,,,,,,,,,,nback67,1.0,2024-01-22_17h04.19.015,untitled,2023.2.3,59.91044588103704,2024-01-22 17h10.45.205131 -0500,
10.0,"[0, -0.2]",None,,,,,0.0,5.0,5.0,5.0,,,,,1736.620165099972,,,,,,,,,,,,,,,,,,,,,,,,,,,,,,,,,,,,,,,,,,,,,,1736.6053415000206,1736.620165099972,1736.620165099972,1737.1203232000116,1737.1203232000116,1739.620152799995,1739.620152799995,1739.6042672999902,None,1.0,,,,,,,,,,,,,,,,,,,,,,,,,,nback67,1.0,2024-01-22_17h04.19.015,untitled,2023.2.3,59.91044588103704,2024-01-22 17h10.45.205131 -0500,
2.0,"[0.64, 0.4]",None,,,,,0.0,6.0,6.0,6.0,,,,,1739.620152799995,,,,,,,,,,,,,,,,,,,,,,,,,,,,,,,,,,,,,,,,,,,,,,1739.6048763999715,1739.620152799995,1739.620152799995,1740.1201713000191,1740.1201713000191,1742.620077700005,1742.620077700005,1742.6042245000135,None,1.0,,,,,,,,,,,,,,,,,,,,,,,,,,nback67,1.0,2024-01-22_17h04.19.015,untitled,2023.2.3,59.91044588103704,2024-01-22 17h10.45.205131 -0500,
9.0,"[0.2, -0.1]",None,,,,,0.0,7.0,7.0,7.0,,,,,1742.620077700005,,,,,,,,,,,,,,,,,,,,,,,,,,,,,,,,,,,,,,,,,,,,,,1742.604946000036,1742.620077700005,1742.620077700005,1743.1200138999848,1743.1200138999848,1745.620071100071,1745.620071100071,1745.6042496999726,None,1.0,,,,,,,,,,,,,,,,,,,,,,,,,,nback67,1.0,2024-01-22_17h04.19.015,untitled,2023.2.3,59.91044588103704,2024-01-22 17h10.45.205131 -0500,
9.0,"[0.2, -0.1]",space,,,,,0.0,8.0,8.0,8.0,,,,,1745.620071100071,,,,,,,,,,,,,,,,,,,,,,,,,,,,,,,,,,,,,,,,,,,,,,1745.6048565000528,1745.620071100071,1745.620071100071,1746.1200936000096,1746.1200936000096,1748.6201273000331,1748.6201273000331,1748.6040716000134,space,1.0,0.3396145000588149,None,,,,,,,,,,,,,,,,,,,,,,,,nback67,1.0,2024-01-22_17h04.19.015,untitled,2023.2.3,59.91044588103704,2024-01-22 17h10.45.205131 -0500,
6.0,"[-0.3, 0]",None,,,,,0.0,9.0,9.0,9.0,,,,,1748.6201273000331,,,,,,,,,,,,,,,,,,,,,,,,,,,,,,,,,,,,,,,,,,,,,,1748.60491990007,1748.6201273000331,1748.6201273000331,1749.119926400017,1749.119926400017,1751.6200134999815,1751.6200134999815,1751.6041416000808,None,1.0,,,,,,,,,,,,,,,,,,,,,,,,,,nback67,1.0,2024-01-22_17h04.19.015,untitled,2023.2.3,59.91044588103704,2024-01-22 17h10.45.205131 -0500,
11.0,"[-0.64, -0.4]",None,,,,,0.0,10.0,10.0,10.0,,,,,1751.6200134999815,,,,,,,,,,,,,,,,,,,,,,,,,,,,,,,,,,,,,,,,,,,,,,1751.6047920000274,1751.6200134999815,1751.6200134999815,1752.1200126999756,1752.1200126999756,1754.6198954000138,1754.6198954000138,1754.6042994000018,None,1.0,,,,,,,,,,,,,,,,,,,,,,,,,,nback67,1.0,2024-01-22_17h04.19.015,untitled,2023.2.3,59.91044588103704,2024-01-22 17h10.45.205131 -0500,
11.0,"[-0.64, -0.4]",space,,,,,0.0,11.0,11.0,11.0,,,,,1754.6198954000138,,,,,,,,,,,,,,,,,,,,,,,,,,,,,,,,,,,,,,,,,,,,,,1754.6051716000077,1754.6198954000138,1754.6198954000138,1755.1196483999956,1755.1196483999956,1757.6197965000756,1757.6197965000756,1757.604321300052,space,1.0,0.3665366000495851,None,,,,,,,,,,,,,,,,,,,,,,,,nback67,1.0,2024-01-22_17h04.19.015,untitled,2023.2.3,59.91044588103704,2024-01-22 17h10.45.205131 -0500,
4.0,"[-0.2, 0.1]",None,,,,,0.0,12.0,12.0,12.0,,,,,1757.6197965000756,,,,,,,,,,,,,,,,,,,,,,,,,,,,,,,,,,,,,,,,,,,,,,1757.6052328000078,1757.6197965000756,1757.6197965000756,1758.120021400042,1758.120021400042,1760.6199312000535,1760.6199312000535,1760.6041423999704,None,1.0,,,,,,,,,,,,,,,,,,,,,,,,,,nback67,1.0,2024-01-22_17h04.19.015,untitled,2023.2.3,59.91044588103704,2024-01-22 17h10.45.205131 -0500,
3.0,"[0, 0.2]",None,,,,,0.0,13.0,13.0,13.0,,,,,1760.6199312000535,,,,,,,,,,,,,,,,,,,,,,,,,,,,,,,,,,,,,,,,,,,,,,1760.6049071999732,1760.6199312000535,1760.6199312000535,1761.119815299986,1761.119815299986,1763.619665400009,1763.619665400009,1763.6036369000794,None,1.0,,,,,,,,,,,,,,,,,,,,,,,,,,nback67,1.0,2024-01-22_17h04.19.015,untitled,2023.2.3,59.91044588103704,2024-01-22 17h10.45.205131 -0500,
3.0,"[0, 0.2]",space,,,,,0.0,14.0,14.0,14.0,,,,,1763.619665400009,,,,,,,,,,,,,,,,,,,,,,,,,,,,,,,,,,,,,,,,,,,,,,1763.6041183000198,1763.619665400009,1763.619665400009,1764.119735400076,1764.119735400076,1766.6195934000425,1766.6195934000425,1766.6036624000408,space,1.0,0.3680333000374958,None,,,,,,,,,,,,,,,,,,,,,,,,nback67,1.0,2024-01-22_17h04.19.015,untitled,2023.2.3,59.91044588103704,2024-01-22 17h10.45.205131 -0500,
8.0,"[-0.2, -0.1]",None,,,,,0.0,15.0,15.0,15.0,,,,,1766.6195934000425,,,,,,,,,,,,,,,,,,,,,,,,,,,,,,,,,,,,,,,,,,,,,,1766.604477500077,1766.6195934000425,1766.6195934000425,1767.1196752999676,1767.1196752999676,1769.6195916000288,1769.6195916000288,1769.6035957999993,space,0.0,1.1578358000842854,None,,,,,,,,,,,,,,,,,,,,,,,,nback67,1.0,2024-01-22_17h04.19.015,untitled,2023.2.3,59.91044588103704,2024-01-22 17h10.45.205131 -0500,
1.0,"[-0.64, 0.4]",None,,,,,0.0,16.0,16.0,16.0,,,,,1769.6195916000288,,,,,,,,,,,,,,,,,,,,,,,,,,,,,,,,,,,,,,,,,,,,,,1769.604330000002,1769.6195916000288,1769.6195916000288,1770.1195955000585,1770.1195955000585,1772.619558700011,1772.619558700011,1772.6034094999775,None,1.0,,,,,,,,,,,,,,,,,,,,,,,,,,nback67,1.0,2024-01-22_17h04.19.015,untitled,2023.2.3,59.91044588103704,2024-01-22 17h10.45.205131 -0500,
2.0,"[0.64, 0.4]",None,,,,,0.0,17.0,17.0,17.0,,,,,1772.619558700011,,,,,,,,,,,,,,,,,,,,,,,,,,,,,,,,,,,,,,,,,,,,,,1772.6038270000136,1772.619558700011,1772.619558700011,1773.1197363999672,1773.1197363999672,1775.6195269000018,1775.6195269000018,1775.6035783999832,None,1.0,,,,,,,,,,,,,,,,,,,,,,,,,,nback67,1.0,2024-01-22_17h04.19.015,untitled,2023.2.3,59.91044588103704,2024-01-22 17h10.45.205131 -0500,
4.0,"[-0.2, 0.1]",None,,,,,0.0,18.0,18.0,18.0,,,,,1775.6195269000018,,,,,,,,,,,,,,,,,,,,,,,,,,,,,,,,,,,,,,,,,,,,,,1775.6042082000058,1775.6195269000018,1775.6195269000018,1776.1194468999747,1776.1194468999747,1778.6194738000631,1778.6194738000631,1778.6036208000733,None,1.0,,,,,,,,,,,,,,,,,,,,,,,,,,nback67,1.0,2024-01-22_17h04.19.015,untitled,2023.2.3,59.91044588103704,2024-01-22 17h10.45.205131 -0500,
4.0,"[-0.2, 0.1]",space,,,,,0.0,19.0,19.0,19.0,,,,,1778.6194738000631,,,,,,,,,,,,,,,,,,,,,,,,,,,,,,,,,,,,,,,,,,,,,,1778.6042531999992,1778.6194738000631,1778.6194738000631,1779.1194636999862,1779.1194636999862,1781.6194746000692,1781.6194746000692,1781.6038215999724,space,1.0,0.3870164999971166,None,,,,,,,,,,,,,,,,,,,,,,,,nback67,1.0,2024-01-22_17h04.19.015,untitled,2023.2.3,59.91044588103704,2024-01-22 17h10.45.205131 -0500,
8.0,"[-0.2, -0.1]",None,,,,,0.0,20.0,20.0,20.0,,,,,1781.6194746000692,,,,,,,,,,,,,,,,,,,,,,,,,,,,,,,,,,,,,,,,,,,,,,1781.604678899981,1781.6194746000692,1781.6194746000692,1782.1194554000394,1782.1194554000394,1784.6194563000463,1784.6194563000463,1784.6039254000643,None,1.0,,,,,,,,,,,,,,,,,,,,,,,,,,nback67,1.0,2024-01-22_17h04.19.015,untitled,2023.2.3,59.91044588103704,2024-01-22 17h10.45.205131 -0500,
5.0,"[0.2, 0.1]",None,,,,,0.0,21.0,21.0,21.0,,,,,1784.6194563000463,,,,,,,,,,,,,,,,,,,,,,,,,,,,,,,,,,,,,,,,,,,,,,1784.604858400067,1784.6194563000463,1784.6194563000463,1785.1193484000396,1785.1193484000396,1787.6193196000531,1787.6193196000531,1787.603745899978,None,1.0,,,,,,,,,,,,,,,,,,,,,,,,,,nback67,1.0,2024-01-22_17h04.19.015,untitled,2023.2.3,59.91044588103704,2024-01-22 17h10.45.205131 -0500,
5.0,"[0.2, 0.1]",space,,,,,0.0,22.0,22.0,22.0,,,,,1787.6193196000531,,,,,,,,,,,,,,,,,,,,,,,,,,,,,,,,,,,,,,,,,,,,,,1787.6045799000422,1787.6193196000531,1787.6193196000531,1788.1192799999844,1788.1192799999844,1790.619289400056,1790.619289400056,1790.6038578000152,space,1.0,0.5023409000132233,None,,,,,,,,,,,,,,,,,,,,,,,,nback67,1.0,2024-01-22_17h04.19.015,untitled,2023.2.3,59.91044588103704,2024-01-22 17h10.45.205131 -0500,
1.0,"[-0.64, 0.4]",None,,,,,0.0,23.0,23.0,23.0,,,,,1790.619289400056,,,,,,,,,,,,,,,,,,,,,,,,,,,,,,,,,,,,,,,,,,,,,,1790.60493650008,1790.619289400056,1790.619289400056,1791.119305600063,1791.119305600063,1793.619387999992,1793.619387999992,1793.6033459000755,None,1.0,,,,,,,,,,,,,,,,,,,,,,,,,,nback67,1.0,2024-01-22_17h04.19.015,untitled,2023.2.3,59.91044588103704,2024-01-22 17h10.45.205131 -0500,
3.0,"[0, 0.2]",None,,,,,0.0,24.0,24.0,24.0,,,,,1793.619387999992,,,,,,,,,,,,,,,,,,,,,,,,,,,,,,,,,,,,,,,,,,,,,,1793.6040166000605,1793.619387999992,1793.619387999992,1794.1191835000643,1794.1191835000643,1796.6190188999751,1796.6190188999751,1796.603195499978,None,1.0,,,,,,,,,,,,,,,,,,,,,,,,,,nback67,1.0,2024-01-22_17h04.19.015,untitled,2023.2.3,59.91044588103704,2024-01-22 17h10.45.205131 -0500,
6.0,"[-0.3, 0]",None,,,,,0.0,25.0,25.0,25.0,,,,,1796.6190188999751,,,,,,,,,,,,,,,,,,,,,,,,,,,,,,,,,,,,,,,,,,,,,,1796.6038828999735,1796.6190188999751,1796.6190188999751,1797.1191009000177,1797.1191009000177,1799.6190446000546,1799.6190446000546,1799.6031701000177,None,1.0,,,,,,,,,,,,,,,,,,,,,,,,,,nback67,1.0,2024-01-22_17h04.19.015,untitled,2023.2.3,59.91044588103704,2024-01-22 17h10.45.205131 -0500,
1.0,"[-0.64, 0.4]",None,,,,,0.0,26.0,26.0,26.0,,,,,1799.6190446000546,,,,,,,,,,,,,,,,,,,,,,,,,,,,,,,,,,,,,,,,,,,,,,1799.6037763999775,1799.6190446000546,1799.6190446000546,1800.1189536000602,1800.1189536000602,1802.6190328000807,1802.6190328000807,1802.6035501000008,None,1.0,,,,,,,,,,,,,,,,,,,,,,,,,,nback67,1.0,2024-01-22_17h04.19.015,untitled,2023.2.3,59.91044588103704,2024-01-22 17h10.45.205131 -0500,
1.0,"[-0.64, 0.4]",space,,,,,0.0,27.0,27.0,27.0,,,,,1802.6190328000807,,,,,,,,,,,,,,,,,,,,,,,,,,,,,,,,,,,,,,,,,,,,,,1802.6045017000288,1802.6190328000807,1802.6190328000807,1803.1190664999883,1803.1190664999883,1805.6189540000632,1805.6189540000632,1805.603321100003,space,1.0,0.3959496999159455,None,,,,,,,,,,,,,,,,,,,,,,,,nback67,1.0,2024-01-22_17h04.19.015,untitled,2023.2.3,59.91044588103704,2024-01-22 17h10.45.205131 -0500,
1.0,"[-0.64, 0.4]",space,,,,,0.0,28.0,28.0,28.0,,,,,1805.6189540000632,,,,,,,,,,,,,,,,,,,,,,,,,,,,,,,,,,,,,,,,,,,,,,1805.604331200011,1805.6189540000632,1805.6189540000632,1806.119132400025,1806.119132400025,1808.6188435000367,1808.6188435000367,1808.603011199972,None,0.0,,,,,,,,,,,,,,,,,,,,,,,,,,nback67,1.0,2024-01-22_17h04.19.015,untitled,2023.2.3,59.91044588103704,2024-01-22 17h10.45.205131 -0500,
3.0,"[0, 0.2]",None,,,,,0.0,29.0,29.0,29.0,,,,,1808.6188435000367,,,,,,,,,,,,,,,,,,,,,,,,,,,,,,,,,,,,,,,,,,,,,,1808.6037065000276,1808.6188435000367,1808.6188435000367,1809.118856200017,1809.118856200017,1811.6189596999905,1811.6189596999905,1811.6028208000355,None,1.0,,,,,,,,,,,,,,,,,,,,,,,,,,nback67,1.0,2024-01-22_17h04.19.015,untitled,2023.2.3,59.91044588103704,2024-01-22 17h10.45.205131 -0500,
12.0,"[0.64, -0.4]",None,,,,,0.0,30.0,30.0,30.0,,,,,1811.6189596999905,,,,,,,,,,,,,,,,,,,,,,,,,,,,,,,,,,,,,,,,,,,,,,1811.6035905000756,1811.6189596999905,1811.6189596999905,1812.1187912999883,1812.1187912999883,1814.6187941000096,1814.6187941000096,1814.603214900009,None,1.0,,,,,,,,,,,,,,,,,,,,,,,,,,nback67,1.0,2024-01-22_17h04.19.015,untitled,2023.2.3,59.91044588103704,2024-01-22 17h10.45.205131 -0500,
12.0,"[0.64, -0.4]",space,,,,,0.0,31.0,31.0,31.0,,,,,1814.6187941000096,,,,,,,,,,,,,,,,,,,,,,,,,,,,,,,,,,,,,,,,,,,,,,1814.6039830000373,1814.6187941000096,1814.6187941000096,1815.1186017000584,1815.1186017000584,1817.6188337000783,1817.6188337000783,1817.602904699976,space,1.0,0.4089177999412641,None,,,,,,,,,,,,,,,,,,,,,,,,nback67,1.0,2024-01-22_17h04.19.015,untitled,2023.2.3,59.91044588103704,2024-01-22 17h10.45.205131 -0500,
2.0,"[0.64, 0.4]",None,,,,,0.0,32.0,32.0,32.0,,,,,1817.6188337000783,,,,,,,,,,,,,,,,,,,,,,,,,,,,,,,,,,,,,,,,,,,,,,1817.603711300064,1817.6188337000783,1817.6188337000783,1818.1187628000043,1818.1187628000043,1820.6187397000613,1820.6187397000613,1820.6031432000452,None,1.0,,,,,,,,,,,,,,,,,,,,,,,,,,nback67,1.0,2024-01-22_17h04.19.015,untitled,2023.2.3,59.91044588103704,2024-01-22 17h10.45.205131 -0500,
1.0,"[-0.64, 0.4]",None,,,,,0.0,33.0,33.0,33.0,,,,,1820.6187397000613,,,,,,,,,,,,,,,,,,,,,,,,,,,,,,,,,,,,,,,,,,,,,,1820.6040284000337,1820.6187397000613,1820.6187397000613,1821.118675100035,1821.118675100035,1823.6188001000555,1823.6188001000555,1823.602553499979,None,1.0,,,,,,,,,,,,,,,,,,,,,,,,,,nback67,1.0,2024-01-22_17h04.19.015,untitled,2023.2.3,59.91044588103704,2024-01-22 17h10.45.205131 -0500,
7.0,"[0.3, 0]",None,,,,,0.0,34.0,34.0,34.0,,,,,1823.6188001000555,,,,,,,,,,,,,,,,,,,,,,,,,,,,,,,,,,,,,,,,,,,,,,1823.6030590999871,1823.6188001000555,1823.6188001000555,1824.1186903000344,1824.1186903000344,1826.6186956000747,1826.6186956000747,1826.602722999989,None,1.0,,,,,,,,,,,,,,,,,,,,,,,,,,nback67,1.0,2024-01-22_17h04.19.015,untitled,2023.2.3,59.91044588103704,2024-01-22 17h10.45.205131 -0500,
7.0,"[0.3, 0]",space,,,,,0.0,35.0,35.0,35.0,,,,,1826.6186956000747,,,,,,,,,,,,,,,,,,,,,,,,,,,,,,,,,,,,,,,,,,,,,,1826.603419200052,1826.6186956000747,1826.6186956000747,1827.1185446999732,1827.1185446999732,1829.6186456000432,1829.6186456000432,1829.602720099967,space,1.0,0.491143099963665,None,,,,,,,,,,,,,,,,,,,,,,,,nback67,1.0,2024-01-22_17h04.19.015,untitled,2023.2.3,59.91044588103704,2024-01-22 17h10.45.205131 -0500,
11.0,"[-0.64, -0.4]",None,,,,,0.0,36.0,36.0,36.0,,,,,1829.6186456000432,,,,,,,,,,,,,,,,,,,,,,,,,,,,,,,,,,,,,,,,,,,,,,1829.60348619998,1829.6186456000432,1829.6186456000432,1830.11858400004,1830.11858400004,1832.618382100016,1832.618382100016,1832.602866500034,None,1.0,,,,,,,,,,,,,,,,,,,,,,,,,,nback67,1.0,2024-01-22_17h04.19.015,untitled,2023.2.3,59.91044588103704,2024-01-22 17h10.45.205131 -0500,
2.0,"[0.64, 0.4]",None,,,,,0.0,37.0,37.0,37.0,,,,,1832.618382100016,,,,,,,,,,,,,,,,,,,,,,,,,,,,,,,,,,,,,,,,,,,,,,1832.6036940000488,1832.618382100016,1832.618382100016,1833.118638899992,1833.118638899992,1835.618421799969,1835.618421799969,1835.6025269000093,None,1.0,,,,,,,,,,,,,,,,,,,,,,,,,,nback67,1.0,2024-01-22_17h04.19.015,untitled,2023.2.3,59.91044588103704,2024-01-22 17h10.45.205131 -0500,
6.0,"[-0.3, 0]",None,,,,,0.0,38.0,38.0,38.0,,,,,1835.618421799969,,,,,,,,,,,,,,,,,,,,,,,,,,,,,,,,,,,,,,,,,,,,,,1835.6032529000656,1835.618421799969,1835.618421799969,1836.118501399993,1836.118501399993,1838.6183299999684,1838.6183299999684,1838.602788100019,None,1.0,,,,,,,,,,,,,,,,,,,,,,,,,,nback67,1.0,2024-01-22_17h04.19.015,untitled,2023.2.3,59.91044588103704,2024-01-22 17h10.45.205131 -0500,
10.0,"[0, -0.2]",None,,,,,0.0,39.0,39.0,39.0,,,,,1838.6183299999684,,,,,,,,,,,,,,,,,,,,,,,,,,,,,,,,,,,,,,,,,,,,,,1838.603552100016,1838.6183299999684,1838.6183299999684,1839.118322000024,1839.118322000024,1841.6184982999691,1841.6184982999691,1841.60252830002,None,1.0,,,,,,,,,,,,,,,,,,,,,,,,,,nback67,1.0,2024-01-22_17h04.19.015,untitled,2023.2.3,59.91044588103704,2024-01-22 17h10.45.205131 -0500,
,,,,,,,,,,,,,,,,,,,,,,,,,,,,,,,,,,,,,,,,,,,,,,,,,,,,,,,,,,,,,,,,,,,,,,,,,1841.60297690006,1841.6184982999691,1841.6184982999691,1855.9696016000817,space,14.337319800048135,None,,,,,,,,,,,,,,,,,nback67,1.0,2024-01-22_17h04.19.015,untitled,2023.2.3,59.91044588103704,2024-01-22 17h10.45.205131 -0500,
,"[0.2, 0.1]",None,,,,,,,,,0.0,0.0,0.0,0.0,1856.9845443000088,,,,,,,,,,,,,,,,,,,,,,,,1855.9696453000647,1855.9846320999784,1856.9845443000088,1856.9692167000608,,,,,,,,,,,,,,,,,,,,,,,,,,,,,,,,,,,,,,1856.9778723000784,1856.9845443000088,1856.9845443000088,1857.4848736000715,1857.4848736000715,1859.984774200013,1859.984774200013,1859.9689599999688,None,1.0,,,,,,,nback67,1.0,2024-01-22_17h04.19.015,untitled,2023.2.3,59.91044588103704,2024-01-22 17h10.45.205131 -0500,
,"[0.64, 0.4]",None,,,,,,,,,0.0,1.0,1.0,1.0,1859.984774200013,,,,,,,,,,,,,,,,,,,,,,,,,,,,,,,,,,,,,,,,,,,,,,,,,,,,,,,,,,,,,,,,,1859.969809400034,1859.984774200013,1859.984774200013,1860.484786199988,1860.484786199988,1862.9846265000524,1862.9846265000524,1862.96845080005,None,1.0,,,,,,,nback67,1.0,2024-01-22_17h04.19.015,untitled,2023.2.3,59.91044588103704,2024-01-22 17h10.45.205131 -0500,
,"[-0.3, 0]",None,,,,,,,,,0.0,2.0,2.0,2.0,1862.9846265000524,,,,,,,,,,,,,,,,,,,,,,,,,,,,,,,,,,,,,,,,,,,,,,,,,,,,,,,,,,,,,,,,,1862.96875920007,1862.9846265000524,1862.9846265000524,1863.484679199988,1863.484679199988,1865.984530900023,1865.984530900023,1865.9687656000024,None,1.0,,,,,,,nback67,1.0,2024-01-22_17h04.19.015,untitled,2023.2.3,59.91044588103704,2024-01-22 17h10.45.205131 -0500,
,"[0.2, -0.1]",None,,,,,,,,,0.0,3.0,3.0,3.0,1865.984530900023,,,,,,,,,,,,,,,,,,,,,,,,,,,,,,,,,,,,,,,,,,,,,,,,,,,,,,,,,,,,,,,,,1865.9695163000144,1865.984530900023,1865.984530900023,1866.4845873999875,1866.4845873999875,1868.984575200011,1868.984575200011,1868.9687612999696,None,1.0,,,,,,,nback67,1.0,2024-01-22_17h04.19.015,untitled,2023.2.3,59.91044588103704,2024-01-22 17h10.45.205131 -0500,
,"[0, 0.2]",None,,,,,,,,,0.0,4.0,4.0,4.0,1868.984575200011,,,,,,,,,,,,,,,,,,,,,,,,,,,,,,,,,,,,,,,,,,,,,,,,,,,,,,,,,,,,,,,,,1868.9694074,1868.984575200011,1868.984575200011,1869.484578500036,1869.484578500036,1871.9845749000087,1871.9845749000087,1871.968863200047,None,1.0,,,,,,,nback67,1.0,2024-01-22_17h04.19.015,untitled,2023.2.3,59.91044588103704,2024-01-22 17h10.45.205131 -0500,
,"[0.2, -0.1]",space,,,,,,,,,0.0,5.0,5.0,5.0,1871.9845749000087,,,,,,,,,,,,,,,,,,,,,,,,,,,,,,,,,,,,,,,,,,,,,,,,,,,,,,,,,,,,,,,,,1871.969650999992,1871.9845749000087,1871.9845749000087,1872.4845991000768,1872.4845991000768,1874.9842481000812,1874.9842481000812,1874.9681125000352,space,1.0,0.3931368000339716,None,,,,,nback67,1.0,2024-01-22_17h04.19.015,untitled,2023.2.3,59.91044588103704,2024-01-22 17h10.45.205131 -0500,
,"[0, -0.2]",None,,,,,,,,,0.0,6.0,6.0,6.0,1874.9842481000812,,,,,,,,,,,,,,,,,,,,,,,,,,,,,,,,,,,,,,,,,,,,,,,,,,,,,,,,,,,,,,,,,1874.9686206000624,1874.9842481000812,1874.9842481000812,1875.484555299976,1875.484555299976,1877.9842597000531,1877.9842597000531,1877.9683910000604,None,1.0,,,,,,,nback67,1.0,2024-01-22_17h04.19.015,untitled,2023.2.3,59.91044588103704,2024-01-22 17h10.45.205131 -0500,
,"[0.64, -0.4]",None,,,,,,,,,0.0,7.0,7.0,7.0,1877.9842597000531,,,,,,,,,,,,,,,,,,,,,,,,,,,,,,,,,,,,,,,,,,,,,,,,,,,,,,,,,,,,,,,,,1877.9689717000583,1877.9842597000531,1877.9842597000531,1878.484403999988,1878.484403999988,1880.9843148000075,1880.9843148000075,1880.9685135000616,None,1.0,,,,,,,nback67,1.0,2024-01-22_17h04.19.015,untitled,2023.2.3,59.91044588103704,2024-01-22 17h10.45.205131 -0500,
,"[0.3, 0]",None,,,,,,,,,0.0,8.0,8.0,8.0,1880.9843148000075,,,,,,,,,,,,,,,,,,,,,,,,,,,,,,,,,,,,,,,,,,,,,,,,,,,,,,,,,,,,,,,,,1880.9691083000507,1880.9843148000075,1880.9843148000075,1881.484227500041,1881.484227500041,1883.9842951999744,1883.9842951999744,1883.968473199988,None,1.0,,,,,,,nback67,1.0,2024-01-22_17h04.19.015,untitled,2023.2.3,59.91044588103704,2024-01-22 17h10.45.205131 -0500,
,"[0.64, -0.4]",space,,,,,,,,,0.0,9.0,9.0,9.0,1883.9842951999744,,,,,,,,,,,,,,,,,,,,,,,,,,,,,,,,,,,,,,,,,,,,,,,,,,,,,,,,,,,,,,,,,1883.969147900003,1883.9842951999744,1883.9842951999744,1884.4841294999933,1884.4841294999933,1886.9843713999728,1886.9843713999728,1886.9684252999723,space,1.0,0.4289771999465301,None,,,,,nback67,1.0,2024-01-22_17h04.19.015,untitled,2023.2.3,59.91044588103704,2024-01-22 17h10.45.205131 -0500,
,"[-0.64, 0.4]",None,,,,,,,,,0.0,10.0,10.0,10.0,1886.9843713999728,,,,,,,,,,,,,,,,,,,,,,,,,,,,,,,,,,,,,,,,,,,,,,,,,,,,,,,,,,,,,,,,,1886.9692503999688,1886.9843713999728,1886.9843713999728,1887.484310199972,1887.484310199972,1889.9841302999996,1889.9841302999996,1889.9683539000107,None,1.0,,,,,,,nback67,1.0,2024-01-22_17h04.19.015,untitled,2023.2.3,59.91044588103704,2024-01-22 17h10.45.205131 -0500,
,"[0.2, 0.1]",None,,,,,,,,,0.0,11.0,11.0,11.0,1889.9841302999996,,,,,,,,,,,,,,,,,,,,,,,,,,,,,,,,,,,,,,,,,,,,,,,,,,,,,,,,,,,,,,,,,1889.968945599976,1889.9841302999996,1889.9841302999996,1890.4840598000449,1890.4840598000449,1892.9842860000208,1892.9842860000208,1892.968442799989,None,1.0,,,,,,,nback67,1.0,2024-01-22_17h04.19.015,untitled,2023.2.3,59.91044588103704,2024-01-22 17h10.45.205131 -0500,
,"[0.3, 0]",None,,,,,,,,,0.0,12.0,12.0,12.0,1892.9842860000208,,,,,,,,,,,,,,,,,,,,,,,,,,,,,,,,,,,,,,,,,,,,,,,,,,,,,,,,,,,,,,,,,1892.9691603999815,1892.9842860000208,1892.9842860000208,1893.484161100001,1893.484161100001,1895.9840902000435,1895.9840902000435,1895.9683706000212,None,1.0,,,,,,,nback67,1.0,2024-01-22_17h04.19.015,untitled,2023.2.3,59.91044588103704,2024-01-22 17h10.45.205131 -0500,
,"[0.2, 0.1]",space,,,,,,,,,0.0,13.0,13.0,13.0,1895.9840902000435,,,,,,,,,,,,,,,,,,,,,,,,,,,,,,,,,,,,,,,,,,,,,,,,,,,,,,,,,,,,,,,,,1895.9690590000248,1895.9840902000435,1895.9840902000435,1896.4843079000711,1896.4843079000711,1898.9840804999692,1898.9840804999692,1898.9683664999905,space,1.0,0.5849850999657065,None,,,,,nback67,1.0,2024-01-22_17h04.19.015,untitled,2023.2.3,59.91044588103704,2024-01-22 17h10.45.205131 -0500,
,"[-0.3, 0]",None,,,,,,,,,0.0,14.0,14.0,14.0,1898.9840804999692,,,,,,,,,,,,,,,,,,,,,,,,,,,,,,,,,,,,,,,,,,,,,,,,,,,,,,,,,,,,,,,,,1898.969277200056,1898.9840804999692,1898.9840804999692,1899.4841012000104,1899.4841012000104,1901.9839709000664,1901.9839709000664,1901.9682910999984,None,1.0,,,,,,,nback67,1.0,2024-01-22_17h04.19.015,untitled,2023.2.3,59.91044588103704,2024-01-22 17h10.45.205131 -0500,
,"[0, 0.2]",None,,,,,,,,,0.0,15.0,15.0,15.0,1901.9839709000664,,,,,,,,,,,,,,,,,,,,,,,,,,,,,,,,,,,,,,,,,,,,,,,,,,,,,,,,,,,,,,,,,1901.9689679000292,1901.9839709000664,1901.9839709000664,1902.4838666999717,1902.4838666999717,1904.983911000076,1904.983911000076,1904.968102300074,None,1.0,,,,,,,nback67,1.0,2024-01-22_17h04.19.015,untitled,2023.2.3,59.91044588103704,2024-01-22 17h10.45.205131 -0500,
,"[-0.3, 0]",space,,,,,,,,,0.0,16.0,16.0,16.0,1904.983911000076,,,,,,,,,,,,,,,,,,,,,,,,,,,,,,,,,,,,,,,,,,,,,,,,,,,,,,,,,,,,,,,,,1904.968698300072,1904.983911000076,1904.983911000076,1905.4839366000376,1905.4839366000376,1907.9837494000092,1907.9837494000092,1907.9681968999796,space,1.0,0.5804332999978215,None,,,,,nback67,1.0,2024-01-22_17h04.19.015,untitled,2023.2.3,59.91044588103704,2024-01-22 17h10.45.205131 -0500,
,"[-0.64, -0.4]",None,,,,,,,,,0.0,17.0,17.0,17.0,1907.9837494000092,,,,,,,,,,,,,,,,,,,,,,,,,,,,,,,,,,,,,,,,,,,,,,,,,,,,,,,,,,,,,,,,,1907.9691068000395,1907.9837494000092,1907.9837494000092,1908.4839257000715,1908.4839257000715,1910.9839036000196,1910.9839036000196,1910.968046599999,None,1.0,,,,,,,nback67,1.0,2024-01-22_17h04.19.015,untitled,2023.2.3,59.91044588103704,2024-01-22 17h10.45.205131 -0500,
,"[-0.2, -0.1]",None,,,,,,,,,0.0,18.0,18.0,18.0,1910.9839036000196,,,,,,,,,,,,,,,,,,,,,,,,,,,,,,,,,,,,,,,,,,,,,,,,,,,,,,,,,,,,,,,,,1910.968686599983,1910.9839036000196,1910.9839036000196,1911.4837903999723,1911.4837903999723,1913.9838716000088,1913.9838716000088,1913.9683703000192,None,1.0,,,,,,,nback67,1.0,2024-01-22_17h04.19.015,untitled,2023.2.3,59.91044588103704,2024-01-22 17h10.45.205131 -0500,
,"[0.2, -0.1]",None,,,,,,,,,0.0,19.0,19.0,19.0,1913.9838716000088,,,,,,,,,,,,,,,,,,,,,,,,,,,,,,,,,,,,,,,,,,,,,,,,,,,,,,,,,,,,,,,,,1913.9691951000127,1913.9838716000088,1913.9838716000088,1914.483800300048,1914.483800300048,1916.9837580000749,1916.9837580000749,1916.9680170000065,None,1.0,,,,,,,nback67,1.0,2024-01-22_17h04.19.015,untitled,2023.2.3,59.91044588103704,2024-01-22 17h10.45.205131 -0500,
,"[0.2, -0.1]",None,,,,,,,,,0.0,20.0,20.0,20.0,1916.9837580000749,,,,,,,,,,,,,,,,,,,,,,,,,,,,,,,,,,,,,,,,,,,,,,,,,,,,,,,,,,,,,,,,,1916.968708300032,1916.9837580000749,1916.9837580000749,1917.483654999989,1917.483654999989,1919.983712300076,1919.983712300076,1919.967829499976,None,1.0,,,,,,,nback67,1.0,2024-01-22_17h04.19.015,untitled,2023.2.3,59.91044588103704,2024-01-22 17h10.45.205131 -0500,
,"[-0.64, 0.4]",None,,,,,,,,,0.0,21.0,21.0,21.0,1919.983712300076,,,,,,,,,,,,,,,,,,,,,,,,,,,,,,,,,,,,,,,,,,,,,,,,,,,,,,,,,,,,,,,,,1919.9684295000045,1919.983712300076,1919.983712300076,1920.4836527999723,1920.4836527999723,1922.9837447999744,1922.9837447999744,1922.967887500068,None,1.0,,,,,,,nback67,1.0,2024-01-22_17h04.19.015,untitled,2023.2.3,59.91044588103704,2024-01-22 17h10.45.205131 -0500,
,"[0, 0.2]",None,,,,,,,,,0.0,22.0,22.0,22.0,1922.9837447999744,,,,,,,,,,,,,,,,,,,,,,,,,,,,,,,,,,,,,,,,,,,,,,,,,,,,,,,,,,,,,,,,,1922.968535299995,1922.9837447999744,1922.9837447999744,1923.4836766000367,1923.4836766000367,1925.9833407000408,1925.9833407000408,1925.9672343999848,None,1.0,,,,,,,nback67,1.0,2024-01-22_17h04.19.015,untitled,2023.2.3,59.91044588103704,2024-01-22 17h10.45.205131 -0500,
,"[0.64, -0.4]",None,,,,,,,,,0.0,23.0,23.0,23.0,1925.9833407000408,,,,,,,,,,,,,,,,,,,,,,,,,,,,,,,,,,,,,,,,,,,,,,,,,,,,,,,,,,,,,,,,,1925.9676632999908,1925.9833407000408,1925.9833407000408,1926.4835592000743,1926.4835592000743,1928.9834950000516,1928.9834950000516,1928.967689400073,None,1.0,,,,,,,nback67,1.0,2024-01-22_17h04.19.015,untitled,2023.2.3,59.91044588103704,2024-01-22 17h10.45.205131 -0500,
,"[0, 0.2]",space,,,,,,,,,0.0,24.0,24.0,24.0,1928.9834950000516,,,,,,,,,,,,,,,,,,,,,,,,,,,,,,,,,,,,,,,,,,,,,,,,,,,,,,,,,,,,,,,,,1928.968435200048,1928.9834950000516,1928.9834950000516,1929.4834511000663,1929.4834511000663,1931.983501399984,1931.983501399984,1931.967645799974,space,1.0,0.4105120999738574,None,,,,,nback67,1.0,2024-01-22_17h04.19.015,untitled,2023.2.3,59.91044588103704,2024-01-22 17h10.45.205131 -0500,
,"[-0.2, 0.1]",None,,,,,,,,,0.0,25.0,25.0,25.0,1931.983501399984,,,,,,,,,,,,,,,,,,,,,,,,,,,,,,,,,,,,,,,,,,,,,,,,,,,,,,,,,,,,,,,,,1931.968412099988,1931.983501399984,1931.983501399984,1932.483563599992,1932.483563599992,1934.9833784999792,1934.9833784999792,1934.967092600069,None,1.0,,,,,,,nback67,1.0,2024-01-22_17h04.19.015,untitled,2023.2.3,59.91044588103704,2024-01-22 17h10.45.205131 -0500,
,"[0.3, 0]",None,,,,,,,,,0.0,26.0,26.0,26.0,1934.9833784999792,,,,,,,,,,,,,,,,,,,,,,,,,,,,,,,,,,,,,,,,,,,,,,,,,,,,,,,,,,,,,,,,,1934.9674303000795,1934.9833784999792,1934.9833784999792,1935.4834071000805,1935.4834071000805,1937.9833133000648,1937.9833133000648,1937.967483000015,None,1.0,,,,,,,nback67,1.0,2024-01-22_17h04.19.015,untitled,2023.2.3,59.91044588103704,2024-01-22 17h10.45.205131 -0500,
,"[-0.2, 0.1]",space,,,,,,,,,0.0,27.0,27.0,27.0,1937.9833133000648,,,,,,,,,,,,,,,,,,,,,,,,,,,,,,,,,,,,,,,,,,,,,,,,,,,,,,,,,,,,,,,,,1937.968117200071,1937.9833133000648,1937.9833133000648,1938.4834105999907,1938.4834105999907,1940.9833387000251,1940.9833387000251,1940.9673119999932,space,1.0,0.4343888000585139,None,,,,,nback67,1.0,2024-01-22_17h04.19.015,untitled,2023.2.3,59.91044588103704,2024-01-22 17h10.45.205131 -0500,
,"[-0.2, 0.1]",None,,,,,,,,,0.0,28.0,28.0,28.0,1940.9833387000251,,,,,,,,,,,,,,,,,,,,,,,,,,,,,,,,,,,,,,,,,,,,,,,,,,,,,,,,,,,,,,,,,1940.9680856000632,1940.9833387000251,1940.9833387000251,1941.483270499972,1941.483270499972,1943.9832504000517,1943.9832504000517,1943.9672723000403,None,1.0,,,,,,,nback67,1.0,2024-01-22_17h04.19.015,untitled,2023.2.3,59.91044588103704,2024-01-22 17h10.45.205131 -0500,
,"[0.2, 0.1]",None,,,,,,,,,0.0,29.0,29.0,29.0,1943.9832504000517,,,,,,,,,,,,,,,,,,,,,,,,,,,,,,,,,,,,,,,,,,,,,,,,,,,,,,,,,,,,,,,,,1943.9679390999956,1943.9832504000517,1943.9832504000517,1944.483410199988,1944.483410199988,1946.9832101999784,1946.9832101999784,1946.9675318000368,None,1.0,,,,,,,nback67,1.0,2024-01-22_17h04.19.015,untitled,2023.2.3,59.91044588103704,2024-01-22 17h10.45.205131 -0500,
,"[-0.64, -0.4]",None,,,,,,,,,0.0,30.0,30.0,30.0,1946.9832101999784,,,,,,,,,,,,,,,,,,,,,,,,,,,,,,,,,,,,,,,,,,,,,,,,,,,,,,,,,,,,,,,,,1946.9682371000529,1946.9832101999784,1946.9832101999784,1947.4832129999995,1947.4832129999995,1949.983244700008,1949.983244700008,1949.96734610002,None,1.0,,,,,,,nback67,1.0,2024-01-22_17h04.19.015,untitled,2023.2.3,59.91044588103704,2024-01-22 17h10.45.205131 -0500,
,"[0, -0.2]",None,,,,,,,,,0.0,31.0,31.0,31.0,1949.983244700008,,,,,,,,,,,,,,,,,,,,,,,,,,,,,,,,,,,,,,,,,,,,,,,,,,,,,,,,,,,,,,,,,1949.9678588000825,1949.983244700008,1949.983244700008,1950.4831875000384,1950.4831875000384,1952.9831626000812,1952.9831626000812,1952.967295099981,None,1.0,,,,,,,nback67,1.0,2024-01-22_17h04.19.015,untitled,2023.2.3,59.91044588103704,2024-01-22 17h10.45.205131 -0500,
,"[-0.64, -0.4]",space,,,,,,,,,0.0,32.0,32.0,32.0,1952.9831626000812,,,,,,,,,,,,,,,,,,,,,,,,,,,,,,,,,,,,,,,,,,,,,,,,,,,,,,,,,,,,,,,,,1952.9679134000328,1952.9831626000812,1952.9831626000812,1953.4831222000064,1953.4831222000064,1955.9832248999735,1955.9832248999735,1955.967243800056,space,1.0,0.3754624999128282,None,,,,,nback67,1.0,2024-01-22_17h04.19.015,untitled,2023.2.3,59.91044588103704,2024-01-22 17h10.45.205131 -0500,
,"[0.64, 0.4]",None,,,,,,,,,0.0,33.0,33.0,33.0,1955.9832248999735,,,,,,,,,,,,,,,,,,,,,,,,,,,,,,,,,,,,,,,,,,,,,,,,,,,,,,,,,,,,,,,,,1955.9681133000413,1955.9832248999735,1955.9832248999735,1956.483052200056,1956.483052200056,1958.982893000008,1958.982893000008,1958.9671480000247,None,1.0,,,,,,,nback67,1.0,2024-01-22_17h04.19.015,untitled,2023.2.3,59.91044588103704,2024-01-22 17h10.45.205131 -0500,
,"[-0.3, 0]",None,,,,,,,,,0.0,34.0,34.0,34.0,1958.982893000008,,,,,,,,,,,,,,,,,,,,,,,,,,,,,,,,,,,,,,,,,,,,,,,,,,,,,,,,,,,,,,,,,1958.967742700013,1958.982893000008,1958.982893000008,1959.483027099981,1959.483027099981,1961.9829985999968,1961.9829985999968,1961.966889000032,None,1.0,,,,,,,nback67,1.0,2024-01-22_17h04.19.015,untitled,2023.2.3,59.91044588103704,2024-01-22 17h10.45.205131 -0500,
,"[0.3, 0]",None,,,,,,,,,0.0,35.0,35.0,35.0,1961.9829985999968,,,,,,,,,,,,,,,,,,,,,,,,,,,,,,,,,,,,,,,,,,,,,,,,,,,,,,,,,,,,,,,,,1961.9675286000129,1961.9829985999968,1961.9829985999968,1962.4829139000503,1962.4829139000503,1964.982893700013,1964.982893700013,1964.9673600000096,None,1.0,,,,,,,nback67,1.0,2024-01-22_17h04.19.015,untitled,2023.2.3,59.91044588103704,2024-01-22 17h10.45.205131 -0500,
,"[-0.3, 0]",space,,,,,,,,,0.0,36.0,36.0,36.0,1964.982893700013,,,,,,,,,,,,,,,,,,,,,,,,,,,,,,,,,,,,,,,,,,,,,,,,,,,,,,,,,,,,,,,,,1964.9677992999789,1964.982893700013,1964.982893700013,1965.4829005000647,1965.4829005000647,1967.9827047999715,1967.9827047999715,1967.966844900045,space,1.0,0.395574799971655,None,,,,,nback67,1.0,2024-01-22_17h04.19.015,untitled,2023.2.3,59.91044588103704,2024-01-22 17h10.45.205131 -0500,
,"[0, -0.2]",None,,,,,,,,,0.0,37.0,37.0,37.0,1967.9827047999715,,,,,,,,,,,,,,,,,,,,,,,,,,,,,,,,,,,,,,,,,,,,,,,,,,,,,,,,,,,,,,,,,1967.9675589000108,1967.9827047999715,1967.9827047999715,1968.4828690000577,1968.4828690000577,1970.982647900004,1970.982647900004,1970.9665753999725,None,1.0,,,,,,,nback67,1.0,2024-01-22_17h04.19.015,untitled,2023.2.3,59.91044588103704,2024-01-22 17h10.45.205131 -0500,
,"[0.3, 0]",None,,,,,,,,,0.0,38.0,38.0,38.0,1970.982647900004,,,,,,,,,,,,,,,,,,,,,,,,,,,,,,,,,,,,,,,,,,,,,,,,,,,,,,,,,,,,,,,,,1970.96709619998,1970.982647900004,1970.982647900004,1971.482720099972,1971.482720099972,1973.9827089000028,1973.9827089000028,1973.966932100011,space,0.0,0.5521608999697492,None,,,,,nback67,1.0,2024-01-22_17h04.19.015,untitled,2023.2.3,59.91044588103704,2024-01-22 17h10.45.205131 -0500,
,"[0.2, 0.1]",None,,,,,,,,,0.0,39.0,39.0,39.0,1973.9827089000028,,,,,,,,,,,,,,,,,,,,,,,,,,,,,,,,,,,,,,,,,,,,,,,,,,,,,,,,,,,,,,,,,1973.9676971000156,1973.9827089000028,1973.9827089000028,1974.482620100025,1974.482620100025,1976.9827792000724,1976.9827792000724,1976.9668122000292,None,1.0,,,,,,,nback67,1.0,2024-01-22_17h04.19.015,untitled,2023.2.3,59.91044588103704,2024-01-22 17h10.45.205131 -0500,
,,,,,,,,,,,,,,,,,,,,,,,,,,,,,,,,,,,,,,,,,,,,,,,,,,,,,,,,,,,,,,,,,,,,,,,,,,,,,,,,,,,,,,,,,,,,1976.9672233000165,1976.9827792000724,1979.9826955000167,1979.966855200008,,,,,,,,
