participant_number,trial_number,subexperiment_number,MRTScore,MRTAcc,MRTGroup,nback_hits_0,nback_hit_rate_0,nback_correct_rejections_0,nback_rt_target_0,nback_rt_nontarget_0,nback_composite_0,nback_hits_1,nback_hit_rate_1,nback_correct_rejections_1,nback_rt_target_1,nback_rt_nontarget_1,nback_composite_1,nback_hits_2,nback_hit_rate_2,nback_correct_rejections_2,nback_rt_target_2,nback_rt_nontarget_2,nback_composite_2,rest_time,time_subexperiment,accuracy_subexperiment,accuracy_total,answer_correct_trial,answer_incorrect_trial,feedback_score_subexperiment,nback_hits_avg,nback_hit_rate_avg,nback_rt_target_avg,nback_rt_non_target_avg,nback_composite_avg,trial_duration,trial_duration_mean,performance_trial,feedback_score_tutorial_1,feedback_score_tutorial_2,feedback_score_tutorial_3,feedback_score_rest_1
2,1,0,0,0.0,Low,8,100.0,100.0,429.662737500621,,0.23274068536105127,9,90.0,100.0,468.9398778007469,,0.191922257544156,7,87.5,93.75,395.24815713853707,1204.8808499821462,0.2213799063187806,300.00599999999986,126.63200000000006,50.0,46.875,1,0,5,8.0,92.5,431.2835908133017,,0.21534761640799596,45.052000000000135,18.279750000000035,1.1098286424576012,1,3,8,1
2,2,0,0,0.0,Low,8,100.0,100.0,429.662737500621,,0.23274068536105127,9,90.0,100.0,468.9398778007469,,0.191922257544156,7,87.5,93.75,395.24815713853707,1204.8808499821462,0.2213799063187806,300.00599999999986,126.63200000000006,50.0,46.875,0,1,5,8.0,92.5,431.2835908133017,,0.21534761640799596,11.149999999999864,18.279750000000035,4.484304932735481,1,3,8,1
2,3,0,0,0.0,Low,8,100.0,100.0,429.662737500621,,0.23274068536105127,9,90.0,100.0,468.9398778007469,,0.191922257544156,7,87.5,93.75,395.24815713853707,1204.8808499821462,0.2213799063187806,300.00599999999986,126.63200000000006,50.0,46.875,1,0,5,8.0,92.5,431.2835908133017,,0.21534761640799596,33.85400000000004,18.279750000000035,1.4769303479647882,1,3,8,1
2,4,0,0,0.0,Low,8,100.0,100.0,429.662737500621,,0.23274068536105127,9,90.0,100.0,468.9398778007469,,0.191922257544156,7,87.5,93.75,395.24815713853707,1204.8808499821462,0.2213799063187806,300.00599999999986,126.63200000000006,50.0,46.875,0,1,5,8.0,92.5,431.2835908133017,,0.21534761640799596,28.17800000000011,18.279750000000035,1.774433955568167,1,3,8,1
2,5,1,0,0.0,Low,8,100.0,100.0,429.662737500621,,0.23274068536105127,9,90.0,100.0,468.9398778007469,,0.191922257544156,7,87.5,93.75,395.24815713853707,1204.8808499821462,0.2213799063187806,300.00599999999986,126.63200000000006,75.0,46.875,1,0,4,8.0,92.5,431.2835908133017,,0.21534761640799596,42.835000000000036,18.279750000000035,1.7509046340609302,1,3,8,1
2,6,1,0,0.0,Low,8,100.0,100.0,429.662737500621,,0.23274068536105127,9,90.0,100.0,468.9398778007469,,0.191922257544156,7,87.5,93.75,395.24815713853707,1204.8808499821462,0.2213799063187806,300.00599999999986,126.63200000000006,75.0,46.875,1,0,4,8.0,92.5,431.2835908133017,,0.21534761640799596,31.192999999999984,18.279750000000035,2.404385599333185,1,3,8,1
2,7,1,0,0.0,Low,8,100.0,100.0,429.662737500621,,0.23274068536105127,9,90.0,100.0,468.9398778007469,,0.191922257544156,7,87.5,93.75,395.24815713853707,1204.8808499821462,0.2213799063187806,300.00599999999986,126.63200000000006,75.0,46.875,0,1,4,8.0,92.5,431.2835908133017,,0.21534761640799596,12.032999999999902,18.279750000000035,6.232859636001048,1,3,8,1
2,8,1,0,0.0,Low,8,100.0,100.0,429.662737500621,,0.23274068536105127,9,90.0,100.0,468.9398778007469,,0.191922257544156,7,87.5,93.75,395.24815713853707,1204.8808499821462,0.2213799063187806,300.00599999999986,126.63200000000006,75.0,46.875,1,0,4,8.0,92.5,431.2835908133017,,0.21534761640799596,25.688000000000102,18.279750000000035,2.919651199003414,1,3,8,1
2,9,2,0,0.0,Low,8,100.0,100.0,429.662737500621,,0.23274068536105127,9,90.0,100.0,468.9398778007469,,0.191922257544156,7,87.5,93.75,395.24815713853707,1204.8808499821462,0.2213799063187806,300.00599999999986,126.63200000000006,25.0,46.875,1,0,7,8.0,92.5,431.2835908133017,,0.21534761640799596,39.246999999999844,18.279750000000035,0.6369913623971284,1,3,8,1
2,10,2,0,0.0,Low,8,100.0,100.0,429.662737500621,,0.23274068536105127,9,90.0,100.0,468.9398778007469,,0.191922257544156,7,87.5,93.75,395.24815713853707,1204.8808499821462,0.2213799063187806,300.00599999999986,126.63200000000006,25.0,46.875,0,1,7,8.0,92.5,431.2835908133017,,0.21534761640799596,31.576000000000022,18.279750000000035,0.791740562452495,1,3,8,1
2,11,2,0,0.0,Low,8,100.0,100.0,429.662737500621,,0.23274068536105127,9,90.0,100.0,468.9398778007469,,0.191922257544156,7,87.5,93.75,395.24815713853707,1204.8808499821462,0.2213799063187806,300.00599999999986,126.63200000000006,25.0,46.875,0,1,7,8.0,92.5,431.2835908133017,,0.21534761640799596,40.256000000000085,18.279750000000035,0.6210254372019065,1,3,8,1
2,12,2,0,0.0,Low,8,100.0,100.0,429.662737500621,,0.23274068536105127,9,90.0,100.0,468.9398778007469,,0.191922257544156,7,87.5,93.75,395.24815713853707,1204.8808499821462,0.2213799063187806,300.00599999999986,126.63200000000006,25.0,46.875,0,1,7,8.0,92.5,431.2835908133017,,0.21534761640799596,31.654999999999973,18.279750000000035,0.7897646501342608,1,3,8,1
2,13,3,0,0.0,Low,8,100.0,100.0,429.662737500621,,0.23274068536105127,9,90.0,100.0,468.9398778007469,,0.191922257544156,7,87.5,93.75,395.24815713853707,1204.8808499821462,0.2213799063187806,300.00599999999986,126.63200000000006,25.0,46.875,0,1,7,8.0,92.5,431.2835908133017,,0.21534761640799596,15.026000000000067,18.279750000000035,1.6637827765206898,1,3,8,1
2,14,3,0,0.0,Low,8,100.0,100.0,429.662737500621,,0.23274068536105127,9,90.0,100.0,468.9398778007469,,0.191922257544156,7,87.5,93.75,395.24815713853707,1204.8808499821462,0.2213799063187806,300.00599999999986,126.63200000000006,25.0,46.875,1,0,7,8.0,92.5,431.2835908133017,,0.21534761640799596,22.374000000000024,18.279750000000035,1.117368374005541,1,3,8,1
2,15,3,0,0.0,Low,8,100.0,100.0,429.662737500621,,0.23274068536105127,9,90.0,100.0,468.9398778007469,,0.191922257544156,7,87.5,93.75,395.24815713853707,1204.8808499821462,0.2213799063187806,300.00599999999986,126.63200000000006,25.0,46.875,0,1,7,8.0,92.5,431.2835908133017,,0.21534761640799596,23.822999999999865,18.279750000000035,1.049406036183526,1,3,8,1
2,16,3,0,0.0,Low,8,100.0,100.0,429.662737500621,,0.23274068536105127,9,90.0,100.0,468.9398778007469,,0.191922257544156,7,87.5,93.75,395.24815713853707,1204.8808499821462,0.2213799063187806,300.00599999999986,126.63200000000006,25.0,46.875,0,1,7,8.0,92.5,431.2835908133017,,0.21534761640799596,30.13000000000011,18.279750000000035,0.829737802854295,1,3,8,1
2,17,4,0,0.0,Low,8,100.0,100.0,429.662737500621,,0.23274068536105127,9,90.0,100.0,468.9398778007469,,0.191922257544156,7,87.5,93.75,395.24815713853707,1204.8808499821462,0.2213799063187806,300.00599999999986,126.63200000000006,25.0,46.875,0,1,7,8.0,92.5,431.2835908133017,,0.21534761640799596,28.631999999999834,18.279750000000035,0.8731489242805304,1,3,8,1
2,18,4,0,0.0,Low,8,100.0,100.0,429.662737500621,,0.23274068536105127,9,90.0,100.0,468.9398778007469,,0.191922257544156,7,87.5,93.75,395.24815713853707,1204.8808499821462,0.2213799063187806,300.00599999999986,126.63200000000006,25.0,46.875,0,1,7,8.0,92.5,431.2835908133017,,0.21534761640799596,35.16100000000006,18.279750000000035,0.7110150450783527,1,3,8,1
2,19,4,0,0.0,Low,8,100.0,100.0,429.662737500621,,0.23274068536105127,9,90.0,100.0,468.9398778007469,,0.191922257544156,7,87.5,93.75,395.24815713853707,1204.8808499821462,0.2213799063187806,300.00599999999986,126.63200000000006,25.0,46.875,0,1,7,8.0,92.5,431.2835908133017,,0.21534761640799596,42.17000000000007,18.279750000000035,0.5928385107896599,1,3,8,1
2,20,4,0,0.0,Low,8,100.0,100.0,429.662737500621,,0.23274068536105127,9,90.0,100.0,468.9398778007469,,0.191922257544156,7,87.5,93.75,395.24815713853707,1204.8808499821462,0.2213799063187806,300.00599999999986,126.63200000000006,25.0,46.875,1,0,7,8.0,92.5,431.2835908133017,,0.21534761640799596,40.552000000000135,18.279750000000035,0.6164924048135707,1,3,8,1
2,21,5,0,0.0,Low,8,100.0,100.0,429.662737500621,,0.23274068536105127,9,90.0,100.0,468.9398778007469,,0.191922257544156,7,87.5,93.75,395.24815713853707,1204.8808499821462,0.2213799063187806,300.00599999999986,126.63200000000006,75.0,46.875,0,1,7,8.0,92.5,431.2835908133017,,0.21534761640799596,25.311999999999898,18.279750000000035,2.9630214917825657,1,3,8,1
2,22,5,0,0.0,Low,8,100.0,100.0,429.662737500621,,0.23274068536105127,9,90.0,100.0,468.9398778007469,,0.191922257544156,7,87.5,93.75,395.24815713853707,1204.8808499821462,0.2213799063187806,300.00599999999986,126.63200000000006,75.0,46.875,1,0,7,8.0,92.5,431.2835908133017,,0.21534761640799596,34.152000000000044,18.279750000000035,2.1960646521433564,1,3,8,1
2,23,5,0,0.0,Low,8,100.0,100.0,429.662737500621,,0.23274068536105127,9,90.0,100.0,468.9398778007469,,0.191922257544156,7,87.5,93.75,395.24815713853707,1204.8808499821462,0.2213799063187806,300.00599999999986,126.63200000000006,75.0,46.875,1,0,7,8.0,92.5,431.2835908133017,,0.21534761640799596,22.338999999999942,18.279750000000035,3.357357088499942,1,3,8,1
2,24,5,0,0.0,Low,8,100.0,100.0,429.662737500621,,0.23274068536105127,9,90.0,100.0,468.9398778007469,,0.191922257544156,7,87.5,93.75,395.24815713853707,1204.8808499821462,0.2213799063187806,300.00599999999986,126.63200000000006,75.0,46.875,1,0,7,8.0,92.5,431.2835908133017,,0.21534761640799596,47.71799999999985,18.279750000000035,1.5717339368791703,1,3,8,1
2,25,6,0,0.0,Low,8,100.0,100.0,429.662737500621,,0.23274068536105127,9,90.0,100.0,468.9398778007469,,0.191922257544156,7,87.5,93.75,395.24815713853707,1204.8808499821462,0.2213799063187806,300.00599999999986,126.63200000000006,75.0,46.875,1,0,6,8.0,92.5,431.2835908133017,,0.21534761640799596,37.70900000000029,18.279750000000035,1.9889151131029577,1,3,8,1
2,26,6,0,0.0,Low,8,100.0,100.0,429.662737500621,,0.23274068536105127,9,90.0,100.0,468.9398778007469,,0.191922257544156,7,87.5,93.75,395.24815713853707,1204.8808499821462,0.2213799063187806,300.00599999999986,126.63200000000006,75.0,46.875,1,0,6,8.0,92.5,431.2835908133017,,0.21534761640799596,18.524999999999636,18.279750000000035,4.048582995951497,1,3,8,1
2,27,6,0,0.0,Low,8,100.0,100.0,429.662737500621,,0.23274068536105127,9,90.0,100.0,468.9398778007469,,0.191922257544156,7,87.5,93.75,395.24815713853707,1204.8808499821462,0.2213799063187806,300.00599999999986,126.63200000000006,75.0,46.875,1,0,6,8.0,92.5,431.2835908133017,,0.21534761640799596,34.03500000000031,18.279750000000035,2.2036139268399975,1,3,8,1
2,28,6,0,0.0,Low,8,100.0,100.0,429.662737500621,,0.23274068536105127,9,90.0,100.0,468.9398778007469,,0.191922257544156,7,87.5,93.75,395.24815713853707,1204.8808499821462,0.2213799063187806,300.00599999999986,126.63200000000006,75.0,46.875,0,1,6,8.0,92.5,431.2835908133017,,0.21534761640799596,33.766999999999825,18.279750000000035,2.2211034441910855,1,3,8,1
2,29,7,0,0.0,Low,8,100.0,100.0,429.662737500621,,0.23274068536105127,9,90.0,100.0,468.9398778007469,,0.191922257544156,7,87.5,93.75,395.24815713853707,1204.8808499821462,0.2213799063187806,300.00599999999986,126.63200000000006,25.0,46.875,1,0,7,8.0,92.5,431.2835908133017,,0.21534761640799596,33.31800000000021,18.279750000000035,0.7503451587730309,1,3,8,1
2,30,7,0,0.0,Low,8,100.0,100.0,429.662737500621,,0.23274068536105127,9,90.0,100.0,468.9398778007469,,0.191922257544156,7,87.5,93.75,395.24815713853707,1204.8808499821462,0.2213799063187806,300.00599999999986,126.63200000000006,25.0,46.875,0,1,7,8.0,92.5,431.2835908133017,,0.21534761640799596,20.679999999999836,18.279750000000035,1.2088974854932397,1,3,8,1
2,31,7,0,0.0,Low,8,100.0,100.0,429.662737500621,,0.23274068536105127,9,90.0,100.0,468.9398778007469,,0.191922257544156,7,87.5,93.75,395.24815713853707,1204.8808499821462,0.2213799063187806,300.00599999999986,126.63200000000006,25.0,46.875,0,1,7,8.0,92.5,431.2835908133017,,0.21534761640799596,27.38700000000017,18.279750000000035,0.9128418592762934,1,3,8,1
2,32,7,0,0.0,Low,8,100.0,100.0,429.662737500621,,0.23274068536105127,9,90.0,100.0,468.9398778007469,,0.191922257544156,7,87.5,93.75,395.24815713853707,1204.8808499821462,0.2213799063187806,300.00599999999986,126.63200000000006,25.0,46.875,0,1,7,8.0,92.5,431.2835908133017,,0.21534761640799596,45.246999999999844,18.279750000000035,0.5525228191924345,1,3,8,1
3,1,0,0,0.0,Low,8,100.0,100.0,432.0889249938773,,0.2314338420069827,10,100.0,100.0,444.56208002520725,,0.2249404627455627,8,100.0,96.875,543.1930249906145,2013.5157000040635,0.18409662016872885,300.0095,82.37299999999982,25.0,78.125,0,1,6,8.666666666666666,100.0,473.28134333656635,,0.2134903083070914,15.986999999999853,18.279750000000035,1.5637705635829255,4,1,7,1
3,2,0,0,0.0,Low,8,100.0,100.0,432.0889249938773,,0.2314338420069827,10,100.0,100.0,444.56208002520725,,0.2249404627455627,8,100.0,96.875,543.1930249906145,2013.5157000040635,0.18409662016872885,300.0095,82.37299999999982,25.0,78.125,1,0,6,8.666666666666666,100.0,473.28134333656635,,0.2134903083070914,21.585000000000036,18.279750000000035,1.1582117211026155,4,1,7,1
3,3,0,0,0.0,Low,8,100.0,100.0,432.0889249938773,,0.2314338420069827,10,100.0,100.0,444.56208002520725,,0.2249404627455627,8,100.0,96.875,543.1930249906145,2013.5157000040635,0.18409662016872885,300.0095,82.37299999999982,25.0,78.125,0,1,6,8.666666666666666,100.0,473.28134333656635,,0.2134903083070914,30.735000000000127,18.279750000000035,0.813404912965671,4,1,7,1
3,4,0,0,0.0,Low,8,100.0,100.0,432.0889249938773,,0.2314338420069827,10,100.0,100.0,444.56208002520725,,0.2249404627455627,8,100.0,96.875,543.1930249906145,2013.5157000040635,0.18409662016872885,300.0095,82.37299999999982,25.0,78.125,0,1,6,8.666666666666666,100.0,473.28134333656635,,0.2134903083070914,38.3119999999999,18.279750000000035,0.6525370641052429,4,1,7,1
3,5,1,0,0.0,Low,8,100.0,100.0,432.0889249938773,,0.2314338420069827,10,100.0,100.0,444.56208002520725,,0.2249404627455627,8,100.0,96.875,543.1930249906145,2013.5157000040635,0.18409662016872885,300.0095,82.37299999999982,100.0,78.125,1,0,2,8.666666666666666,100.0,473.28134333656635,,0.2134903083070914,25.40000000000009,18.279750000000035,3.937007874015734,4,1,7,1
3,6,1,0,0.0,Low,8,100.0,100.0,432.0889249938773,,0.2314338420069827,10,100.0,100.0,444.56208002520725,,0.2249404627455627,8,100.0,96.875,543.1930249906145,2013.5157000040635,0.18409662016872885,300.0095,82.37299999999982,100.0,78.125,1,0,2,8.666666666666666,100.0,473.28134333656635,,0.2134903083070914,9.707999999999856,18.279750000000035,10.300782859497474,4,1,7,1
3,7,1,0,0.0,Low,8,100.0,100.0,432.0889249938773,,0.2314338420069827,10,100.0,100.0,444.56208002520725,,0.2249404627455627,8,100.0,96.875,543.1930249906145,2013.5157000040635,0.18409662016872885,300.0095,82.37299999999982,100.0,78.125,1,0,2,8.666666666666666,100.0,473.28134333656635,,0.2134903083070914,9.07100000000014,18.279750000000035,11.024142872891463,4,1,7,1
3,8,1,0,0.0,Low,8,100.0,100.0,432.0889249938773,,0.2314338420069827,10,100.0,100.0,444.56208002520725,,0.2249404627455627,8,100.0,96.875,543.1930249906145,2013.5157000040635,0.18409662016872885,300.0095,82.37299999999982,100.0,78.125,1,0,2,8.666666666666666,100.0,473.28134333656635,,0.2134903083070914,15.042999999999893,18.279750000000035,6.647610184138849,4,1,7,1
3,9,2,0,0.0,Low,8,100.0,100.0,432.0889249938773,,0.2314338420069827,10,100.0,100.0,444.56208002520725,,0.2249404627455627,8,100.0,96.875,543.1930249906145,2013.5157000040635,0.18409662016872885,300.0095,82.37299999999982,75.0,78.125,1,0,3,8.666666666666666,100.0,473.28134333656635,,0.2134903083070914,19.124000000000024,18.279750000000035,3.9217736875130678,4,1,7,1
3,10,2,0,0.0,Low,8,100.0,100.0,432.0889249938773,,0.2314338420069827,10,100.0,100.0,444.56208002520725,,0.2249404627455627,8,100.0,96.875,543.1930249906145,2013.5157000040635,0.18409662016872885,300.0095,82.37299999999982,75.0,78.125,0,1,3,8.666666666666666,100.0,473.28134333656635,,0.2134903083070914,31.988000000000056,18.279750000000035,2.3446292359634824,4,1,7,1
3,11,2,0,0.0,Low,8,100.0,100.0,432.0889249938773,,0.2314338420069827,10,100.0,100.0,444.56208002520725,,0.2249404627455627,8,100.0,96.875,543.1930249906145,2013.5157000040635,0.18409662016872885,300.0095,82.37299999999982,75.0,78.125,1,0,3,8.666666666666666,100.0,473.28134333656635,,0.2134903083070914,19.909999999999854,18.279750000000035,3.766951280763463,4,1,7,1
3,12,2,0,0.0,Low,8,100.0,100.0,432.0889249938773,,0.2314338420069827,10,100.0,100.0,444.56208002520725,,0.2249404627455627,8,100.0,96.875,543.1930249906145,2013.5157000040635,0.18409662016872885,300.0095,82.37299999999982,75.0,78.125,1,0,3,8.666666666666666,100.0,473.28134333656635,,0.2134903083070914,29.64500000000021,18.279750000000035,2.529937594872642,4,1,7,1
3,13,3,0,0.0,Low,8,100.0,100.0,432.0889249938773,,0.2314338420069827,10,100.0,100.0,444.56208002520725,,0.2249404627455627,8,100.0,96.875,543.1930249906145,2013.5157000040635,0.18409662016872885,300.0095,82.37299999999982,100.0,78.125,1,0,2,8.666666666666666,100.0,473.28134333656635,,0.2134903083070914,34.677999999999884,18.279750000000035,2.883672645481295,4,1,7,1
3,14,3,0,0.0,Low,8,100.0,100.0,432.0889249938773,,0.2314338420069827,10,100.0,100.0,444.56208002520725,,0.2249404627455627,8,100.0,96.875,543.1930249906145,2013.5157000040635,0.18409662016872885,300.0095,82.37299999999982,100.0,78.125,1,0,2,8.666666666666666,100.0,473.28134333656635,,0.2134903083070914,10.586999999999989,18.279750000000035,9.445546424860687,4,1,7,1
3,15,3,0,0.0,Low,8,100.0,100.0,432.0889249938773,,0.2314338420069827,10,100.0,100.0,444.56208002520725,,0.2249404627455627,8,100.0,96.875,543.1930249906145,2013.5157000040635,0.18409662016872885,300.0095,82.37299999999982,100.0,78.125,1,0,2,8.666666666666666,100.0,473.28134333656635,,0.2134903083070914,33.5630000000001,18.279750000000035,2.9794714417662216,4,1,7,1
3,16,3,0,0.0,Low,8,100.0,100.0,432.0889249938773,,0.2314338420069827,10,100.0,100.0,444.56208002520725,,0.2249404627455627,8,100.0,96.875,543.1930249906145,2013.5157000040635,0.18409662016872885,300.0095,82.37299999999982,100.0,78.125,1,0,2,8.666666666666666,100.0,473.28134333656635,,0.2134903083070914,16.843999999999824,18.279750000000035,5.936832106388094,4,1,7,1
3,17,4,0,0.0,Low,8,100.0,100.0,432.0889249938773,,0.2314338420069827,10,100.0,100.0,444.56208002520725,,0.2249404627455627,8,100.0,96.875,543.1930249906145,2013.5157000040635,0.18409662016872885,300.0095,82.37299999999982,75.0,78.125,0,1,3,8.666666666666666,100.0,473.28134333656635,,0.2134903083070914,15.993000000000166,18.279750000000035,4.689551678859453,4,1,7,1
3,18,4,0,0.0,Low,8,100.0,100.0,432.0889249938773,,0.2314338420069827,10,100.0,100.0,444.56208002520725,,0.2249404627455627,8,100.0,96.875,543.1930249906145,2013.5157000040635,0.18409662016872885,300.0095,82.37299999999982,75.0,78.125,1,0,3,8.666666666666666,100.0,473.28134333656635,,0.2134903083070914,19.412000000000035,18.279750000000035,3.863589532248087,4,1,7,1
3,19,4,0,0.0,Low,8,100.0,100.0,432.0889249938773,,0.2314338420069827,10,100.0,100.0,444.56208002520725,,0.2249404627455627,8,100.0,96.875,543.1930249906145,2013.5157000040635,0.18409662016872885,300.0095,82.37299999999982,75.0,78.125,1,0,3,8.666666666666666,100.0,473.28134333656635,,0.2134903083070914,13.63299999999981,18.279750000000035,5.501357001393754,4,1,7,1
3,20,4,0,0.0,Low,8,100.0,100.0,432.0889249938773,,0.2314338420069827,10,100.0,100.0,444.56208002520725,,0.2249404627455627,8,100.0,96.875,543.1930249906145,2013.5157000040635,0.18409662016872885,300.0095,82.37299999999982,75.0,78.125,1,0,3,8.666666666666666,100.0,473.28134333656635,,0.2134903083070914,32.759000000000015,18.279750000000035,2.289447174822185,4,1,7,1
3,21,5,0,0.0,Low,8,100.0,100.0,432.0889249938773,,0.2314338420069827,10,100.0,100.0,444.56208002520725,,0.2249404627455627,8,100.0,96.875,543.1930249906145,2013.5157000040635,0.18409662016872885,300.0095,82.37299999999982,75.0,78.125,1,0,4,8.666666666666666,100.0,473.28134333656635,,0.2134903083070914,13.286000000000058,18.279750000000035,5.645039891615209,4,1,7,1
3,22,5,0,0.0,Low,8,100.0,100.0,432.0889249938773,,0.2314338420069827,10,100.0,100.0,444.56208002520725,,0.2249404627455627,8,100.0,96.875,543.1930249906145,2013.5157000040635,0.18409662016872885,300.0095,82.37299999999982,75.0,78.125,1,0,4,8.666666666666666,100.0,473.28134333656635,,0.2134903083070914,22.810999999999922,18.279750000000035,3.2878874227346566,4,1,7,1
3,23,5,0,0.0,Low,8,100.0,100.0,432.0889249938773,,0.2314338420069827,10,100.0,100.0,444.56208002520725,,0.2249404627455627,8,100.0,96.875,543.1930249906145,2013.5157000040635,0.18409662016872885,300.0095,82.37299999999982,75.0,78.125,1,0,4,8.666666666666666,100.0,473.28134333656635,,0.2134903083070914,23.479000000000042,18.279750000000035,3.194343881766679,4,1,7,1
3,24,5,0,0.0,Low,8,100.0,100.0,432.0889249938773,,0.2314338420069827,10,100.0,100.0,444.56208002520725,,0.2249404627455627,8,100.0,96.875,543.1930249906145,2013.5157000040635,0.18409662016872885,300.0095,82.37299999999982,75.0,78.125,0,1,4,8.666666666666666,100.0,473.28134333656635,,0.2134903083070914,39.11000000000013,18.279750000000035,1.9176681155714588,4,1,7,1
3,25,6,0,0.0,Low,8,100.0,100.0,432.0889249938773,,0.2314338420069827,10,100.0,100.0,444.56208002520725,,0.2249404627455627,8,100.0,96.875,543.1930249906145,2013.5157000040635,0.18409662016872885,300.0095,82.37299999999982,75.0,78.125,1,0,6,8.666666666666666,100.0,473.28134333656635,,0.2134903083070914,12.649999999999864,18.279750000000035,5.928853754940775,4,1,7,1
3,26,6,0,0.0,Low,8,100.0,100.0,432.0889249938773,,0.2314338420069827,10,100.0,100.0,444.56208002520725,,0.2249404627455627,8,100.0,96.875,543.1930249906145,2013.5157000040635,0.18409662016872885,300.0095,82.37299999999982,75.0,78.125,1,0,6,8.666666666666666,100.0,473.28134333656635,,0.2134903083070914,17.182999999999993,18.279750000000035,4.364779142175408,4,1,7,1
3,27,6,0,0.0,Low,8,100.0,100.0,432.0889249938773,,0.2314338420069827,10,100.0,100.0,444.56208002520725,,0.2249404627455627,8,100.0,96.875,543.1930249906145,2013.5157000040635,0.18409662016872885,300.0095,82.37299999999982,75.0,78.125,0,1,6,8.666666666666666,100.0,473.28134333656635,,0.2134903083070914,21.610000000000127,18.279750000000035,3.470615455807476,4,1,7,1
3,28,6,0,0.0,Low,8,100.0,100.0,432.0889249938773,,0.2314338420069827,10,100.0,100.0,444.56208002520725,,0.2249404627455627,8,100.0,96.875,543.1930249906145,2013.5157000040635,0.18409662016872885,300.0095,82.37299999999982,75.0,78.125,1,0,6,8.666666666666666,100.0,473.28134333656635,,0.2134903083070914,22.479000000000042,18.279750000000035,3.3364473508607975,4,1,7,1
3,29,7,0,0.0,Low,8,100.0,100.0,432.0889249938773,,0.2314338420069827,10,100.0,100.0,444.56208002520725,,0.2249404627455627,8,100.0,96.875,543.1930249906145,2013.5157000040635,0.18409662016872885,300.0095,82.37299999999982,100.0,78.125,1,0,7,8.666666666666666,100.0,473.28134333656635,,0.2134903083070914,15.670999999999822,18.279750000000035,6.381213706847115,4,1,7,1
3,30,7,0,0.0,Low,8,100.0,100.0,432.0889249938773,,0.2314338420069827,10,100.0,100.0,444.56208002520725,,0.2249404627455627,8,100.0,96.875,543.1930249906145,2013.5157000040635,0.18409662016872885,300.0095,82.37299999999982,100.0,78.125,1,0,7,8.666666666666666,100.0,473.28134333656635,,0.2134903083070914,21.593000000000075,18.279750000000035,4.631130458945012,4,1,7,1
3,31,7,0,0.0,Low,8,100.0,100.0,432.0889249938773,,0.2314338420069827,10,100.0,100.0,444.56208002520725,,0.2249404627455627,8,100.0,96.875,543.1930249906145,2013.5157000040635,0.18409662016872885,300.0095,82.37299999999982,100.0,78.125,1,0,7,8.666666666666666,100.0,473.28134333656635,,0.2134903083070914,31.396999999999935,18.279750000000035,3.1850176768481133,4,1,7,1
3,32,7,0,0.0,Low,8,100.0,100.0,432.0889249938773,,0.2314338420069827,10,100.0,100.0,444.56208002520725,,0.2249404627455627,8,100.0,96.875,543.1930249906145,2013.5157000040635,0.18409662016872885,300.0095,82.37299999999982,100.0,78.125,1,0,7,8.666666666666666,100.0,473.28134333656635,,0.2134903083070914,13.711999999999989,18.279750000000035,7.2928821470245095,4,1,7,1
4,1,0,3,12.5,Low,8,100.0,100.0,404.70643748994917,,0.2470926843175888,4,40.0,100.0,649.7102749708574,,0.06156590335868429,8,100.0,96.875,789.0615499636624,1578.8971000583842,0.12673282585446619,300.0152999999999,113.47700000000009,75.0,84.375,1,0,4,6.666666666666667,80.0,614.4927541414896,,0.1451304711769131,36.62760000000003,18.279750000000035,2.047636208760605,5,1,7,4
4,2,0,3,12.5,Low,8,100.0,100.0,404.70643748994917,,0.2470926843175888,4,40.0,100.0,649.7102749708574,,0.06156590335868429,8,100.0,96.875,789.0615499636624,1578.8971000583842,0.12673282585446619,300.0152999999999,113.47700000000009,75.0,84.375,1,0,4,6.666666666666667,80.0,614.4927541414896,,0.1451304711769131,30.31549999999993,18.279750000000035,2.473981956424937,5,1,7,4
4,3,0,3,12.5,Low,8,100.0,100.0,404.70643748994917,,0.2470926843175888,4,40.0,100.0,649.7102749708574,,0.06156590335868429,8,100.0,96.875,789.0615499636624,1578.8971000583842,0.12673282585446619,300.0152999999999,113.47700000000009,75.0,84.375,0,1,4,6.666666666666667,80.0,614.4927541414896,,0.1451304711769131,32.14350000000002,18.279750000000035,2.3332866675999804,5,1,7,4
4,4,0,3,12.5,Low,8,100.0,100.0,404.70643748994917,,0.2470926843175888,4,40.0,100.0,649.7102749708574,,0.06156590335868429,8,100.0,96.875,789.0615499636624,1578.8971000583842,0.12673282585446619,300.0152999999999,113.47700000000009,75.0,84.375,1,0,4,6.666666666666667,80.0,614.4927541414896,,0.1451304711769131,26.01679999999999,18.279750000000035,2.8827526828818315,5,1,7,4
4,5,1,3,12.5,Low,8,100.0,100.0,404.70643748994917,,0.2470926843175888,4,40.0,100.0,649.7102749708574,,0.06156590335868429,8,100.0,96.875,789.0615499636624,1578.8971000583842,0.12673282585446619,300.0152999999999,113.47700000000009,100.0,84.375,1,0,3,6.666666666666667,80.0,614.4927541414896,,0.1451304711769131,26.881000000000085,18.279750000000035,3.720099698671912,5,1,7,4
4,6,1,3,12.5,Low,8,100.0,100.0,404.70643748994917,,0.2470926843175888,4,40.0,100.0,649.7102749708574,,0.06156590335868429,8,100.0,96.875,789.0615499636624,1578.8971000583842,0.12673282585446619,300.0152999999999,113.47700000000009,100.0,84.375,1,0,3,6.666666666666667,80.0,614.4927541414896,,0.1451304711769131,21.955999999999904,18.279750000000035,4.554563672800166,5,1,7,4
4,7,1,3,12.5,Low,8,100.0,100.0,404.70643748994917,,0.2470926843175888,4,40.0,100.0,649.7102749708574,,0.06156590335868429,8,100.0,96.875,789.0615499636624,1578.8971000583842,0.12673282585446619,300.0152999999999,113.47700000000009,100.0,84.375,1,0,3,6.666666666666667,80.0,614.4927541414896,,0.1451304711769131,16.11200000000008,18.279750000000035,6.206554121151905,5,1,7,4
4,8,1,3,12.5,Low,8,100.0,100.0,404.70643748994917,,0.2470926843175888,4,40.0,100.0,649.7102749708574,,0.06156590335868429,8,100.0,96.875,789.0615499636624,1578.8971000583842,0.12673282585446619,300.0152999999999,113.47700000000009,100.0,84.375,1,0,3,6.666666666666667,80.0,614.4927541414896,,0.1451304711769131,18.595000000000027,18.279750000000035,5.377789728421611,5,1,7,4
4,9,2,3,12.5,Low,8,100.0,100.0,404.70643748994917,,0.2470926843175888,4,40.0,100.0,649.7102749708574,,0.06156590335868429,8,100.0,96.875,789.0615499636624,1578.8971000583842,0.12673282585446619,300.0152999999999,113.47700000000009,50.0,84.375,1,0,5,6.666666666666667,80.0,614.4927541414896,,0.1451304711769131,26.55399999999986,18.279750000000035,1.8829554869322986,5,1,7,4
4,10,2,3,12.5,Low,8,100.0,100.0,404.70643748994917,,0.2470926843175888,4,40.0,100.0,649.7102749708574,,0.06156590335868429,8,100.0,96.875,789.0615499636624,1578.8971000583842,0.12673282585446619,300.0152999999999,113.47700000000009,50.0,84.375,0,1,5,6.666666666666667,80.0,614.4927541414896,,0.1451304711769131,35.00700000000006,18.279750000000035,1.4282857714171426,5,1,7,4
4,11,2,3,12.5,Low,8,100.0,100.0,404.70643748994917,,0.2470926843175888,4,40.0,100.0,649.7102749708574,,0.06156590335868429,8,100.0,96.875,789.0615499636624,1578.8971000583842,0.12673282585446619,300.0152999999999,113.47700000000009,50.0,84.375,0,1,5,6.666666666666667,80.0,614.4927541414896,,0.1451304711769131,44.77600000000007,18.279750000000035,1.1166696444523834,5,1,7,4
4,12,2,3,12.5,Low,8,100.0,100.0,404.70643748994917,,0.2470926843175888,4,40.0,100.0,649.7102749708574,,0.06156590335868429,8,100.0,96.875,789.0615499636624,1578.8971000583842,0.12673282585446619,300.0152999999999,113.47700000000009,50.0,84.375,1,0,5,6.666666666666667,80.0,614.4927541414896,,0.1451304711769131,29.345000000000027,18.279750000000035,1.703867779860281,5,1,7,4
4,13,3,3,12.5,Low,8,100.0,100.0,404.70643748994917,,0.2470926843175888,4,40.0,100.0,649.7102749708574,,0.06156590335868429,8,100.0,96.875,789.0615499636624,1578.8971000583842,0.12673282585446619,300.0152999999999,113.47700000000009,100.0,84.375,1,0,5,6.666666666666667,80.0,614.4927541414896,,0.1451304711769131,37.557000000000016,18.279750000000035,2.6626194850493903,5,1,7,4
4,14,3,3,12.5,Low,8,100.0,100.0,404.70643748994917,,0.2470926843175888,4,40.0,100.0,649.7102749708574,,0.06156590335868429,8,100.0,96.875,789.0615499636624,1578.8971000583842,0.12673282585446619,300.0152999999999,113.47700000000009,100.0,84.375,1,0,5,6.666666666666667,80.0,614.4927541414896,,0.1451304711769131,45.200999999999794,18.279750000000035,2.2123404349461397,5,1,7,4
4,15,3,3,12.5,Low,8,100.0,100.0,404.70643748994917,,0.2470926843175888,4,40.0,100.0,649.7102749708574,,0.06156590335868429,8,100.0,96.875,789.0615499636624,1578.8971000583842,0.12673282585446619,300.0152999999999,113.47700000000009,100.0,84.375,1,0,5,6.666666666666667,80.0,614.4927541414896,,0.1451304711769131,27.93300000000022,18.279750000000035,3.5799949880069883,5,1,7,4
4,16,3,3,12.5,Low,8,100.0,100.0,404.70643748994917,,0.2470926843175888,4,40.0,100.0,649.7102749708574,,0.06156590335868429,8,100.0,96.875,789.0615499636624,1578.8971000583842,0.12673282585446619,300.0152999999999,113.47700000000009,100.0,84.375,1,0,5,6.666666666666667,80.0,614.4927541414896,,0.1451304711769131,28.88499999999999,18.279750000000035,3.4620045006058517,5,1,7,4
4,17,4,3,12.5,Low,8,100.0,100.0,404.70643748994917,,0.2470926843175888,4,40.0,100.0,649.7102749708574,,0.06156590335868429,8,100.0,96.875,789.0615499636624,1578.8971000583842,0.12673282585446619,300.0152999999999,113.47700000000009,100.0,84.375,1,0,6,6.666666666666667,80.0,614.4927541414896,,0.1451304711769131,26.011999999999944,18.279750000000035,3.844379517145941,5,1,7,4
4,18,4,3,12.5,Low,8,100.0,100.0,404.70643748994917,,0.2470926843175888,4,40.0,100.0,649.7102749708574,,0.06156590335868429,8,100.0,96.875,789.0615499636624,1578.8971000583842,0.12673282585446619,300.0152999999999,113.47700000000009,100.0,84.375,1,0,6,6.666666666666667,80.0,614.4927541414896,,0.1451304711769131,28.71900000000005,18.279750000000035,3.48201539050802,5,1,7,4
4,19,4,3,12.5,Low,8,100.0,100.0,404.70643748994917,,0.2470926843175888,4,40.0,100.0,649.7102749708574,,0.06156590335868429,8,100.0,96.875,789.0615499636624,1578.8971000583842,0.12673282585446619,300.0152999999999,113.47700000000009,100.0,84.375,1,0,6,6.666666666666667,80.0,614.4927541414896,,0.1451304711769131,19.759000000000015,18.279750000000035,5.060984867655241,5,1,7,4
4,20,4,3,12.5,Low,8,100.0,100.0,404.70643748994917,,0.2470926843175888,4,40.0,100.0,649.7102749708574,,0.06156590335868429,8,100.0,96.875,789.0615499636624,1578.8971000583842,0.12673282585446619,300.0152999999999,113.47700000000009,100.0,84.375,1,0,6,6.666666666666667,80.0,614.4927541414896,,0.1451304711769131,30.49499999999989,18.279750000000035,3.2792261026397886,5,1,7,4
4,21,5,3,12.5,Low,8,100.0,100.0,404.70643748994917,,0.2470926843175888,4,40.0,100.0,649.7102749708574,,0.06156590335868429,8,100.0,96.875,789.0615499636624,1578.8971000583842,0.12673282585446619,300.0152999999999,113.47700000000009,75.0,84.375,1,0,7,6.666666666666667,80.0,614.4927541414896,,0.1451304711769131,42.55799999999999,18.279750000000035,1.76230086000282,5,1,7,4
4,22,5,3,12.5,Low,8,100.0,100.0,404.70643748994917,,0.2470926843175888,4,40.0,100.0,649.7102749708574,,0.06156590335868429,8,100.0,96.875,789.0615499636624,1578.8971000583842,0.12673282585446619,300.0152999999999,113.47700000000009,75.0,84.375,1,0,7,6.666666666666667,80.0,614.4927541414896,,0.1451304711769131,13.076999999999998,18.279750000000035,5.73526038082129,5,1,7,4
4,23,5,3,12.5,Low,8,100.0,100.0,404.70643748994917,,0.2470926843175888,4,40.0,100.0,649.7102749708574,,0.06156590335868429,8,100.0,96.875,789.0615499636624,1578.8971000583842,0.12673282585446619,300.0152999999999,113.47700000000009,75.0,84.375,1,0,7,6.666666666666667,80.0,614.4927541414896,,0.1451304711769131,20.829999999999927,18.279750000000035,3.6005760921747605,5,1,7,4
4,24,5,3,12.5,Low,8,100.0,100.0,404.70643748994917,,0.2470926843175888,4,40.0,100.0,649.7102749708574,,0.06156590335868429,8,100.0,96.875,789.0615499636624,1578.8971000583842,0.12673282585446619,300.0152999999999,113.47700000000009,75.0,84.375,0,1,7,6.666666666666667,80.0,614.4927541414896,,0.1451304711769131,27.48700000000008,18.279750000000035,2.7285625932258806,5,1,7,4
4,25,6,3,12.5,Low,8,100.0,100.0,404.70643748994917,,0.2470926843175888,4,40.0,100.0,649.7102749708574,,0.06156590335868429,8,100.0,96.875,789.0615499636624,1578.8971000583842,0.12673282585446619,300.0152999999999,113.47700000000009,75.0,84.375,1,0,7,6.666666666666667,80.0,614.4927541414896,,0.1451304711769131,12.75,18.279750000000035,5.88235294117647,5,1,7,4
4,26,6,3,12.5,Low,8,100.0,100.0,404.70643748994917,,0.2470926843175888,4,40.0,100.0,649.7102749708574,,0.06156590335868429,8,100.0,96.875,789.0615499636624,1578.8971000583842,0.12673282585446619,300.0152999999999,113.47700000000009,75.0,84.375,1,0,7,6.666666666666667,80.0,614.4927541414896,,0.1451304711769131,32.61799999999994,18.279750000000035,2.2993439205346786,5,1,7,4
4,27,6,3,12.5,Low,8,100.0,100.0,404.70643748994917,,0.2470926843175888,4,40.0,100.0,649.7102749708574,,0.06156590335868429,8,100.0,96.875,789.0615499636624,1578.8971000583842,0.12673282585446619,300.0152999999999,113.47700000000009,75.0,84.375,0,1,7,6.666666666666667,80.0,614.4927541414896,,0.1451304711769131,33.35699999999997,18.279750000000035,2.2484036334202737,5,1,7,4
4,28,6,3,12.5,Low,8,100.0,100.0,404.70643748994917,,0.2470926843175888,4,40.0,100.0,649.7102749708574,,0.06156590335868429,8,100.0,96.875,789.0615499636624,1578.8971000583842,0.12673282585446619,300.0152999999999,113.47700000000009,75.0,84.375,1,0,7,6.666666666666667,80.0,614.4927541414896,,0.1451304711769131,22.700000000000045,18.279750000000035,3.3039647577092444,5,1,7,4
4,29,7,3,12.5,Low,8,100.0,100.0,404.70643748994917,,0.2470926843175888,4,40.0,100.0,649.7102749708574,,0.06156590335868429,8,100.0,96.875,789.0615499636624,1578.8971000583842,0.12673282585446619,300.0152999999999,113.47700000000009,100.0,84.375,1,0,8,6.666666666666667,80.0,614.4927541414896,,0.1451304711769131,30.037000000000035,18.279750000000035,3.329227286346835,5,1,7,4
4,30,7,3,12.5,Low,8,100.0,100.0,404.70643748994917,,0.2470926843175888,4,40.0,100.0,649.7102749708574,,0.06156590335868429,8,100.0,96.875,789.0615499636624,1578.8971000583842,0.12673282585446619,300.0152999999999,113.47700000000009,100.0,84.375,1,0,8,6.666666666666667,80.0,614.4927541414896,,0.1451304711769131,35.75,18.279750000000035,2.797202797202797,5,1,7,4
4,31,7,3,12.5,Low,8,100.0,100.0,404.70643748994917,,0.2470926843175888,4,40.0,100.0,649.7102749708574,,0.06156590335868429,8,100.0,96.875,789.0615499636624,1578.8971000583842,0.12673282585446619,300.0152999999999,113.47700000000009,100.0,84.375,1,0,8,6.666666666666667,80.0,614.4927541414896,,0.1451304711769131,34.9670000000001,18.279750000000035,2.8598392770326226,5,1,7,4
4,32,7,3,12.5,Low,8,100.0,100.0,404.70643748994917,,0.2470926843175888,4,40.0,100.0,649.7102749708574,,0.06156590335868429,8,100.0,96.875,789.0615499636624,1578.8971000583842,0.12673282585446619,300.0152999999999,113.47700000000009,100.0,84.375,1,0,8,6.666666666666667,80.0,614.4927541414896,,0.1451304711769131,12.722999999999956,18.279750000000035,7.859781498074381,5,1,7,4
10,1,0,0,0.0,Low,8,100.0,100.0,413.2961000141222,,0.24195727953054244,10,100.0,100.0,738.8993500149809,,0.1353364297829908,8,100.0,100.0,832.9409375146497,,0.1200565316172147,300.0045,138.31500000000005,75.0,68.75,1,0,3,8.666666666666666,100.0,661.7121291812509,,0.16578341364358265,42.87000000000012,18.279750000000035,1.7494751574527596,1,1,7,1
10,2,0,0,0.0,Low,8,100.0,100.0,413.2961000141222,,0.24195727953054244,10,100.0,100.0,738.8993500149809,,0.1353364297829908,8,100.0,100.0,832.9409375146497,,0.1200565316172147,300.0045,138.31500000000005,75.0,68.75,1,0,3,8.666666666666666,100.0,661.7121291812509,,0.16578341364358265,38.500999999999976,18.279750000000035,1.9480013506142708,1,1,7,1
10,3,0,0,0.0,Low,8,100.0,100.0,413.2961000141222,,0.24195727953054244,10,100.0,100.0,738.8993500149809,,0.1353364297829908,8,100.0,100.0,832.9409375146497,,0.1200565316172147,300.0045,138.31500000000005,75.0,68.75,0,1,3,8.666666666666666,100.0,661.7121291812509,,0.16578341364358265,15.807999999999993,18.279750000000035,4.744433198380569,1,1,7,1
10,4,0,0,0.0,Low,8,100.0,100.0,413.2961000141222,,0.24195727953054244,10,100.0,100.0,738.8993500149809,,0.1353364297829908,8,100.0,100.0,832.9409375146497,,0.1200565316172147,300.0045,138.31500000000005,75.0,68.75,1,0,3,8.666666666666666,100.0,661.7121291812509,,0.16578341364358265,23.40000000000009,18.279750000000035,3.2051282051281924,1,1,7,1
10,5,1,0,0.0,Low,8,100.0,100.0,413.2961000141222,,0.24195727953054244,10,100.0,100.0,738.8993500149809,,0.1353364297829908,8,100.0,100.0,832.9409375146497,,0.1200565316172147,300.0045,138.31500000000005,75.0,68.75,1,0,4,8.666666666666666,100.0,661.7121291812509,,0.16578341364358265,28.159999999999854,18.279750000000035,2.6633522727272863,1,1,7,1
10,6,1,0,0.0,Low,8,100.0,100.0,413.2961000141222,,0.24195727953054244,10,100.0,100.0,738.8993500149809,,0.1353364297829908,8,100.0,100.0,832.9409375146497,,0.1200565316172147,300.0045,138.31500000000005,75.0,68.75,1,0,4,8.666666666666666,100.0,661.7121291812509,,0.16578341364358265,27.248000000000047,18.279750000000035,2.7524955960070416,1,1,7,1
10,7,1,0,0.0,Low,8,100.0,100.0,413.2961000141222,,0.24195727953054244,10,100.0,100.0,738.8993500149809,,0.1353364297829908,8,100.0,100.0,832.9409375146497,,0.1200565316172147,300.0045,138.31500000000005,75.0,68.75,1,0,4,8.666666666666666,100.0,661.7121291812509,,0.16578341364358265,25.673000000000002,18.279750000000035,2.9213570677365324,1,1,7,1
10,8,1,0,0.0,Low,8,100.0,100.0,413.2961000141222,,0.24195727953054244,10,100.0,100.0,738.8993500149809,,0.1353364297829908,8,100.0,100.0,832.9409375146497,,0.1200565316172147,300.0045,138.31500000000005,75.0,68.75,0,1,4,8.666666666666666,100.0,661.7121291812509,,0.16578341364358265,31.45600000000013,18.279750000000035,2.3842828077314246,1,1,7,1
10,9,2,0,0.0,Low,8,100.0,100.0,413.2961000141222,,0.24195727953054244,10,100.0,100.0,738.8993500149809,,0.1353364297829908,8,100.0,100.0,832.9409375146497,,0.1200565316172147,300.0045,138.31500000000005,0.0,68.75,0,1,6,8.666666666666666,100.0,661.7121291812509,,0.16578341364358265,47.65599999999995,18.279750000000035,0.0,1,1,7,1
10,10,2,0,0.0,Low,8,100.0,100.0,413.2961000141222,,0.24195727953054244,10,100.0,100.0,738.8993500149809,,0.1353364297829908,8,100.0,100.0,832.9409375146497,,0.1200565316172147,300.0045,138.31500000000005,0.0,68.75,0,1,6,8.666666666666666,100.0,661.7121291812509,,0.16578341364358265,41.21499999999992,18.279750000000035,0.0,1,1,7,1
10,11,2,0,0.0,Low,8,100.0,100.0,413.2961000141222,,0.24195727953054244,10,100.0,100.0,738.8993500149809,,0.1353364297829908,8,100.0,100.0,832.9409375146497,,0.1200565316172147,300.0045,138.31500000000005,0.0,68.75,0,1,6,8.666666666666666,100.0,661.7121291812509,,0.16578341364358265,47.697000000000116,18.279750000000035,0.0,1,1,7,1
10,12,2,0,0.0,Low,8,100.0,100.0,413.2961000141222,,0.24195727953054244,10,100.0,100.0,738.8993500149809,,0.1353364297829908,8,100.0,100.0,832.9409375146497,,0.1200565316172147,300.0045,138.31500000000005,0.0,68.75,0,1,6,8.666666666666666,100.0,661.7121291812509,,0.16578341364358265,51.27999999999997,18.279750000000035,0.0,1,1,7,1
10,13,3,0,0.0,Low,8,100.0,100.0,413.2961000141222,,0.24195727953054244,10,100.0,100.0,738.8993500149809,,0.1353364297829908,8,100.0,100.0,832.9409375146497,,0.1200565316172147,300.0045,138.31500000000005,100.0,68.75,1,0,5,8.666666666666666,100.0,661.7121291812509,,0.16578341364358265,23.336000000000013,18.279750000000035,4.285224545766196,1,1,7,1
10,14,3,0,0.0,Low,8,100.0,100.0,413.2961000141222,,0.24195727953054244,10,100.0,100.0,738.8993500149809,,0.1353364297829908,8,100.0,100.0,832.9409375146497,,0.1200565316172147,300.0045,138.31500000000005,100.0,68.75,1,0,5,8.666666666666666,100.0,661.7121291812509,,0.16578341364358265,32.40499999999997,18.279750000000035,3.085943527233454,1,1,7,1
10,15,3,0,0.0,Low,8,100.0,100.0,413.2961000141222,,0.24195727953054244,10,100.0,100.0,738.8993500149809,,0.1353364297829908,8,100.0,100.0,832.9409375146497,,0.1200565316172147,300.0045,138.31500000000005,100.0,68.75,1,0,5,8.666666666666666,100.0,661.7121291812509,,0.16578341364358265,36.049999999999955,18.279750000000035,2.773925104022195,1,1,7,1
10,16,3,0,0.0,Low,8,100.0,100.0,413.2961000141222,,0.24195727953054244,10,100.0,100.0,738.8993500149809,,0.1353364297829908,8,100.0,100.0,832.9409375146497,,0.1200565316172147,300.0045,138.31500000000005,100.0,68.75,1,0,5,8.666666666666666,100.0,661.7121291812509,,0.16578341364358265,35.84999999999991,18.279750000000035,2.7894002789400347,1,1,7,1
10,17,4,0,0.0,Low,8,100.0,100.0,413.2961000141222,,0.24195727953054244,10,100.0,100.0,738.8993500149809,,0.1353364297829908,8,100.0,100.0,832.9409375146497,,0.1200565316172147,300.0045,138.31500000000005,100.0,68.75,1,0,4,8.666666666666666,100.0,661.7121291812509,,0.16578341364358265,44.011000000000195,18.279750000000035,2.272159232919033,1,1,7,1
10,18,4,0,0.0,Low,8,100.0,100.0,413.2961000141222,,0.24195727953054244,10,100.0,100.0,738.8993500149809,,0.1353364297829908,8,100.0,100.0,832.9409375146497,,0.1200565316172147,300.0045,138.31500000000005,100.0,68.75,1,0,4,8.666666666666666,100.0,661.7121291812509,,0.16578341364358265,37.562999999999874,18.279750000000035,2.6621941804435303,1,1,7,1
10,19,4,0,0.0,Low,8,100.0,100.0,413.2961000141222,,0.24195727953054244,10,100.0,100.0,738.8993500149809,,0.1353364297829908,8,100.0,100.0,832.9409375146497,,0.1200565316172147,300.0045,138.31500000000005,100.0,68.75,1,0,4,8.666666666666666,100.0,661.7121291812509,,0.16578341364358265,45.72900000000004,18.279750000000035,2.1867961249972643,1,1,7,1
10,20,4,0,0.0,Low,8,100.0,100.0,413.2961000141222,,0.24195727953054244,10,100.0,100.0,738.8993500149809,,0.1353364297829908,8,100.0,100.0,832.9409375146497,,0.1200565316172147,300.0045,138.31500000000005,100.0,68.75,1,0,4,8.666666666666666,100.0,661.7121291812509,,0.16578341364358265,33.78899999999999,18.279750000000035,2.9595430465536134,1,1,7,1
10,21,5,0,0.0,Low,8,100.0,100.0,413.2961000141222,,0.24195727953054244,10,100.0,100.0,738.8993500149809,,0.1353364297829908,8,100.0,100.0,832.9409375146497,,0.1200565316172147,300.0045,138.31500000000005,50.0,68.75,0,1,6,8.666666666666666,100.0,661.7121291812509,,0.16578341364358265,35.67399999999998,18.279750000000035,1.4015809833492188,1,1,7,1
10,22,5,0,0.0,Low,8,100.0,100.0,413.2961000141222,,0.24195727953054244,10,100.0,100.0,738.8993500149809,,0.1353364297829908,8,100.0,100.0,832.9409375146497,,0.1200565316172147,300.0045,138.31500000000005,50.0,68.75,1,0,6,8.666666666666666,100.0,661.7121291812509,,0.16578341364358265,26.462999999999965,18.279750000000035,1.889430525639575,1,1,7,1
10,23,5,0,0.0,Low,8,100.0,100.0,413.2961000141222,,0.24195727953054244,10,100.0,100.0,738.8993500149809,,0.1353364297829908,8,100.0,100.0,832.9409375146497,,0.1200565316172147,300.0045,138.31500000000005,50.0,68.75,1,0,6,8.666666666666666,100.0,661.7121291812509,,0.16578341364358265,26.263000000000147,18.279750000000035,1.9038190610364283,1,1,7,1
10,24,5,0,0.0,Low,8,100.0,100.0,413.2961000141222,,0.24195727953054244,10,100.0,100.0,738.8993500149809,,0.1353364297829908,8,100.0,100.0,832.9409375146497,,0.1200565316172147,300.0045,138.31500000000005,50.0,68.75,0,1,6,8.666666666666666,100.0,661.7121291812509,,0.16578341364358265,31.958999999999833,18.279750000000035,1.5645045214180748,1,1,7,1
10,25,6,0,0.0,Low,8,100.0,100.0,413.2961000141222,,0.24195727953054244,10,100.0,100.0,738.8993500149809,,0.1353364297829908,8,100.0,100.0,832.9409375146497,,0.1200565316172147,300.0045,138.31500000000005,75.0,68.75,1,0,3,8.666666666666666,100.0,661.7121291812509,,0.16578341364358265,23.70900000000006,18.279750000000035,3.1633556877135183,1,1,7,1
10,26,6,0,0.0,Low,8,100.0,100.0,413.2961000141222,,0.24195727953054244,10,100.0,100.0,738.8993500149809,,0.1353364297829908,8,100.0,100.0,832.9409375146497,,0.1200565316172147,300.0045,138.31500000000005,75.0,68.75,1,0,3,8.666666666666666,100.0,661.7121291812509,,0.16578341364358265,18.713999999999942,18.279750000000035,4.007694773966027,1,1,7,1
10,27,6,0,0.0,Low,8,100.0,100.0,413.2961000141222,,0.24195727953054244,10,100.0,100.0,738.8993500149809,,0.1353364297829908,8,100.0,100.0,832.9409375146497,,0.1200565316172147,300.0045,138.31500000000005,75.0,68.75,0,1,3,8.666666666666666,100.0,661.7121291812509,,0.16578341364358265,31.996000000000095,18.279750000000035,2.344043005375665,1,1,7,1
10,28,6,0,0.0,Low,8,100.0,100.0,413.2961000141222,,0.24195727953054244,10,100.0,100.0,738.8993500149809,,0.1353364297829908,8,100.0,100.0,832.9409375146497,,0.1200565316172147,300.0045,138.31500000000005,75.0,68.75,1,0,3,8.666666666666666,100.0,661.7121291812509,,0.16578341364358265,33.69399999999996,18.279750000000035,2.225915593280705,1,1,7,1
10,29,7,0,0.0,Low,8,100.0,100.0,413.2961000141222,,0.24195727953054244,10,100.0,100.0,738.8993500149809,,0.1353364297829908,8,100.0,100.0,832.9409375146497,,0.1200565316172147,300.0045,138.31500000000005,75.0,68.75,1,0,4,8.666666666666666,100.0,661.7121291812509,,0.16578341364358265,26.8449999999998,18.279750000000035,2.793816353138408,1,1,7,1
10,30,7,0,0.0,Low,8,100.0,100.0,413.2961000141222,,0.24195727953054244,10,100.0,100.0,738.8993500149809,,0.1353364297829908,8,100.0,100.0,832.9409375146497,,0.1200565316172147,300.0045,138.31500000000005,75.0,68.75,1,0,4,8.666666666666666,100.0,661.7121291812509,,0.16578341364358265,26.144000000000233,18.279750000000035,2.868727050183573,1,1,7,1
10,31,7,0,0.0,Low,8,100.0,100.0,413.2961000141222,,0.24195727953054244,10,100.0,100.0,738.8993500149809,,0.1353364297829908,8,100.0,100.0,832.9409375146497,,0.1200565316172147,300.0045,138.31500000000005,75.0,68.75,0,1,4,8.666666666666666,100.0,661.7121291812509,,0.16578341364358265,47.68899999999985,18.279750000000035,1.572689718803083,1,1,7,1
10,32,7,0,0.0,Low,8,100.0,100.0,413.2961000141222,,0.24195727953054244,10,100.0,100.0,738.8993500149809,,0.1353364297829908,8,100.0,100.0,832.9409375146497,,0.1200565316172147,300.0045,138.31500000000005,75.0,68.75,1,0,4,8.666666666666666,100.0,661.7121291812509,,0.16578341364358265,37.63700000000017,18.279750000000035,1.9927199298562495,1,1,7,1
15,1,0,0,0.0,Low,7,87.5,100.0,415.6692285822438,,0.21050391509239985,10,100.0,100.0,482.19574000686407,,0.2073846608403809,8,100.0,96.875,677.1924125059741,834.1540000401437,0.14766851806556208,300.00249999999994,126.25599999999986,75.0,62.5,1,0,7,8.333333333333334,95.83333333333333,525.019127031694,,0.18851903133278092,50.61900000000014,18.279750000000035,1.4816570852841777,2,1,6,3
15,2,0,0,0.0,Low,7,87.5,100.0,415.6692285822438,,0.21050391509239985,10,100.0,100.0,482.19574000686407,,0.2073846608403809,8,100.0,96.875,677.1924125059741,834.1540000401437,0.14766851806556208,300.00249999999994,126.25599999999986,75.0,62.5,1,0,7,8.333333333333334,95.83333333333333,525.019127031694,,0.18851903133278092,18.80099999999993,18.279750000000035,3.989149513323774,2,1,6,3
15,3,0,0,0.0,Low,7,87.5,100.0,415.6692285822438,,0.21050391509239985,10,100.0,100.0,482.19574000686407,,0.2073846608403809,8,100.0,96.875,677.1924125059741,834.1540000401437,0.14766851806556208,300.00249999999994,126.25599999999986,75.0,62.5,0,1,7,8.333333333333334,95.83333333333333,525.019127031694,,0.18851903133278092,39.91599999999994,18.279750000000035,1.8789457861509196,2,1,6,3
15,4,0,0,0.0,Low,7,87.5,100.0,415.6692285822438,,0.21050391509239985,10,100.0,100.0,482.19574000686407,,0.2073846608403809,8,100.0,96.875,677.1924125059741,834.1540000401437,0.14766851806556208,300.00249999999994,126.25599999999986,75.0,62.5,1,0,7,8.333333333333334,95.83333333333333,525.019127031694,,0.18851903133278092,37.218000000000075,18.279750000000035,2.015153957762369,2,1,6,3
15,5,1,0,0.0,Low,7,87.5,100.0,415.6692285822438,,0.21050391509239985,10,100.0,100.0,482.19574000686407,,0.2073846608403809,8,100.0,96.875,677.1924125059741,834.1540000401437,0.14766851806556208,300.00249999999994,126.25599999999986,50.0,62.5,0,1,8,8.333333333333334,95.83333333333333,525.019127031694,,0.18851903133278092,50.085000000000036,18.279750000000035,0.9983028850953372,2,1,6,3
15,6,1,0,0.0,Low,7,87.5,100.0,415.6692285822438,,0.21050391509239985,10,100.0,100.0,482.19574000686407,,0.2073846608403809,8,100.0,96.875,677.1924125059741,834.1540000401437,0.14766851806556208,300.00249999999994,126.25599999999986,50.0,62.5,0,1,8,8.333333333333334,95.83333333333333,525.019127031694,,0.18851903133278092,13.327999999999975,18.279750000000035,3.7515006002401035,2,1,6,3
15,7,1,0,0.0,Low,7,87.5,100.0,415.6692285822438,,0.21050391509239985,10,100.0,100.0,482.19574000686407,,0.2073846608403809,8,100.0,96.875,677.1924125059741,834.1540000401437,0.14766851806556208,300.00249999999994,126.25599999999986,50.0,62.5,1,0,8,8.333333333333334,95.83333333333333,525.019127031694,,0.18851903133278092,17.103000000000065,18.279750000000035,2.923463719815226,2,1,6,3
15,8,1,0,0.0,Low,7,87.5,100.0,415.6692285822438,,0.21050391509239985,10,100.0,100.0,482.19574000686407,,0.2073846608403809,8,100.0,96.875,677.1924125059741,834.1540000401437,0.14766851806556208,300.00249999999994,126.25599999999986,50.0,62.5,1,0,8,8.333333333333334,95.83333333333333,525.019127031694,,0.18851903133278092,32.16300000000001,18.279750000000035,1.5545813512421098,2,1,6,3
15,9,2,0,0.0,Low,7,87.5,100.0,415.6692285822438,,0.21050391509239985,10,100.0,100.0,482.19574000686407,,0.2073846608403809,8,100.0,96.875,677.1924125059741,834.1540000401437,0.14766851806556208,300.00249999999994,126.25599999999986,75.0,62.5,0,1,9,8.333333333333334,95.83333333333333,525.019127031694,,0.18851903133278092,47.266999999999825,18.279750000000035,1.5867307000655906,2,1,6,3
15,10,2,0,0.0,Low,7,87.5,100.0,415.6692285822438,,0.21050391509239985,10,100.0,100.0,482.19574000686407,,0.2073846608403809,8,100.0,96.875,677.1924125059741,834.1540000401437,0.14766851806556208,300.00249999999994,126.25599999999986,75.0,62.5,1,0,9,8.333333333333334,95.83333333333333,525.019127031694,,0.18851903133278092,31.153999999999996,18.279750000000035,2.4073955190344742,2,1,6,3
15,11,2,0,0.0,Low,7,87.5,100.0,415.6692285822438,,0.21050391509239985,10,100.0,100.0,482.19574000686407,,0.2073846608403809,8,100.0,96.875,677.1924125059741,834.1540000401437,0.14766851806556208,300.00249999999994,126.25599999999986,75.0,62.5,1,0,9,8.333333333333334,95.83333333333333,525.019127031694,,0.18851903133278092,43.05000000000018,18.279750000000035,1.7421602787456372,2,1,6,3
15,12,2,0,0.0,Low,7,87.5,100.0,415.6692285822438,,0.21050391509239985,10,100.0,100.0,482.19574000686407,,0.2073846608403809,8,100.0,96.875,677.1924125059741,834.1540000401437,0.14766851806556208,300.00249999999994,126.25599999999986,75.0,62.5,1,0,9,8.333333333333334,95.83333333333333,525.019127031694,,0.18851903133278092,50.22000000000003,18.279750000000035,1.4934289127837506,2,1,6,3
15,13,3,0,0.0,Low,7,87.5,100.0,415.6692285822438,,0.21050391509239985,10,100.0,100.0,482.19574000686407,,0.2073846608403809,8,100.0,96.875,677.1924125059741,834.1540000401437,0.14766851806556208,300.00249999999994,126.25599999999986,100.0,62.5,1,0,7,8.333333333333334,95.83333333333333,525.019127031694,,0.18851903133278092,39.221000000000004,18.279750000000035,2.549654521812294,2,1,6,3
15,14,3,0,0.0,Low,7,87.5,100.0,415.6692285822438,,0.21050391509239985,10,100.0,100.0,482.19574000686407,,0.2073846608403809,8,100.0,96.875,677.1924125059741,834.1540000401437,0.14766851806556208,300.00249999999994,126.25599999999986,100.0,62.5,1,0,7,8.333333333333334,95.83333333333333,525.019127031694,,0.18851903133278092,42.19899999999984,18.279750000000035,2.3697244010521668,2,1,6,3
15,15,3,0,0.0,Low,7,87.5,100.0,415.6692285822438,,0.21050391509239985,10,100.0,100.0,482.19574000686407,,0.2073846608403809,8,100.0,96.875,677.1924125059741,834.1540000401437,0.14766851806556208,300.00249999999994,126.25599999999986,100.0,62.5,1,0,7,8.333333333333334,95.83333333333333,525.019127031694,,0.18851903133278092,31.202999999999975,18.279750000000035,3.2048200493542316,2,1,6,3
15,16,3,0,0.0,Low,7,87.5,100.0,415.6692285822438,,0.21050391509239985,10,100.0,100.0,482.19574000686407,,0.2073846608403809,8,100.0,96.875,677.1924125059741,834.1540000401437,0.14766851806556208,300.00249999999994,126.25599999999986,100.0,62.5,1,0,7,8.333333333333334,95.83333333333333,525.019127031694,,0.18851903133278092,19.10900000000015,18.279750000000035,5.233136218535727,2,1,6,3
15,17,4,0,0.0,Low,7,87.5,100.0,415.6692285822438,,0.21050391509239985,10,100.0,100.0,482.19574000686407,,0.2073846608403809,8,100.0,96.875,677.1924125059741,834.1540000401437,0.14766851806556208,300.00249999999994,126.25599999999986,75.0,62.5,0,1,9,8.333333333333334,95.83333333333333,525.019127031694,,0.18851903133278092,50.23699999999985,18.279750000000035,1.4929235424089857,2,1,6,3
15,18,4,0,0.0,Low,7,87.5,100.0,415.6692285822438,,0.21050391509239985,10,100.0,100.0,482.19574000686407,,0.2073846608403809,8,100.0,96.875,677.1924125059741,834.1540000401437,0.14766851806556208,300.00249999999994,126.25599999999986,75.0,62.5,1,0,9,8.333333333333334,95.83333333333333,525.019127031694,,0.18851903133278092,32.53300000000013,18.279750000000035,2.305351489257053,2,1,6,3
15,19,4,0,0.0,Low,7,87.5,100.0,415.6692285822438,,0.21050391509239985,10,100.0,100.0,482.19574000686407,,0.2073846608403809,8,100.0,96.875,677.1924125059741,834.1540000401437,0.14766851806556208,300.00249999999994,126.25599999999986,75.0,62.5,1,0,9,8.333333333333334,95.83333333333333,525.019127031694,,0.18851903133278092,31.15300000000002,18.279750000000035,2.4074727955574087,2,1,6,3
15,20,4,0,0.0,Low,7,87.5,100.0,415.6692285822438,,0.21050391509239985,10,100.0,100.0,482.19574000686407,,0.2073846608403809,8,100.0,96.875,677.1924125059741,834.1540000401437,0.14766851806556208,300.00249999999994,126.25599999999986,75.0,62.5,1,0,9,8.333333333333334,95.83333333333333,525.019127031694,,0.18851903133278092,40.89300000000003,18.279750000000035,1.8340547281930881,2,1,6,3
15,21,5,0,0.0,Low,7,87.5,100.0,415.6692285822438,,0.21050391509239985,10,100.0,100.0,482.19574000686407,,0.2073846608403809,8,100.0,96.875,677.1924125059741,834.1540000401437,0.14766851806556208,300.00249999999994,126.25599999999986,50.0,62.5,0,1,9,8.333333333333334,95.83333333333333,525.019127031694,,0.18851903133278092,11.322999999999865,18.279750000000035,4.415790868144538,2,1,6,3
15,22,5,0,0.0,Low,7,87.5,100.0,415.6692285822438,,0.21050391509239985,10,100.0,100.0,482.19574000686407,,0.2073846608403809,8,100.0,96.875,677.1924125059741,834.1540000401437,0.14766851806556208,300.00249999999994,126.25599999999986,50.0,62.5,1,0,9,8.333333333333334,95.83333333333333,525.019127031694,,0.18851903133278092,36.59899999999993,18.279750000000035,1.3661575452881252,2,1,6,3
15,23,5,0,0.0,Low,7,87.5,100.0,415.6692285822438,,0.21050391509239985,10,100.0,100.0,482.19574000686407,,0.2073846608403809,8,100.0,96.875,677.1924125059741,834.1540000401437,0.14766851806556208,300.00249999999994,126.25599999999986,50.0,62.5,1,0,9,8.333333333333334,95.83333333333333,525.019127031694,,0.18851903133278092,25.605999999999995,18.279750000000035,1.9526673435913462,2,1,6,3
15,24,5,0,0.0,Low,7,87.5,100.0,415.6692285822438,,0.21050391509239985,10,100.0,100.0,482.19574000686407,,0.2073846608403809,8,100.0,96.875,677.1924125059741,834.1540000401437,0.14766851806556208,300.00249999999994,126.25599999999986,50.0,62.5,0,1,9,8.333333333333334,95.83333333333333,525.019127031694,,0.18851903133278092,51.003000000000156,18.279750000000035,0.9803344901280286,2,1,6,3
15,25,6,0,0.0,Low,7,87.5,100.0,415.6692285822438,,0.21050391509239985,10,100.0,100.0,482.19574000686407,,0.2073846608403809,8,100.0,96.875,677.1924125059741,834.1540000401437,0.14766851806556208,300.00249999999994,126.25599999999986,25.0,62.5,1,0,9,8.333333333333334,95.83333333333333,525.019127031694,,0.18851903133278092,21.057999999999993,18.279750000000035,1.1871972646975026,2,1,6,3
15,26,6,0,0.0,Low,7,87.5,100.0,415.6692285822438,,0.21050391509239985,10,100.0,100.0,482.19574000686407,,0.2073846608403809,8,100.0,96.875,677.1924125059741,834.1540000401437,0.14766851806556208,300.00249999999994,126.25599999999986,25.0,62.5,0,1,9,8.333333333333334,95.83333333333333,525.019127031694,,0.18851903133278092,43.12699999999995,18.279750000000035,0.5796832610661541,2,1,6,3
15,27,6,0,0.0,Low,7,87.5,100.0,415.6692285822438,,0.21050391509239985,10,100.0,100.0,482.19574000686407,,0.2073846608403809,8,100.0,96.875,677.1924125059741,834.1540000401437,0.14766851806556208,300.00249999999994,126.25599999999986,25.0,62.5,0,1,9,8.333333333333334,95.83333333333333,525.019127031694,,0.18851903133278092,31.53800000000001,18.279750000000035,0.7926945272369836,2,1,6,3
15,28,6,0,0.0,Low,7,87.5,100.0,415.6692285822438,,0.21050391509239985,10,100.0,100.0,482.19574000686407,,0.2073846608403809,8,100.0,96.875,677.1924125059741,834.1540000401437,0.14766851806556208,300.00249999999994,126.25599999999986,25.0,62.5,0,1,9,8.333333333333334,95.83333333333333,525.019127031694,,0.18851903133278092,35.58100000000013,18.279750000000035,0.7026221859981424,2,1,6,3
15,29,7,0,0.0,Low,7,87.5,100.0,415.6692285822438,,0.21050391509239985,10,100.0,100.0,482.19574000686407,,0.2073846608403809,8,100.0,96.875,677.1924125059741,834.1540000401437,0.14766851806556208,300.00249999999994,126.25599999999986,50.0,62.5,1,0,9,8.333333333333334,95.83333333333333,525.019127031694,,0.18851903133278092,17.460999999999785,18.279750000000035,2.863524425863388,2,1,6,3
15,30,7,0,0.0,Low,7,87.5,100.0,415.6692285822438,,0.21050391509239985,10,100.0,100.0,482.19574000686407,,0.2073846608403809,8,100.0,96.875,677.1924125059741,834.1540000401437,0.14766851806556208,300.00249999999994,126.25599999999986,50.0,62.5,0,1,9,8.333333333333334,95.83333333333333,525.019127031694,,0.18851903133278092,33.152000000000044,18.279750000000035,1.5082046332046313,2,1,6,3
15,31,7,0,0.0,Low,7,87.5,100.0,415.6692285822438,,0.21050391509239985,10,100.0,100.0,482.19574000686407,,0.2073846608403809,8,100.0,96.875,677.1924125059741,834.1540000401437,0.14766851806556208,300.00249999999994,126.25599999999986,50.0,62.5,1,0,9,8.333333333333334,95.83333333333333,525.019127031694,,0.18851903133278092,37.11299999999983,18.279750000000035,1.3472368172877491,2,1,6,3
15,32,7,0,0.0,Low,7,87.5,100.0,415.6692285822438,,0.21050391509239985,10,100.0,100.0,482.19574000686407,,0.2073846608403809,8,100.0,96.875,677.1924125059741,834.1540000401437,0.14766851806556208,300.00249999999994,126.25599999999986,50.0,62.5,0,1,9,8.333333333333334,95.83333333333333,525.019127031694,,0.18851903133278092,38.5300000000002,18.279750000000035,1.2976901116013428,2,1,6,3
16,1,0,9,37.5,Low,8,100.0,100.0,493.8367499999572,,0.20249606777950138,9,90.0,100.0,545.0597000000622,,0.16511952727378254,8,100.0,100.0,511.57862500002693,,0.19547337420517666,300.0060000000001,61.825000000000045,75.0,68.75,1,0,3,8.333333333333334,96.66666666666667,516.8250250000154,,0.1876963230861535,22.014000000000124,18.279750000000035,3.406922867266266,1,1,5,2
16,2,0,9,37.5,Low,8,100.0,100.0,493.8367499999572,,0.20249606777950138,9,90.0,100.0,545.0597000000622,,0.16511952727378254,8,100.0,100.0,511.57862500002693,,0.19547337420517666,300.0060000000001,61.825000000000045,75.0,68.75,1,0,3,8.333333333333334,96.66666666666667,516.8250250000154,,0.1876963230861535,17.745999999999867,18.279750000000035,4.226304519328331,1,1,5,2
16,3,0,9,37.5,Low,8,100.0,100.0,493.8367499999572,,0.20249606777950138,9,90.0,100.0,545.0597000000622,,0.16511952727378254,8,100.0,100.0,511.57862500002693,,0.19547337420517666,300.0060000000001,61.825000000000045,75.0,68.75,0,1,3,8.333333333333334,96.66666666666667,516.8250250000154,,0.1876963230861535,39.093000000000075,18.279750000000035,1.918502033612152,1,1,5,2
16,4,0,9,37.5,Low,8,100.0,100.0,493.8367499999572,,0.20249606777950138,9,90.0,100.0,545.0597000000622,,0.16511952727378254,8,100.0,100.0,511.57862500002693,,0.19547337420517666,300.0060000000001,61.825000000000045,75.0,68.75,1,0,3,8.333333333333334,96.66666666666667,516.8250250000154,,0.1876963230861535,19.003999999999905,18.279750000000035,3.9465375710376964,1,1,5,2
16,5,1,9,37.5,Low,8,100.0,100.0,493.8367499999572,,0.20249606777950138,9,90.0,100.0,545.0597000000622,,0.16511952727378254,8,100.0,100.0,511.57862500002693,,0.19547337420517666,300.0060000000001,61.825000000000045,100.0,68.75,1,0,2,8.333333333333334,96.66666666666667,516.8250250000154,,0.1876963230861535,20.013000000000147,18.279750000000035,4.99675211112773,1,1,5,2
16,6,1,9,37.5,Low,8,100.0,100.0,493.8367499999572,,0.20249606777950138,9,90.0,100.0,545.0597000000622,,0.16511952727378254,8,100.0,100.0,511.57862500002693,,0.19547337420517666,300.0060000000001,61.825000000000045,100.0,68.75,1,0,2,8.333333333333334,96.66666666666667,516.8250250000154,,0.1876963230861535,9.212999999999965,18.279750000000035,10.854227721697642,1,1,5,2
16,7,1,9,37.5,Low,8,100.0,100.0,493.8367499999572,,0.20249606777950138,9,90.0,100.0,545.0597000000622,,0.16511952727378254,8,100.0,100.0,511.57862500002693,,0.19547337420517666,300.0060000000001,61.825000000000045,100.0,68.75,1,0,2,8.333333333333334,96.66666666666667,516.8250250000154,,0.1876963230861535,12.410000000000082,18.279750000000035,8.058017727638948,1,1,5,2
16,8,1,9,37.5,Low,8,100.0,100.0,493.8367499999572,,0.20249606777950138,9,90.0,100.0,545.0597000000622,,0.16511952727378254,8,100.0,100.0,511.57862500002693,,0.19547337420517666,300.0060000000001,61.825000000000045,100.0,68.75,1,0,2,8.333333333333334,96.66666666666667,516.8250250000154,,0.1876963230861535,17.60199999999986,18.279750000000035,5.681172594023451,1,1,5,2
16,9,2,9,37.5,Low,8,100.0,100.0,493.8367499999572,,0.20249606777950138,9,90.0,100.0,545.0597000000622,,0.16511952727378254,8,100.0,100.0,511.57862500002693,,0.19547337420517666,300.0060000000001,61.825000000000045,75.0,68.75,1,0,3,8.333333333333334,96.66666666666667,516.8250250000154,,0.1876963230861535,11.91800000000012,18.279750000000035,6.293002181574026,1,1,5,2
16,10,2,9,37.5,Low,8,100.0,100.0,493.8367499999572,,0.20249606777950138,9,90.0,100.0,545.0597000000622,,0.16511952727378254,8,100.0,100.0,511.57862500002693,,0.19547337420517666,300.0060000000001,61.825000000000045,75.0,68.75,0,1,3,8.333333333333334,96.66666666666667,516.8250250000154,,0.1876963230861535,23.139999999999873,18.279750000000035,3.2411408815903373,1,1,5,2
16,11,2,9,37.5,Low,8,100.0,100.0,493.8367499999572,,0.20249606777950138,9,90.0,100.0,545.0597000000622,,0.16511952727378254,8,100.0,100.0,511.57862500002693,,0.19547337420517666,300.0060000000001,61.825000000000045,75.0,68.75,1,0,3,8.333333333333334,96.66666666666667,516.8250250000154,,0.1876963230861535,26.42100000000005,18.279750000000035,2.8386510730101002,1,1,5,2
16,12,2,9,37.5,Low,8,100.0,100.0,493.8367499999572,,0.20249606777950138,9,90.0,100.0,545.0597000000622,,0.16511952727378254,8,100.0,100.0,511.57862500002693,,0.19547337420517666,300.0060000000001,61.825000000000045,75.0,68.75,1,0,3,8.333333333333334,96.66666666666667,516.8250250000154,,0.1876963230861535,13.89799999999991,18.279750000000035,5.396459922291012,1,1,5,2
16,13,3,9,37.5,Low,8,100.0,100.0,493.8367499999572,,0.20249606777950138,9,90.0,100.0,545.0597000000622,,0.16511952727378254,8,100.0,100.0,511.57862500002693,,0.19547337420517666,300.0060000000001,61.825000000000045,75.0,68.75,1,0,4,8.333333333333334,96.66666666666667,516.8250250000154,,0.1876963230861535,19.75500000000011,18.279750000000035,3.7965072133636846,1,1,5,2
16,14,3,9,37.5,Low,8,100.0,100.0,493.8367499999572,,0.20249606777950138,9,90.0,100.0,545.0597000000622,,0.16511952727378254,8,100.0,100.0,511.57862500002693,,0.19547337420517666,300.0060000000001,61.825000000000045,75.0,68.75,1,0,4,8.333333333333334,96.66666666666667,516.8250250000154,,0.1876963230861535,21.177999999999884,18.279750000000035,3.541410898101823,1,1,5,2
16,15,3,9,37.5,Low,8,100.0,100.0,493.8367499999572,,0.20249606777950138,9,90.0,100.0,545.0597000000622,,0.16511952727378254,8,100.0,100.0,511.57862500002693,,0.19547337420517666,300.0060000000001,61.825000000000045,75.0,68.75,0,1,4,8.333333333333334,96.66666666666667,516.8250250000154,,0.1876963230861535,26.937000000000126,18.279750000000035,2.7842744180866337,1,1,5,2
16,16,3,9,37.5,Low,8,100.0,100.0,493.8367499999572,,0.20249606777950138,9,90.0,100.0,545.0597000000622,,0.16511952727378254,8,100.0,100.0,511.57862500002693,,0.19547337420517666,300.0060000000001,61.825000000000045,75.0,68.75,1,0,4,8.333333333333334,96.66666666666667,516.8250250000154,,0.1876963230861535,13.16599999999994,18.279750000000035,5.6964909615677,1,1,5,2
16,17,4,9,37.5,Low,8,100.0,100.0,493.8367499999572,,0.20249606777950138,9,90.0,100.0,545.0597000000622,,0.16511952727378254,8,100.0,100.0,511.57862500002693,,0.19547337420517666,300.0060000000001,61.825000000000045,75.0,68.75,1,0,5,8.333333333333334,96.66666666666667,516.8250250000154,,0.1876963230861535,24.391000000000076,18.279750000000035,3.074904677954974,1,1,5,2
16,18,4,9,37.5,Low,8,100.0,100.0,493.8367499999572,,0.20249606777950138,9,90.0,100.0,545.0597000000622,,0.16511952727378254,8,100.0,100.0,511.57862500002693,,0.19547337420517666,300.0060000000001,61.825000000000045,75.0,68.75,0,1,5,8.333333333333334,96.66666666666667,516.8250250000154,,0.1876963230861535,27.452999999999975,18.279750000000035,2.7319418642771307,1,1,5,2
16,19,4,9,37.5,Low,8,100.0,100.0,493.8367499999572,,0.20249606777950138,9,90.0,100.0,545.0597000000622,,0.16511952727378254,8,100.0,100.0,511.57862500002693,,0.19547337420517666,300.0060000000001,61.825000000000045,75.0,68.75,1,0,5,8.333333333333334,96.66666666666667,516.8250250000154,,0.1876963230861535,16.791999999999916,18.279750000000035,4.46641257741784,1,1,5,2
16,20,4,9,37.5,Low,8,100.0,100.0,493.8367499999572,,0.20249606777950138,9,90.0,100.0,545.0597000000622,,0.16511952727378254,8,100.0,100.0,511.57862500002693,,0.19547337420517666,300.0060000000001,61.825000000000045,75.0,68.75,1,0,5,8.333333333333334,96.66666666666667,516.8250250000154,,0.1876963230861535,15.947000000000116,18.279750000000035,4.70307894901859,1,1,5,2
16,21,5,9,37.5,Low,8,100.0,100.0,493.8367499999572,,0.20249606777950138,9,90.0,100.0,545.0597000000622,,0.16511952727378254,8,100.0,100.0,511.57862500002693,,0.19547337420517666,300.0060000000001,61.825000000000045,75.0,68.75,1,0,6,8.333333333333334,96.66666666666667,516.8250250000154,,0.1876963230861535,13.787000000000035,18.279750000000035,5.439907158917808,1,1,5,2
16,22,5,9,37.5,Low,8,100.0,100.0,493.8367499999572,,0.20249606777950138,9,90.0,100.0,545.0597000000622,,0.16511952727378254,8,100.0,100.0,511.57862500002693,,0.19547337420517666,300.0060000000001,61.825000000000045,75.0,68.75,1,0,6,8.333333333333334,96.66666666666667,516.8250250000154,,0.1876963230861535,18.876999999999953,18.279750000000035,3.973088944217841,1,1,5,2
16,23,5,9,37.5,Low,8,100.0,100.0,493.8367499999572,,0.20249606777950138,9,90.0,100.0,545.0597000000622,,0.16511952727378254,8,100.0,100.0,511.57862500002693,,0.19547337420517666,300.0060000000001,61.825000000000045,75.0,68.75,1,0,6,8.333333333333334,96.66666666666667,516.8250250000154,,0.1876963230861535,15.130999999999858,18.279750000000035,4.9567113872183395,1,1,5,2
16,24,5,9,37.5,Low,8,100.0,100.0,493.8367499999572,,0.20249606777950138,9,90.0,100.0,545.0597000000622,,0.16511952727378254,8,100.0,100.0,511.57862500002693,,0.19547337420517666,300.0060000000001,61.825000000000045,75.0,68.75,0,1,6,8.333333333333334,96.66666666666667,516.8250250000154,,0.1876963230861535,17.17600000000016,18.279750000000035,4.366557987890039,1,1,5,2
16,25,6,9,37.5,Low,8,100.0,100.0,493.8367499999572,,0.20249606777950138,9,90.0,100.0,545.0597000000622,,0.16511952727378254,8,100.0,100.0,511.57862500002693,,0.19547337420517666,300.0060000000001,61.825000000000045,75.0,68.75,1,0,6,8.333333333333334,96.66666666666667,516.8250250000154,,0.1876963230861535,9.22199999999998,18.279750000000035,8.132726089785313,1,1,5,2
16,26,6,9,37.5,Low,8,100.0,100.0,493.8367499999572,,0.20249606777950138,9,90.0,100.0,545.0597000000622,,0.16511952727378254,8,100.0,100.0,511.57862500002693,,0.19547337420517666,300.0060000000001,61.825000000000045,75.0,68.75,1,0,6,8.333333333333334,96.66666666666667,516.8250250000154,,0.1876963230861535,11.628999999999905,18.279750000000035,6.449393756986896,1,1,5,2
16,27,6,9,37.5,Low,8,100.0,100.0,493.8367499999572,,0.20249606777950138,9,90.0,100.0,545.0597000000622,,0.16511952727378254,8,100.0,100.0,511.57862500002693,,0.19547337420517666,300.0060000000001,61.825000000000045,75.0,68.75,1,0,6,8.333333333333334,96.66666666666667,516.8250250000154,,0.1876963230861535,25.055000000000064,18.279750000000035,2.993414488126115,1,1,5,2
16,28,6,9,37.5,Low,8,100.0,100.0,493.8367499999572,,0.20249606777950138,9,90.0,100.0,545.0597000000622,,0.16511952727378254,8,100.0,100.0,511.57862500002693,,0.19547337420517666,300.0060000000001,61.825000000000045,75.0,68.75,0,1,6,8.333333333333334,96.66666666666667,516.8250250000154,,0.1876963230861535,15.523999999999887,18.279750000000035,4.831229064674089,1,1,5,2
16,29,7,9,37.5,Low,8,100.0,100.0,493.8367499999572,,0.20249606777950138,9,90.0,100.0,545.0597000000622,,0.16511952727378254,8,100.0,100.0,511.57862500002693,,0.19547337420517666,300.0060000000001,61.825000000000045,0.0,68.75,0,1,7,8.333333333333334,96.66666666666667,516.8250250000154,,0.1876963230861535,23.922000000000025,18.279750000000035,0.0,1,1,5,2
16,30,7,9,37.5,Low,8,100.0,100.0,493.8367499999572,,0.20249606777950138,9,90.0,100.0,545.0597000000622,,0.16511952727378254,8,100.0,100.0,511.57862500002693,,0.19547337420517666,300.0060000000001,61.825000000000045,0.0,68.75,0,1,7,8.333333333333334,96.66666666666667,516.8250250000154,,0.1876963230861535,4.207000000000107,18.279750000000035,0.0,1,1,5,2
16,31,7,9,37.5,Low,8,100.0,100.0,493.8367499999572,,0.20249606777950138,9,90.0,100.0,545.0597000000622,,0.16511952727378254,8,100.0,100.0,511.57862500002693,,0.19547337420517666,300.0060000000001,61.825000000000045,0.0,68.75,0,1,7,8.333333333333334,96.66666666666667,516.8250250000154,,0.1876963230861535,9.218000000000075,18.279750000000035,0.0,1,1,5,2
16,32,7,9,37.5,Low,8,100.0,100.0,493.8367499999572,,0.20249606777950138,9,90.0,100.0,545.0597000000622,,0.16511952727378254,8,100.0,100.0,511.57862500002693,,0.19547337420517666,300.0060000000001,61.825000000000045,0.0,68.75,0,1,7,8.333333333333334,96.66666666666667,516.8250250000154,,0.1876963230861535,24.477999999999838,18.279750000000035,0.0,1,1,5,2
20,1,0,11,45.83,High,8,100.0,71.875,552.7621249998447,378.0111777776053,0.18090964535608894,9,90.0,100.0,470.9427555559766,,0.19110602921102274,4,50.0,96.875,882.4512749988571,1376.9506999997247,0.05666035215379428,300.00699999999995,131.64000000000033,75.0,75.0,1,0,4,7.0,80.0,635.3853851848928,,0.14289200890696865,24.554999999999836,18.279750000000035,3.0543677458766236,3,2,8,1
20,2,0,11,45.83,High,8,100.0,71.875,552.7621249998447,378.0111777776053,0.18090964535608894,9,90.0,100.0,470.9427555559766,,0.19110602921102274,4,50.0,96.875,882.4512749988571,1376.9506999997247,0.05666035215379428,300.00699999999995,131.64000000000033,75.0,75.0,0,1,4,7.0,80.0,635.3853851848928,,0.14289200890696865,35.677000000000135,18.279750000000035,2.102194691257665,3,2,8,1
20,3,0,11,45.83,High,8,100.0,71.875,552.7621249998447,378.0111777776053,0.18090964535608894,9,90.0,100.0,470.9427555559766,,0.19110602921102274,4,50.0,96.875,882.4512749988571,1376.9506999997247,0.05666035215379428,300.00699999999995,131.64000000000033,75.0,75.0,1,0,4,7.0,80.0,635.3853851848928,,0.14289200890696865,46.909999999999854,18.279750000000035,1.5988062246855732,3,2,8,1
20,4,0,11,45.83,High,8,100.0,71.875,552.7621249998447,378.0111777776053,0.18090964535608894,9,90.0,100.0,470.9427555559766,,0.19110602921102274,4,50.0,96.875,882.4512749988571,1376.9506999997247,0.05666035215379428,300.00699999999995,131.64000000000033,75.0,75.0,1,0,4,7.0,80.0,635.3853851848928,,0.14289200890696865,28.27300000000014,18.279750000000035,2.6527075301524294,3,2,8,1
20,5,1,11,45.83,High,8,100.0,71.875,552.7621249998447,378.0111777776053,0.18090964535608894,9,90.0,100.0,470.9427555559766,,0.19110602921102274,4,50.0,96.875,882.4512749988571,1376.9506999997247,0.05666035215379428,300.00699999999995,131.64000000000033,100.0,75.0,1,0,4,7.0,80.0,635.3853851848928,,0.14289200890696865,29.365999999999985,18.279750000000035,3.405298644691141,3,2,8,1
20,6,1,11,45.83,High,8,100.0,71.875,552.7621249998447,378.0111777776053,0.18090964535608894,9,90.0,100.0,470.9427555559766,,0.19110602921102274,4,50.0,96.875,882.4512749988571,1376.9506999997247,0.05666035215379428,300.00699999999995,131.64000000000033,100.0,75.0,1,0,4,7.0,80.0,635.3853851848928,,0.14289200890696865,30.412000000000035,18.279750000000035,3.288175720110479,3,2,8,1
20,7,1,11,45.83,High,8,100.0,71.875,552.7621249998447,378.0111777776053,0.18090964535608894,9,90.0,100.0,470.9427555559766,,0.19110602921102274,4,50.0,96.875,882.4512749988571,1376.9506999997247,0.05666035215379428,300.00699999999995,131.64000000000033,100.0,75.0,1,0,4,7.0,80.0,635.3853851848928,,0.14289200890696865,22.423000000000002,18.279750000000035,4.459706551308924,3,2,8,1
20,8,1,11,45.83,High,8,100.0,71.875,552.7621249998447,378.0111777776053,0.18090964535608894,9,90.0,100.0,470.9427555559766,,0.19110602921102274,4,50.0,96.875,882.4512749988571,1376.9506999997247,0.05666035215379428,300.00699999999995,131.64000000000033,100.0,75.0,1,0,4,7.0,80.0,635.3853851848928,,0.14289200890696865,44.83399999999983,18.279750000000035,2.230450104831163,3,2,8,1
20,9,2,11,45.83,High,8,100.0,71.875,552.7621249998447,378.0111777776053,0.18090964535608894,9,90.0,100.0,470.9427555559766,,0.19110602921102274,4,50.0,96.875,882.4512749988571,1376.9506999997247,0.05666035215379428,300.00699999999995,131.64000000000033,75.0,75.0,1,0,4,7.0,80.0,635.3853851848928,,0.14289200890696865,31.187000000000126,18.279750000000035,2.40484817391861,3,2,8,1
20,10,2,11,45.83,High,8,100.0,71.875,552.7621249998447,378.0111777776053,0.18090964535608894,9,90.0,100.0,470.9427555559766,,0.19110602921102274,4,50.0,96.875,882.4512749988571,1376.9506999997247,0.05666035215379428,300.00699999999995,131.64000000000033,75.0,75.0,1,0,4,7.0,80.0,635.3853851848928,,0.14289200890696865,30.44100000000003,18.279750000000035,2.463782398738541,3,2,8,1
20,11,2,11,45.83,High,8,100.0,71.875,552.7621249998447,378.0111777776053,0.18090964535608894,9,90.0,100.0,470.9427555559766,,0.19110602921102274,4,50.0,96.875,882.4512749988571,1376.9506999997247,0.05666035215379428,300.00699999999995,131.64000000000033,75.0,75.0,1,0,4,7.0,80.0,635.3853851848928,,0.14289200890696865,30.208999999999833,18.279750000000035,2.4827038299844553,3,2,8,1
20,12,2,11,45.83,High,8,100.0,71.875,552.7621249998447,378.0111777776053,0.18090964535608894,9,90.0,100.0,470.9427555559766,,0.19110602921102274,4,50.0,96.875,882.4512749988571,1376.9506999997247,0.05666035215379428,300.00699999999995,131.64000000000033,75.0,75.0,0,1,4,7.0,80.0,635.3853851848928,,0.14289200890696865,33.39499999999998,18.279750000000035,2.245845186405152,3,2,8,1
20,13,3,11,45.83,High,8,100.0,71.875,552.7621249998447,378.0111777776053,0.18090964535608894,9,90.0,100.0,470.9427555559766,,0.19110602921102274,4,50.0,96.875,882.4512749988571,1376.9506999997247,0.05666035215379428,300.00699999999995,131.64000000000033,75.0,75.0,0,1,4,7.0,80.0,635.3853851848928,,0.14289200890696865,43.7030000000002,18.279750000000035,1.7161293275061127,3,2,8,1
20,14,3,11,45.83,High,8,100.0,71.875,552.7621249998447,378.0111777776053,0.18090964535608894,9,90.0,100.0,470.9427555559766,,0.19110602921102274,4,50.0,96.875,882.4512749988571,1376.9506999997247,0.05666035215379428,300.00699999999995,131.64000000000033,75.0,75.0,1,0,4,7.0,80.0,635.3853851848928,,0.14289200890696865,20.478999999999814,18.279750000000035,3.6622881976659345,3,2,8,1
20,15,3,11,45.83,High,8,100.0,71.875,552.7621249998447,378.0111777776053,0.18090964535608894,9,90.0,100.0,470.9427555559766,,0.19110602921102274,4,50.0,96.875,882.4512749988571,1376.9506999997247,0.05666035215379428,300.00699999999995,131.64000000000033,75.0,75.0,1,0,4,7.0,80.0,635.3853851848928,,0.14289200890696865,31.25200000000018,18.279750000000035,2.3998464098297574,3,2,8,1
20,16,3,11,45.83,High,8,100.0,71.875,552.7621249998447,378.0111777776053,0.18090964535608894,9,90.0,100.0,470.9427555559766,,0.19110602921102274,4,50.0,96.875,882.4512749988571,1376.9506999997247,0.05666035215379428,300.00699999999995,131.64000000000033,75.0,75.0,1,0,4,7.0,80.0,635.3853851848928,,0.14289200890696865,16.144000000000005,18.279750000000035,4.645688800792862,3,2,8,1
20,17,4,11,45.83,High,8,100.0,71.875,552.7621249998447,378.0111777776053,0.18090964535608894,9,90.0,100.0,470.9427555559766,,0.19110602921102274,4,50.0,96.875,882.4512749988571,1376.9506999997247,0.05666035215379428,300.00699999999995,131.64000000000033,50.0,75.0,0,1,5,7.0,80.0,635.3853851848928,,0.14289200890696865,35.299999999999955,18.279750000000035,1.4164305949008515,3,2,8,1
20,18,4,11,45.83,High,8,100.0,71.875,552.7621249998447,378.0111777776053,0.18090964535608894,9,90.0,100.0,470.9427555559766,,0.19110602921102274,4,50.0,96.875,882.4512749988571,1376.9506999997247,0.05666035215379428,300.00699999999995,131.64000000000033,50.0,75.0,1,0,5,7.0,80.0,635.3853851848928,,0.14289200890696865,21.322999999999865,18.279750000000035,2.344885804061357,3,2,8,1
20,19,4,11,45.83,High,8,100.0,71.875,552.7621249998447,378.0111777776053,0.18090964535608894,9,90.0,100.0,470.9427555559766,,0.19110602921102274,4,50.0,96.875,882.4512749988571,1376.9506999997247,0.05666035215379428,300.00699999999995,131.64000000000033,50.0,75.0,1,0,5,7.0,80.0,635.3853851848928,,0.14289200890696865,22.478000000000065,18.279750000000035,2.2243971883619476,3,2,8,1
20,20,4,11,45.83,High,8,100.0,71.875,552.7621249998447,378.0111777776053,0.18090964535608894,9,90.0,100.0,470.9427555559766,,0.19110602921102274,4,50.0,96.875,882.4512749988571,1376.9506999997247,0.05666035215379428,300.00699999999995,131.64000000000033,50.0,75.0,0,1,5,7.0,80.0,635.3853851848928,,0.14289200890696865,43.90300000000002,18.279750000000035,1.1388743366056986,3,2,8,1
20,21,5,11,45.83,High,8,100.0,71.875,552.7621249998447,378.0111777776053,0.18090964535608894,9,90.0,100.0,470.9427555559766,,0.19110602921102274,4,50.0,96.875,882.4512749988571,1376.9506999997247,0.05666035215379428,300.00699999999995,131.64000000000033,50.0,75.0,1,0,5,7.0,80.0,635.3853851848928,,0.14289200890696865,17.26800000000003,18.279750000000035,2.895529302756539,3,2,8,1
20,22,5,11,45.83,High,8,100.0,71.875,552.7621249998447,378.0111777776053,0.18090964535608894,9,90.0,100.0,470.9427555559766,,0.19110602921102274,4,50.0,96.875,882.4512749988571,1376.9506999997247,0.05666035215379428,300.00699999999995,131.64000000000033,50.0,75.0,0,1,5,7.0,80.0,635.3853851848928,,0.14289200890696865,29.154999999999973,18.279750000000035,1.7149717029669027,3,2,8,1
20,23,5,11,45.83,High,8,100.0,71.875,552.7621249998447,378.0111777776053,0.18090964535608894,9,90.0,100.0,470.9427555559766,,0.19110602921102274,4,50.0,96.875,882.4512749988571,1376.9506999997247,0.05666035215379428,300.00699999999995,131.64000000000033,50.0,75.0,1,0,5,7.0,80.0,635.3853851848928,,0.14289200890696865,19.534999999999854,18.279750000000035,2.5595085743537433,3,2,8,1
20,24,5,11,45.83,High,8,100.0,71.875,552.7621249998447,378.0111777776053,0.18090964535608894,9,90.0,100.0,470.9427555559766,,0.19110602921102274,4,50.0,96.875,882.4512749988571,1376.9506999997247,0.05666035215379428,300.00699999999995,131.64000000000033,50.0,75.0,0,1,5,7.0,80.0,635.3853851848928,,0.14289200890696865,31.608000000000175,18.279750000000035,1.581878005568202,3,2,8,1
20,25,6,11,45.83,High,8,100.0,71.875,552.7621249998447,378.0111777776053,0.18090964535608894,9,90.0,100.0,470.9427555559766,,0.19110602921102274,4,50.0,96.875,882.4512749988571,1376.9506999997247,0.05666035215379428,300.00699999999995,131.64000000000033,100.0,75.0,1,0,4,7.0,80.0,635.3853851848928,,0.14289200890696865,25.82900000000018,18.279750000000035,3.871617174493759,3,2,8,1
20,26,6,11,45.83,High,8,100.0,71.875,552.7621249998447,378.0111777776053,0.18090964535608894,9,90.0,100.0,470.9427555559766,,0.19110602921102274,4,50.0,96.875,882.4512749988571,1376.9506999997247,0.05666035215379428,300.00699999999995,131.64000000000033,100.0,75.0,1,0,4,7.0,80.0,635.3853851848928,,0.14289200890696865,33.35699999999997,18.279750000000035,2.9978715112270313,3,2,8,1
20,27,6,11,45.83,High,8,100.0,71.875,552.7621249998447,378.0111777776053,0.18090964535608894,9,90.0,100.0,470.9427555559766,,0.19110602921102274,4,50.0,96.875,882.4512749988571,1376.9506999997247,0.05666035215379428,300.00699999999995,131.64000000000033,100.0,75.0,1,0,4,7.0,80.0,635.3853851848928,,0.14289200890696865,42.41300000000001,18.279750000000035,2.357767665574234,3,2,8,1
20,28,6,11,45.83,High,8,100.0,71.875,552.7621249998447,378.0111777776053,0.18090964535608894,9,90.0,100.0,470.9427555559766,,0.19110602921102274,4,50.0,96.875,882.4512749988571,1376.9506999997247,0.05666035215379428,300.00699999999995,131.64000000000033,100.0,75.0,1,0,4,7.0,80.0,635.3853851848928,,0.14289200890696865,23.609999999999673,18.279750000000035,4.2354934349852345,3,2,8,1
20,29,7,11,45.83,High,8,100.0,71.875,552.7621249998447,378.0111777776053,0.18090964535608894,9,90.0,100.0,470.9427555559766,,0.19110602921102274,4,50.0,96.875,882.4512749988571,1376.9506999997247,0.05666035215379428,300.00699999999995,131.64000000000033,75.0,75.0,1,0,5,7.0,80.0,635.3853851848928,,0.14289200890696865,15.882000000000062,18.279750000000035,4.722327162825822,3,2,8,1
20,30,7,11,45.83,High,8,100.0,71.875,552.7621249998447,378.0111777776053,0.18090964535608894,9,90.0,100.0,470.9427555559766,,0.19110602921102274,4,50.0,96.875,882.4512749988571,1376.9506999997247,0.05666035215379428,300.00699999999995,131.64000000000033,75.0,75.0,1,0,5,7.0,80.0,635.3853851848928,,0.14289200890696865,31.363000000000284,18.279750000000035,2.391352868029185,3,2,8,1
20,31,7,11,45.83,High,8,100.0,71.875,552.7621249998447,378.0111777776053,0.18090964535608894,9,90.0,100.0,470.9427555559766,,0.19110602921102274,4,50.0,96.875,882.4512749988571,1376.9506999997247,0.05666035215379428,300.00699999999995,131.64000000000033,75.0,75.0,1,0,5,7.0,80.0,635.3853851848928,,0.14289200890696865,42.259000000000015,18.279750000000035,1.7747698715066607,3,2,8,1
20,32,7,11,45.83,High,8,100.0,71.875,552.7621249998447,378.0111777776053,0.18090964535608894,9,90.0,100.0,470.9427555559766,,0.19110602921102274,4,50.0,96.875,882.4512749988571,1376.9506999997247,0.05666035215379428,300.00699999999995,131.64000000000033,75.0,75.0,0,1,5,7.0,80.0,635.3853851848928,,0.14289200890696865,42.13599999999997,18.279750000000035,1.7799506360356951,3,2,8,1
21,1,0,14,58.33,High,8,100.0,100.0,467.17842500009965,,0.21405098062903627,9,90.0,100.0,378.0193999999331,,0.23808301901970091,8,100.0,93.75,488.4584750000158,443.86820000022453,0.2047256934174328,300.00299999999993,90.41399999999976,100.0,78.125,1,0,1,8.333333333333334,96.66666666666667,444.5521000000162,,0.21895323102205666,35.807000000000016,18.279750000000035,2.7927500209456237,1,1,6,1
21,2,0,14,58.33,High,8,100.0,100.0,467.17842500009965,,0.21405098062903627,9,90.0,100.0,378.0193999999331,,0.23808301901970091,8,100.0,93.75,488.4584750000158,443.86820000022453,0.2047256934174328,300.00299999999993,90.41399999999976,100.0,78.125,1,0,1,8.333333333333334,96.66666666666667,444.5521000000162,,0.21895323102205666,19.55600000000004,18.279750000000035,5.113520147269369,1,1,6,1
21,3,0,14,58.33,High,8,100.0,100.0,467.17842500009965,,0.21405098062903627,9,90.0,100.0,378.0193999999331,,0.23808301901970091,8,100.0,93.75,488.4584750000158,443.86820000022453,0.2047256934174328,300.00299999999993,90.41399999999976,100.0,78.125,1,0,1,8.333333333333334,96.66666666666667,444.5521000000162,,0.21895323102205666,22.58199999999988,18.279750000000035,4.428305730227638,1,1,6,1
21,4,0,14,58.33,High,8,100.0,100.0,467.17842500009965,,0.21405098062903627,9,90.0,100.0,378.0193999999331,,0.23808301901970091,8,100.0,93.75,488.4584750000158,443.86820000022453,0.2047256934174328,300.00299999999993,90.41399999999976,100.0,78.125,1,0,1,8.333333333333334,96.66666666666667,444.5521000000162,,0.21895323102205666,26.894999999999982,18.279750000000035,3.718163227365684,1,1,6,1
21,5,1,14,58.33,High,8,100.0,100.0,467.17842500009965,,0.21405098062903627,9,90.0,100.0,378.0193999999331,,0.23808301901970091,8,100.0,93.75,488.4584750000158,443.86820000022453,0.2047256934174328,300.00299999999993,90.41399999999976,100.0,78.125,1,0,2,8.333333333333334,96.66666666666667,444.5521000000162,,0.21895323102205666,26.937000000000126,18.279750000000035,3.712365890782178,1,1,6,1
21,6,1,14,58.33,High,8,100.0,100.0,467.17842500009965,,0.21405098062903627,9,90.0,100.0,378.0193999999331,,0.23808301901970091,8,100.0,93.75,488.4584750000158,443.86820000022453,0.2047256934174328,300.00299999999993,90.41399999999976,100.0,78.125,1,0,2,8.333333333333334,96.66666666666667,444.5521000000162,,0.21895323102205666,26.644999999999982,18.279750000000035,3.7530493525989894,1,1,6,1
21,7,1,14,58.33,High,8,100.0,100.0,467.17842500009965,,0.21405098062903627,9,90.0,100.0,378.0193999999331,,0.23808301901970091,8,100.0,93.75,488.4584750000158,443.86820000022453,0.2047256934174328,300.00299999999993,90.41399999999976,100.0,78.125,1,0,2,8.333333333333334,96.66666666666667,444.5521000000162,,0.21895323102205666,17.867999999999938,18.279750000000035,5.5965972688605525,1,1,6,1
21,8,1,14,58.33,High,8,100.0,100.0,467.17842500009965,,0.21405098062903627,9,90.0,100.0,378.0193999999331,,0.23808301901970091,8,100.0,93.75,488.4584750000158,443.86820000022453,0.2047256934174328,300.00299999999993,90.41399999999976,100.0,78.125,1,0,2,8.333333333333334,96.66666666666667,444.5521000000162,,0.21895323102205666,21.16599999999994,18.279750000000035,4.724558253803282,1,1,6,1
21,9,2,14,58.33,High,8,100.0,100.0,467.17842500009965,,0.21405098062903627,9,90.0,100.0,378.0193999999331,,0.23808301901970091,8,100.0,93.75,488.4584750000158,443.86820000022453,0.2047256934174328,300.00299999999993,90.41399999999976,100.0,78.125,1,0,2,8.333333333333334,96.66666666666667,444.5521000000162,,0.21895323102205666,18.298999999999978,18.279750000000035,5.4647794961473375,1,1,6,1
21,10,2,14,58.33,High,8,100.0,100.0,467.17842500009965,,0.21405098062903627,9,90.0,100.0,378.0193999999331,,0.23808301901970091,8,100.0,93.75,488.4584750000158,443.86820000022453,0.2047256934174328,300.00299999999993,90.41399999999976,100.0,78.125,1,0,2,8.333333333333334,96.66666666666667,444.5521000000162,,0.21895323102205666,24.427000000000135,18.279750000000035,4.093830597289862,1,1,6,1
21,11,2,14,58.33,High,8,100.0,100.0,467.17842500009965,,0.21405098062903627,9,90.0,100.0,378.0193999999331,,0.23808301901970091,8,100.0,93.75,488.4584750000158,443.86820000022453,0.2047256934174328,300.00299999999993,90.41399999999976,100.0,78.125,1,0,2,8.333333333333334,96.66666666666667,444.5521000000162,,0.21895323102205666,14.68899999999985,18.279750000000035,6.8078153720471795,1,1,6,1
21,12,2,14,58.33,High,8,100.0,100.0,467.17842500009965,,0.21405098062903627,9,90.0,100.0,378.0193999999331,,0.23808301901970091,8,100.0,93.75,488.4584750000158,443.86820000022453,0.2047256934174328,300.00299999999993,90.41399999999976,100.0,78.125,1,0,2,8.333333333333334,96.66666666666667,444.5521000000162,,0.21895323102205666,15.142000000000053,18.279750000000035,6.604147404570047,1,1,6,1
21,13,3,14,58.33,High,8,100.0,100.0,467.17842500009965,,0.21405098062903627,9,90.0,100.0,378.0193999999331,,0.23808301901970091,8,100.0,93.75,488.4584750000158,443.86820000022453,0.2047256934174328,300.00299999999993,90.41399999999976,75.0,78.125,0,1,2,8.333333333333334,96.66666666666667,444.5521000000162,,0.21895323102205666,17.798000000000002,18.279750000000035,4.213956624339813,1,1,6,1
21,14,3,14,58.33,High,8,100.0,100.0,467.17842500009965,,0.21405098062903627,9,90.0,100.0,378.0193999999331,,0.23808301901970091,8,100.0,93.75,488.4584750000158,443.86820000022453,0.2047256934174328,300.00299999999993,90.41399999999976,75.0,78.125,1,0,2,8.333333333333334,96.66666666666667,444.5521000000162,,0.21895323102205666,22.692000000000007,18.279750000000035,3.3051295610787936,1,1,6,1
21,15,3,14,58.33,High,8,100.0,100.0,467.17842500009965,,0.21405098062903627,9,90.0,100.0,378.0193999999331,,0.23808301901970091,8,100.0,93.75,488.4584750000158,443.86820000022453,0.2047256934174328,300.00299999999993,90.41399999999976,75.0,78.125,1,0,2,8.333333333333334,96.66666666666667,444.5521000000162,,0.21895323102205666,17.623000000000047,18.279750000000035,4.255802076831402,1,1,6,1
21,16,3,14,58.33,High,8,100.0,100.0,467.17842500009965,,0.21405098062903627,9,90.0,100.0,378.0193999999331,,0.23808301901970091,8,100.0,93.75,488.4584750000158,443.86820000022453,0.2047256934174328,300.00299999999993,90.41399999999976,75.0,78.125,1,0,2,8.333333333333334,96.66666666666667,444.5521000000162,,0.21895323102205666,18.0150000000001,18.279750000000035,4.163197335553682,1,1,6,1
21,17,4,14,58.33,High,8,100.0,100.0,467.17842500009965,,0.21405098062903627,9,90.0,100.0,378.0193999999331,,0.23808301901970091,8,100.0,93.75,488.4584750000158,443.86820000022453,0.2047256934174328,300.00299999999993,90.41399999999976,25.0,78.125,0,1,5,8.333333333333334,96.66666666666667,444.5521000000162,,0.21895323102205666,29.832999999999856,18.279750000000035,0.8379981899239138,1,1,6,1
21,18,4,14,58.33,High,8,100.0,100.0,467.17842500009965,,0.21405098062903627,9,90.0,100.0,378.0193999999331,,0.23808301901970091,8,100.0,93.75,488.4584750000158,443.86820000022453,0.2047256934174328,300.00299999999993,90.41399999999976,25.0,78.125,0,1,5,8.333333333333334,96.66666666666667,444.5521000000162,,0.21895323102205666,7.904999999999973,18.279750000000035,3.1625553447185437,1,1,6,1
21,19,4,14,58.33,High,8,100.0,100.0,467.17842500009965,,0.21405098062903627,9,90.0,100.0,378.0193999999331,,0.23808301901970091,8,100.0,93.75,488.4584750000158,443.86820000022453,0.2047256934174328,300.00299999999993,90.41399999999976,25.0,78.125,1,0,5,8.333333333333334,96.66666666666667,444.5521000000162,,0.21895323102205666,32.67399999999998,18.279750000000035,0.7651343575931939,1,1,6,1
21,20,4,14,58.33,High,8,100.0,100.0,467.17842500009965,,0.21405098062903627,9,90.0,100.0,378.0193999999331,,0.23808301901970091,8,100.0,93.75,488.4584750000158,443.86820000022453,0.2047256934174328,300.00299999999993,90.41399999999976,25.0,78.125,0,1,5,8.333333333333334,96.66666666666667,444.5521000000162,,0.21895323102205666,29.94100000000003,18.279750000000035,0.8349754517217185,1,1,6,1
21,21,5,14,58.33,High,8,100.0,100.0,467.17842500009965,,0.21405098062903627,9,90.0,100.0,378.0193999999331,,0.23808301901970091,8,100.0,93.75,488.4584750000158,443.86820000022453,0.2047256934174328,300.00299999999993,90.41399999999976,75.0,78.125,1,0,5,8.333333333333334,96.66666666666667,444.5521000000162,,0.21895323102205666,17.30899999999997,18.279750000000035,4.333005950661514,1,1,6,1
21,22,5,14,58.33,High,8,100.0,100.0,467.17842500009965,,0.21405098062903627,9,90.0,100.0,378.0193999999331,,0.23808301901970091,8,100.0,93.75,488.4584750000158,443.86820000022453,0.2047256934174328,300.00299999999993,90.41399999999976,75.0,78.125,1,0,5,8.333333333333334,96.66666666666667,444.5521000000162,,0.21895323102205666,18.77500000000009,18.279750000000035,3.994673768308902,1,1,6,1
21,23,5,14,58.33,High,8,100.0,100.0,467.17842500009965,,0.21405098062903627,9,90.0,100.0,378.0193999999331,,0.23808301901970091,8,100.0,93.75,488.4584750000158,443.86820000022453,0.2047256934174328,300.00299999999993,90.41399999999976,75.0,78.125,0,1,5,8.333333333333334,96.66666666666667,444.5521000000162,,0.21895323102205666,18.162000000000035,18.279750000000035,4.129501156260316,1,1,6,1
21,24,5,14,58.33,High,8,100.0,100.0,467.17842500009965,,0.21405098062903627,9,90.0,100.0,378.0193999999331,,0.23808301901970091,8,100.0,93.75,488.4584750000158,443.86820000022453,0.2047256934174328,300.00299999999993,90.41399999999976,75.0,78.125,1,0,5,8.333333333333334,96.66666666666667,444.5521000000162,,0.21895323102205666,20.646999999999935,18.279750000000035,3.6324889814501016,1,1,6,1
21,25,6,14,58.33,High,8,100.0,100.0,467.17842500009965,,0.21405098062903627,9,90.0,100.0,378.0193999999331,,0.23808301901970091,8,100.0,93.75,488.4584750000158,443.86820000022453,0.2047256934174328,300.00299999999993,90.41399999999976,100.0,78.125,1,0,4,8.333333333333334,96.66666666666667,444.5521000000162,,0.21895323102205666,13.200000000000045,18.279750000000035,7.5757575757575495,1,1,6,1
21,26,6,14,58.33,High,8,100.0,100.0,467.17842500009965,,0.21405098062903627,9,90.0,100.0,378.0193999999331,,0.23808301901970091,8,100.0,93.75,488.4584750000158,443.86820000022453,0.2047256934174328,300.00299999999993,90.41399999999976,100.0,78.125,1,0,4,8.333333333333334,96.66666666666667,444.5521000000162,,0.21895323102205666,19.91899999999987,18.279750000000035,5.0203323460013385,1,1,6,1
21,27,6,14,58.33,High,8,100.0,100.0,467.17842500009965,,0.21405098062903627,9,90.0,100.0,378.0193999999331,,0.23808301901970091,8,100.0,93.75,488.4584750000158,443.86820000022453,0.2047256934174328,300.00299999999993,90.41399999999976,100.0,78.125,1,0,4,8.333333333333334,96.66666666666667,444.5521000000162,,0.21895323102205666,20.811999999999898,18.279750000000035,4.804920238324067,1,1,6,1
21,28,6,14,58.33,High,8,100.0,100.0,467.17842500009965,,0.21405098062903627,9,90.0,100.0,378.0193999999331,,0.23808301901970091,8,100.0,93.75,488.4584750000158,443.86820000022453,0.2047256934174328,300.00299999999993,90.41399999999976,100.0,78.125,1,0,4,8.333333333333334,96.66666666666667,444.5521000000162,,0.21895323102205666,24.162000000000262,18.279750000000035,4.13873023756307,1,1,6,1
21,29,7,14,58.33,High,8,100.0,100.0,467.17842500009965,,0.21405098062903627,9,90.0,100.0,378.0193999999331,,0.23808301901970091,8,100.0,93.75,488.4584750000158,443.86820000022453,0.2047256934174328,300.00299999999993,90.41399999999976,50.0,78.125,1,0,7,8.333333333333334,96.66666666666667,444.5521000000162,,0.21895323102205666,20.746000000000095,18.279750000000035,2.4101031524149126,1,1,6,1
21,30,7,14,58.33,High,8,100.0,100.0,467.17842500009965,,0.21405098062903627,9,90.0,100.0,378.0193999999331,,0.23808301901970091,8,100.0,93.75,488.4584750000158,443.86820000022453,0.2047256934174328,300.00299999999993,90.41399999999976,50.0,78.125,1,0,7,8.333333333333334,96.66666666666667,444.5521000000162,,0.21895323102205666,24.799999999999727,18.279750000000035,2.0161290322580867,1,1,6,1
21,31,7,14,58.33,High,8,100.0,100.0,467.17842500009965,,0.21405098062903627,9,90.0,100.0,378.0193999999331,,0.23808301901970091,8,100.0,93.75,488.4584750000158,443.86820000022453,0.2047256934174328,300.00299999999993,90.41399999999976,50.0,78.125,0,1,7,8.333333333333334,96.66666666666667,444.5521000000162,,0.21895323102205666,20.957000000000335,18.279750000000035,2.385837667605058,1,1,6,1
21,32,7,14,58.33,High,8,100.0,100.0,467.17842500009965,,0.21405098062903627,9,90.0,100.0,378.0193999999331,,0.23808301901970091,8,100.0,93.75,488.4584750000158,443.86820000022453,0.2047256934174328,300.00299999999993,90.41399999999976,50.0,78.125,0,1,7,8.333333333333334,96.66666666666667,444.5521000000162,,0.21895323102205666,23.910999999999603,18.279750000000035,2.0910877838652016,1,1,6,1
22,1,0,14,58.33,High,8,100.0,100.0,415.0930750001862,,0.24090982486266516,10,100.0,100.0,384.19540999966557,,0.2602842131822633,8,100.0,100.0,416.17636249975476,,0.24028274791809912,300.00800000000004,87.13099999999986,50.0,87.5,0,1,4,8.666666666666666,100.0,405.1549491665355,,0.24715892865434252,21.608999999999924,18.279750000000035,2.313850710352176,1,2,5,1
22,2,0,14,58.33,High,8,100.0,100.0,415.0930750001862,,0.24090982486266516,10,100.0,100.0,384.19540999966557,,0.2602842131822633,8,100.0,100.0,416.17636249975476,,0.24028274791809912,300.00800000000004,87.13099999999986,50.0,87.5,1,0,4,8.666666666666666,100.0,405.1549491665355,,0.24715892865434252,11.97199999999998,18.279750000000035,4.176411627129977,1,2,5,1
22,3,0,14,58.33,High,8,100.0,100.0,415.0930750001862,,0.24090982486266516,10,100.0,100.0,384.19540999966557,,0.2602842131822633,8,100.0,100.0,416.17636249975476,,0.24028274791809912,300.00800000000004,87.13099999999986,50.0,87.5,1,0,4,8.666666666666666,100.0,405.1549491665355,,0.24715892865434252,20.66300000000001,18.279750000000035,2.41978415525335,1,2,5,1
22,4,0,14,58.33,High,8,100.0,100.0,415.0930750001862,,0.24090982486266516,10,100.0,100.0,384.19540999966557,,0.2602842131822633,8,100.0,100.0,416.17636249975476,,0.24028274791809912,300.00800000000004,87.13099999999986,50.0,87.5,0,1,4,8.666666666666666,100.0,405.1549491665355,,0.24715892865434252,16.260999999999967,18.279750000000035,3.074841645655255,1,2,5,1
22,5,1,14,58.33,High,8,100.0,100.0,415.0930750001862,,0.24090982486266516,10,100.0,100.0,384.19540999966557,,0.2602842131822633,8,100.0,100.0,416.17636249975476,,0.24028274791809912,300.00800000000004,87.13099999999986,100.0,87.5,1,0,4,8.666666666666666,100.0,405.1549491665355,,0.24715892865434252,24.037000000000035,18.279750000000035,4.160252943378952,1,2,5,1
22,6,1,14,58.33,High,8,100.0,100.0,415.0930750001862,,0.24090982486266516,10,100.0,100.0,384.19540999966557,,0.2602842131822633,8,100.0,100.0,416.17636249975476,,0.24028274791809912,300.00800000000004,87.13099999999986,100.0,87.5,1,0,4,8.666666666666666,100.0,405.1549491665355,,0.24715892865434252,12.150000000000091,18.279750000000035,8.230452674897059,1,2,5,1
22,7,1,14,58.33,High,8,100.0,100.0,415.0930750001862,,0.24090982486266516,10,100.0,100.0,384.19540999966557,,0.2602842131822633,8,100.0,100.0,416.17636249975476,,0.24028274791809912,300.00800000000004,87.13099999999986,100.0,87.5,1,0,4,8.666666666666666,100.0,405.1549491665355,,0.24715892865434252,11.092999999999847,18.279750000000035,9.014693951140483,1,2,5,1
22,8,1,14,58.33,High,8,100.0,100.0,415.0930750001862,,0.24090982486266516,10,100.0,100.0,384.19540999966557,,0.2602842131822633,8,100.0,100.0,416.17636249975476,,0.24028274791809912,300.00800000000004,87.13099999999986,100.0,87.5,1,0,4,8.666666666666666,100.0,405.1549491665355,,0.24715892865434252,19.422000000000025,18.279750000000035,5.1488003295232145,1,2,5,1
22,9,2,14,58.33,High,8,100.0,100.0,415.0930750001862,,0.24090982486266516,10,100.0,100.0,384.19540999966557,,0.2602842131822633,8,100.0,100.0,416.17636249975476,,0.24028274791809912,300.00800000000004,87.13099999999986,100.0,87.5,1,0,4,8.666666666666666,100.0,405.1549491665355,,0.24715892865434252,17.079999999999927,18.279750000000035,5.854800936768175,1,2,5,1
22,10,2,14,58.33,High,8,100.0,100.0,415.0930750001862,,0.24090982486266516,10,100.0,100.0,384.19540999966557,,0.2602842131822633,8,100.0,100.0,416.17636249975476,,0.24028274791809912,300.00800000000004,87.13099999999986,100.0,87.5,1,0,4,8.666666666666666,100.0,405.1549491665355,,0.24715892865434252,25.624000000000024,18.279750000000035,3.9025913206368994,1,2,5,1
22,11,2,14,58.33,High,8,100.0,100.0,415.0930750001862,,0.24090982486266516,10,100.0,100.0,384.19540999966557,,0.2602842131822633,8,100.0,100.0,416.17636249975476,,0.24028274791809912,300.00800000000004,87.13099999999986,100.0,87.5,1,0,4,8.666666666666666,100.0,405.1549491665355,,0.24715892865434252,19.03300000000013,18.279750000000035,5.254032469920628,1,2,5,1
